participant,rep,equipment_code,exercise_code,quality_code,timestamp,timestamp_ms,accelX,accelY,accelZ,accelMag,gyroX,gyroY,gyroZ,roll,pitch,yaw,filteredX,filteredY,filteredZ,filteredMag
1,1,1,3,1,00.000,0,-0.2100,9.9000,0.9800,9.9506,-0.0087,-0.0415,-0.0927,1.56,83.88,25.19,0.3113,9.7594,1.0614,9.8219
1,1,1,3,1,00.168,168,-0.3600,9.7800,1.0200,9.8396,0.0327,-0.0316,0.0949,2.31,83.81,24.81,0.2228,9.7621,1.0559,9.8216
1,1,1,3,1,00.289,289,-0.1300,9.6000,1.0100,9.6539,0.0229,-0.0316,0.0676,1.56,83.63,25.81,0.1763,9.7407,1.0499,9.7987
1,1,1,3,1,00.409,409,0.1600,8.7300,1.0000,8.7885,0.0207,-0.0305,-0.2531,1.94,83.50,25.63,0.1742,9.6076,1.0433,9.6656
1,1,1,3,1,00.530,530,-0.3900,8.1600,0.9400,8.2232,0.0109,-0.0284,-0.4472,3.81,83.44,23.94,0.0998,9.4168,1.0297,9.4735
1,1,1,3,1,00.651,651,-1.1300,9.7200,0.9300,9.8296,-0.0153,0.0131,0.2138,5.19,83.44,22.63,-0.0622,9.4568,1.0165,9.5114
1,1,1,3,1,00.772,772,-0.8500,9.6400,1.2200,9.7540,-0.0142,0.0044,-0.1353,5.44,83.56,22.38,-0.1660,9.4809,1.0434,9.5396
1,1,1,3,1,00.893,893,-0.9100,9.8300,1.1600,9.9399,-0.0175,0.0284,0.2629,6.00,83.63,21.69,-0.2641,9.5269,1.0587,9.5892
1,1,1,3,1,01.016,1016,-1.6800,9.5400,1.0200,9.7403,-0.0469,0.0153,-0.0611,6.88,83.81,20.75,-0.4506,9.5286,1.0536,9.5973
1,1,1,3,1,01.179,1179,-0.5800,9.6700,0.8900,9.7282,0.0098,0.0229,0.0404,6.44,83.94,20.94,-0.4677,9.5473,1.0321,9.6143
1,1,1,3,1,01.302,1302,-1.2100,9.4000,0.9600,9.5261,0.0120,0.0185,-0.1571,7.44,83.75,19.81,-0.5655,9.5279,1.0226,9.5992
1,1,1,3,1,01.423,1423,-1.1700,10.0600,0.9400,10.1713,-0.0218,0.0098,-0.1113,7.94,83.81,19.25,-0.6452,9.5980,1.0117,9.6727
1,1,1,3,1,01.543,1543,-1.3800,9.8000,1.0800,9.9554,0.0251,0.0065,-0.2651,9.06,83.81,18.44,-0.7420,9.6246,1.0207,9.7070
1,1,1,3,1,01.664,1664,-2.0700,9.0500,0.7900,9.3173,0.0218,0.0218,-0.1680,10.69,83.56,17.38,-0.9170,9.5489,0.9903,9.6438
1,1,1,3,1,01.785,1785,-1.8600,9.6900,0.7500,9.8954,-0.0044,0.0295,0.0774,10.75,83.56,18.19,-1.0413,9.5675,0.9586,9.6716
1,1,1,3,1,01.906,1906,-1.3700,9.3800,1.0700,9.5397,-0.0196,0.0556,0.2389,9.75,83.56,19.50,-1.0846,9.5428,0.9733,9.6534
1,1,1,3,1,02.028,2028,-2.1400,10.8200,1.2300,11.0980,-0.0458,0.0665,0.3065,9.81,83.75,19.19,-1.2237,9.7111,1.0071,9.8395
1,1,1,3,1,02.191,2191,-1.2500,11.4400,1.2700,11.5780,-0.0153,0.0295,0.0720,7.19,84.06,21.31,-1.2271,9.9389,1.0418,10.0684
1,1,1,3,1,02.315,2315,-0.9500,10.7500,1.0100,10.8391,0.0240,0.0175,-0.0262,6.63,83.94,21.81,-1.1906,10.0458,1.0376,10.1692
1,2,1,3,1,02.436,2436,-1.0500,9.9400,0.9000,10.0357,0.0338,-0.0371,-0.3043,7.06,83.75,21.56,-1.1721,10.0318,1.0195,10.1514
1,2,1,3,1,02.556,2556,-1.2800,9.9600,1.0400,10.0956,0.0175,-0.0393,-0.0229,7.69,83.69,21.31,-1.1863,10.0224,1.0222,10.1440
1,2,1,3,1,02.677,2677,-1.9800,9.6700,1.0800,9.9295,0.0567,-0.0240,-0.4276,9.38,83.50,19.88,-1.2909,9.9759,1.0298,10.1117
1,2,1,3,1,02.798,2798,-1.9800,9.6100,0.9300,9.8558,0.0316,0.0425,0.1374,10.06,83.25,19.19,-1.3817,9.9277,1.0166,10.0748
1,2,1,3,1,02.919,2919,-0.0900,10.4800,1.1900,10.5477,0.0349,0.0633,0.6327,8.44,83.00,20.69,-1.2115,10.0005,1.0395,10.1271
1,2,1,3,1,03.040,3040,0.6500,9.0500,1.7700,9.2443,0.0185,0.0578,0.6250,7.81,82.75,21.06,-0.9662,9.8752,1.1357,9.9872
1,2,1,3,1,03.207,3207,-1.9400,8.6200,1.0600,8.8990,-0.1734,-0.0033,0.2880,8.06,83.25,20.69,-1.0945,9.7098,1.1258,9.8360
1,2,1,3,1,03.329,3329,-1.7300,10.1100,0.8900,10.2955,-0.2520,-0.0305,-0.0425,7.44,85.06,21.19,-1.1783,9.7626,1.0947,9.8942
1,2,1,3,1,03.449,3449,-0.8600,10.5000,0.6200,10.5534,0.0851,-0.0524,0.0447,5.44,85.50,23.31,-1.1363,9.8597,1.0321,9.9785
1,2,1,3,1,03.570,3570,-1.7900,8.9500,0.2100,9.1297,0.1025,-0.0589,-0.4396,4.50,84.63,24.56,-1.2225,9.7399,0.9238,9.8597
1,2,1,3,1,03.691,3691,-1.2500,10.0600,1.0700,10.1937,0.0022,0.0305,0.1233,3.81,84.31,25.19,-1.2261,9.7820,0.9431,9.9036
1,2,1,3,1,03.812,3812,0.5400,9.0500,0.9300,9.1137,-0.0425,-0.0207,0.3447,2.94,84.38,25.75,-0.9934,9.6856,0.9413,9.7818
1,2,1,3,1,03.934,3934,-0.4200,9.4600,1.0300,9.5252,-0.0600,-0.0698,-0.2858,3.31,84.81,25.63,-0.9178,9.6559,0.9530,9.7461
1,2,1,3,1,04.060,4060,-0.6500,10.9300,0.6400,10.9680,-0.0338,-0.0731,0.2869,3.63,85.25,25.81,-0.8825,9.8238,0.9118,9.9054
1,2,1,3,1,04.223,4223,-1.2200,4.7400,0.2200,4.8994,0.0055,-0.0971,-0.9577,6.44,85.31,23.69,-0.9270,9.1538,0.8206,9.2372
1,2,1,3,1,04.343,4343,0.7000,12.6400,0.7400,12.6810,0.0055,0.0295,0.5061,5.63,85.44,24.69,-0.7126,9.6132,0.8100,9.6736
1,2,1,3,1,04.464,4464,-3.2400,8.1300,0.7800,8.7865,0.0578,0.0491,-0.8127,9.00,84.94,21.06,-1.0456,9.4178,0.8060,9.5099
1,2,1,3,1,04.586,4586,-0.8900,10.3500,0.8100,10.4197,0.0502,0.0829,-0.0153,8.06,84.56,21.38,-1.0251,9.5406,0.8066,9.6294
1,2,1,3,1,04.712,4712,-1.9900,9.9300,1.4400,10.2293,0.1080,0.1080,-0.0436,8.00,83.88,20.94,-1.1523,9.5919,0.8900,9.7018
1,2,1,3,1,04.848,4848,-0.1300,9.6800,1.1600,9.7501,0.0567,0.0469,0.0545,7.13,83.13,21.13,-1.0176,9.6035,0.9256,9.7016
1,2,1,3,1,04.973,4973,-1.3200,9.2100,1.4200,9.4118,-0.0262,-0.0273,-0.1167,8.25,83.00,20.06,-1.0574,9.5517,0.9908,9.6610
1,2,1,3,1,05.094,5094,-0.4600,9.6600,0.9600,9.7185,-0.0698,-0.0829,-0.0022,7.94,83.44,20.81,-0.9787,9.5660,0.9867,9.6664
1,2,1,3,1,05.256,5256,-1.3100,9.7500,0.9000,9.8787,-0.0251,-0.0818,-0.0611,8.75,84.06,20.81,-1.0224,9.5902,0.9753,9.6937
1,2,1,3,1,05.377,5377,-1.9000,9.8700,0.8600,10.0879,0.0109,-0.0535,-0.0927,9.13,84.19,20.88,-1.1380,9.6271,0.9601,9.7415
1,2,1,3,1,05.499,5499,-1.7700,9.7600,0.8200,9.9530,0.0164,-0.0295,-0.0927,9.56,84.13,20.81,-1.2213,9.6446,0.9416,9.7671
1,2,1,3,1,05.625,5625,-1.6900,9.9300,1.0000,10.1223,0.0207,-0.0087,0.1494,9.19,84.06,21.31,-1.2830,9.6822,0.9493,9.8129
1,2,1,3,1,05.746,5746,-0.8900,9.2700,0.8100,9.3478,0.0000,0.0338,0.1364,8.13,83.88,22.31,-1.2313,9.6279,0.9310,9.7508
1,2,1,3,1,05.866,5866,-1.4500,9.6700,1.0800,9.8376,-0.0033,0.0382,-0.0644,8.31,83.94,21.94,-1.2601,9.6334,0.9506,9.7619
1,2,1,3,1,05.987,5987,-0.6900,9.8300,0.9900,9.9038,0.0338,0.0251,0.1604,8.06,83.81,22.00,-1.1850,9.6593,0.9558,9.7786
1,2,1,3,1,06.108,6108,-1.6300,9.6900,1.0900,9.8864,0.0382,-0.0175,-0.0295,8.44,83.56,21.56,-1.2436,9.6634,0.9735,9.7916
1,2,1,3,1,06.271,6271,-1.7000,9.3300,1.2600,9.5669,-0.0393,-0.0175,0.1080,8.50,83.50,21.75,-1.3037,9.6194,1.0112,9.7599
1,2,1,3,1,06.392,6392,-1.7200,10.9700,1.0900,11.1574,-0.1200,-0.0065,0.0327,7.75,84.06,22.44,-1.3586,9.7974,1.0216,9.9438
1,2,1,3,1,06.518,6518,-0.4200,11.9500,1.0100,12.0000,-0.0556,0.0371,-0.0327,7.38,84.69,22.63,-1.2349,10.0811,1.0201,10.2075
1,2,1,3,1,06.639,6639,-2.2200,10.3200,0.8600,10.5911,-0.0120,0.0545,-0.1658,10.19,84.75,19.75,-1.3647,10.1126,0.9990,10.2530
1,3,1,3,1,06.760,6760,-1.5300,9.9200,0.5800,10.0540,0.0491,0.0284,-0.0905,9.69,84.56,20.06,-1.3865,10.0872,0.9438,10.2257
1,3,1,3,1,06.881,6881,-1.7200,8.7400,1.2100,8.9894,0.0611,0.0284,-0.1811,10.25,83.94,19.38,-1.4304,9.9097,0.9789,10.0601
1,3,1,3,1,07.003,7003,-1.4200,8.9200,0.7500,9.0634,-0.0229,0.0338,-0.0927,11.13,83.88,18.25,-1.4291,9.7792,0.9487,9.9285
1,3,1,3,1,07.129,7129,-2.0600,9.7300,1.0100,9.9968,-0.0404,0.0065,0.0447,11.13,84.06,18.25,-1.5122,9.7728,0.9568,9.9352
1,3,1,3,1,07.291,7291,-1.7500,9.2900,0.7900,9.4863,-0.0098,0.0033,0.0785,10.63,84.19,18.56,-1.5435,9.7091,0.9348,9.8754
1,3,1,3,1,07.412,7412,-1.5300,10.1200,0.9800,10.2818,0.0120,-0.0033,0.0196,9.50,84.19,19.69,-1.5418,9.7633,0.9408,9.9289
1,3,1,3,1,07.533,7533,-1.8900,9.3800,1.0100,9.6217,0.0371,-0.0098,-0.0196,9.44,84.00,19.88,-1.5877,9.7128,0.9499,9.8874
1,3,1,3,1,07.654,7654,-1.4100,9.4400,1.1600,9.6150,0.0196,-0.0087,0.1407,8.94,83.81,20.38,-1.5642,9.6768,0.9776,9.8511
1,3,1,3,1,07.776,7776,-1.3100,9.3500,1.2100,9.5185,0.0207,-0.0175,0.0415,8.56,83.75,20.88,-1.5307,9.6338,1.0082,9.8066
1,3,1,3,1,07.898,7898,-1.6700,9.5400,0.9500,9.7315,0.0218,-0.0295,-0.0873,8.75,83.63,20.88,-1.5491,9.6214,1.0005,9.7965
1,3,1,3,1,08.023,8023,-2.0300,8.9400,1.0300,9.2253,-0.0044,0.0022,-0.0415,9.19,83.56,20.56,-1.6125,9.5316,1.0044,9.7191
1,3,1,3,1,08.144,8144,-1.6700,10.2200,1.1300,10.4170,-0.0502,0.0491,0.3120,8.13,83.75,21.38,-1.6200,9.6223,1.0210,9.8110
1,3,1,3,1,08.307,8307,-2.1100,8.4500,0.9700,8.7633,-0.0480,0.0469,-0.4069,8.00,84.13,21.00,-1.6846,9.4678,1.0142,9.6699
1,3,1,3,1,08.427,8427,-2.0900,9.7300,0.8100,9.9848,-0.0622,0.0393,0.0175,7.75,84.44,20.81,-1.7380,9.5024,0.9873,9.7104
1,3,1,3,1,08.549,8549,-1.5900,8.9500,0.8900,9.1336,0.0153,0.0731,-0.0076,7.56,84.50,20.63,-1.7185,9.4296,0.9745,9.6343
1,3,1,3,1,08.675,8675,-0.1500,8.4900,0.6300,8.5147,0.0327,0.0076,-0.1058,7.31,84.25,20.56,-1.5118,9.3058,0.9291,9.4735
1,3,1,3,1,08.796,8796,-1.5900,9.3100,1.1500,9.5146,0.0687,0.0142,-0.1713,8.88,83.88,19.00,-1.5221,9.3063,0.9582,9.4786
1,3,1,3,1,08.917,8917,-1.1300,9.3200,0.8800,9.4294,0.0229,-0.0229,-0.1353,9.69,83.69,18.31,-1.4705,9.3081,0.9479,9.4711
1,3,1,3,1,09.038,9038,-1.8300,9.2000,0.9700,9.4303,-0.0153,-0.0589,-0.0916,10.88,83.69,17.38,-1.5178,9.2939,0.9508,9.4649
1,3,1,3,1,09.160,9160,-0.7900,9.2100,1.2000,9.3214,0.0175,-0.0873,0.0360,10.50,83.81,18.25,-1.4219,9.2828,0.9837,9.4425
1,3,1,3,1,09.327,9327,-1.0300,9.5800,0.8100,9.6692,-0.0513,-0.0960,-0.0436,9.56,84.06,19.81,-1.3703,9.3220,0.9608,9.4710
1,3,1,3,1,09.448,9448,-1.7100,9.8300,0.9300,10.0209,-0.0622,-0.1244,-0.1418,11.25,84.75,18.88,-1.4150,9.3889,0.9567,9.5430
1,3,1,3,1,09.569,9569,-2.6600,9.7500,0.9200,10.1481,0.0011,-0.0960,-0.3414,12.75,85.06,18.06,-1.5791,9.4365,0.9519,9.6150
1,3,1,3,1,09.690,9690,-3.2000,9.6800,0.7300,10.2213,0.0807,0.0011,-0.1276,14.06,84.94,17.13,-1.7927,9.4686,0.9226,9.6809
1,3,1,3,1,09.811,9811,-3.2800,9.6900,0.9000,10.2696,0.1407,0.1309,-0.2171,15.38,84.06,15.63,-1.9887,9.4978,0.9197,9.7472
1,3,1,3,1,09.932,9932,-3.5000,9.2600,1.1900,9.9706,0.0916,0.2694,0.2367,16.06,82.75,13.75,-2.1878,9.4664,0.9553,9.7628
1,3,1,3,1,10.054,10054,-0.4300,9.0100,1.5400,9.1508,-0.0055,0.2105,0.1974,14.00,82.06,14.31,-1.9562,9.4063,1.0323,9.6629
1,3,1,3,1,10.180,10180,-3.3400,11.0800,1.6600,11.6909,-0.0404,0.0905,-0.2825,14.94,82.13,12.44,-2.1385,9.6268,1.1150,9.9244
1,3,1,3,1,10.343,10343,-3.2400,11.6200,1.5800,12.1663,-0.0425,0.2051,-0.2563,13.88,82.25,11.94,-2.2837,9.8895,1.1763,10.2177
1,3,1,3,1,10.464,10464,-0.9600,10.7900,1.0200,10.8805,0.0076,0.1756,-0.0676,13.19,82.06,11.19,-2.1093,10.0082,1.1557,10.2931
1,4,1,3,1,10.589,10589,-1.8100,9.5900,1.7400,9.9132,0.0055,0.0567,0.0851,13.94,81.81,9.75,-2.0698,9.9531,1.2327,10.2405
1,4,1,3,1,10.710,10710,-2.1600,9.2000,1.6400,9.5914,-0.0142,-0.0949,-0.2127,14.44,81.81,9.38,-2.0817,9.8538,1.2864,10.1531
1,4,1,3,1,10.832,10832,-2.1600,9.5000,1.1000,9.8044,-0.0600,-0.2149,-0.0338,14.94,82.50,10.00,-2.0920,9.8072,1.2618,10.1069
1,4,1,3,1,10.953,10953,-2.1500,9.1000,0.9200,9.3957,-0.0098,-0.1876,0.2258,15.00,83.13,11.31,-2.0997,9.7140,1.2168,10.0125
1,4,1,3,1,11.074,11074,-1.7400,9.6100,1.1200,9.8303,0.0360,-0.1407,0.1069,14.06,83.31,13.25,-2.0523,9.7003,1.2040,9.9879
1,4,1,3,1,11.195,11195,-2.2100,8.4800,1.1400,8.8371,0.0524,-0.1036,0.0600,13.94,83.06,14.31,-2.0731,9.5395,1.1956,9.8351
1,4,1,3,1,11.358,11358,-1.4200,8.8400,1.4700,9.0732,0.0131,-0.0818,-0.0905,13.13,82.94,15.94,-1.9870,9.4473,1.2317,9.7323
1,4,1,3,1,11.484,11484,-2.5000,8.6300,1.0000,9.0403,0.0000,-0.0611,0.0665,13.31,83.06,16.31,-2.0546,9.3396,1.2012,9.6381
1,4,1,3,1,11.605,11605,-2.2000,10.0700,1.2100,10.3783,-0.0382,-0.0305,0.3763,11.19,83.38,18.69,-2.0738,9.4359,1.2024,9.7356
1,4,1,3,1,11.726,11726,-1.7400,7.4200,1.0800,7.6974,-0.0382,-0.0055,-0.3000,10.56,83.88,19.31,-2.0298,9.1702,1.1862,9.4668
1,4,1,3,1,11.847,11847,-1.4000,6.4100,0.8100,6.6109,-0.1265,0.0807,0.6425,9.69,84.31,19.88,-1.9468,8.8065,1.1367,9.0905
1,4,1,3,1,11.968,11968,0.0000,10.6000,0.9000,10.6381,-0.4614,0.0491,0.0469,8.19,86.69,20.50,-1.6903,9.0428,1.1055,9.2656
1,4,1,3,1,12.089,12089,-0.0700,9.7100,0.1800,9.7119,-0.1167,0.0131,0.2280,8.50,88.50,19.88,-1.4767,9.1308,0.9835,9.3015
1,4,1,3,1,12.211,12211,-2.1500,8.9800,-0.2700,9.2377,0.0338,-0.0109,-0.2498,8.63,88.56,19.75,-1.5655,9.1109,0.8183,9.2805
1,4,1,3,1,12.375,12375,-2.1500,9.5300,0.1600,9.7708,0.1418,0.0535,-0.1156,9.56,87.50,18.81,-1.6425,9.1661,0.7316,9.3408
1,4,1,3,1,12.498,12498,-2.4200,9.7100,0.6500,10.0281,0.1265,0.0316,-0.0425,9.94,86.56,18.25,-1.7449,9.2378,0.7208,9.4287
1,4,1,3,1,12.618,12618,-0.3900,10.0400,0.9600,10.0933,0.1254,0.0164,0.0404,8.63,85.75,19.44,-1.5664,9.3435,0.7524,9.5037
1,4,1,3,1,12.739,12739,-0.6900,9.2000,0.8700,9.2668,0.0327,0.0065,-0.1178,8.81,85.19,19.31,-1.4509,9.3246,0.7679,9.4680
1,4,1,3,1,12.860,12860,-0.7000,9.8700,0.9600,9.9413,0.0207,-0.0065,0.0087,9.38,85.13,18.75,-1.3520,9.3965,0.7932,9.5263
1,4,1,3,1,12.981,12981,-1.9300,9.0500,0.8200,9.2898,0.0164,-0.0338,-0.2345,10.00,85.00,18.25,-1.4281,9.3508,0.7967,9.4927
1,4,1,3,1,13.102,13102,-1.8400,9.9700,0.8300,10.1723,0.0065,-0.0687,-0.1036,10.06,85.06,18.50,-1.4824,9.4324,0.8011,9.5817
1,4,1,3,1,13.223,13223,-1.3800,9.6000,0.7800,9.7300,0.0131,-0.0600,0.0654,10.69,85.00,18.38,-1.4689,9.4545,0.7983,9.6012
1,4,1,3,1,13.390,13390,-1.7100,10.1400,0.6800,10.3056,-0.0065,-0.0458,-0.0044,11.13,85.06,18.44,-1.5007,9.5448,0.7827,9.6937
1,4,1,3,1,13.511,13511,-1.7500,10.2500,0.9600,10.4425,0.0916,-0.0589,-0.0829,11.38,84.81,18.69,-1.5335,9.6377,0.8061,9.7922
1,4,1,3,1,13.632,13632,-2.0400,8.9100,1.0200,9.1973,0.0807,0.0109,0.2934,11.81,84.13,18.56,-1.6003,9.5418,0.8343,9.7110
1,4,1,3,1,13.753,13753,-2.2200,9.3800,1.0400,9.6951,-0.0436,0.0305,0.0262,11.69,83.94,18.56,-1.6819,9.5205,0.8614,9.7062
1,4,1,3,1,13.874,13874,-2.8300,8.9700,1.1100,9.4711,-0.0175,0.0284,-0.1560,11.81,83.94,18.25,-1.8332,9.4480,0.8941,9.6656
1,4,1,3,1,13.995,13995,-2.0900,9.9600,1.0900,10.2351,-0.0709,0.0360,-0.0229,12.06,84.25,17.69,-1.8671,9.5154,0.9200,9.7404
1,4,1,3,1,14.117,14117,-1.1500,10.2000,0.8400,10.2989,-0.0360,0.0327,0.2498,12.13,84.50,17.31,-1.7726,9.6057,0.9094,9.8101
1,4,1,3,1,14.243,14243,-2.2200,9.7100,1.1900,10.0314,0.0164,0.0087,-0.2225,12.63,84.50,16.75,-1.8315,9.6194,0.9464,9.8378
1,4,1,3,1,14.406,14406,-3.1400,12.6000,1.2100,13.0416,0.0720,0.0938,0.0753,12.19,84.19,16.75,-2.0040,10.0122,0.9811,10.2578
1,4,1,3,1,14.526,14526,-2.2800,10.3800,1.2000,10.6950,0.0742,0.0720,-0.1254,12.06,83.50,16.31,-2.0403,10.0606,1.0100,10.3150
1,5,1,3,1,14.647,14647,-2.5500,8.5800,1.3600,9.0536,0.0284,0.0131,-0.0665,12.63,83.06,15.56,-2.1075,9.8655,1.0561,10.1433
1,5,1,3,1,14.769,14769,-1.5200,8.4700,1.0900,8.6741,-0.1287,-0.1025,0.0022,12.94,83.50,15.50,-2.0301,9.6816,1.0606,9.9489
1,5,1,3,1,14.895,14895,-2.3800,8.6200,0.9100,8.9887,-0.0862,-0.1167,0.1996,13.50,84.38,15.56,-2.0762,9.5417,1.0407,9.8203
1,5,1,3,1,15.016,15016,-2.4300,9.1900,0.3800,9.5134,-0.0371,-0.1440,0.0774,12.88,85.00,17.06,-2.1228,9.4954,0.9537,9.7764
1,5,1,3,1,15.137,15137,-3.2700,11.5700,1.0000,12.0647,0.0600,-0.0916,0.0415,12.75,85.06,18.06,-2.2740,9.7688,0.9598,10.0758
1,5,1,3,1,15.258,15258,-1.1600,9.8100,1.0600,9.9351,0.0524,0.0000,0.2509,11.69,84.69,19.44,-2.1272,9.7742,0.9730,10.0502
1,5,1,3,1,15.421,15421,-1.9500,10.0200,1.3700,10.2995,-0.0633,0.0622,0.0698,11.31,84.75,19.50,-2.1038,9.8066,1.0253,10.0820
1,5,1,3,1,15.547,15547,-1.2900,9.9600,0.8000,10.0750,-0.0884,0.0360,0.1833,10.88,85.25,19.50,-1.9966,9.8268,0.9956,10.0769
1,5,1,3,1,15.668,15668,-1.5500,9.3100,0.6900,9.4633,-0.0185,0.0207,0.2727,10.88,85.56,19.38,-1.9377,9.7587,0.9553,9.9950
1,5,1,3,1,15.789,15789,-0.7400,9.1100,0.6700,9.1645,0.0109,0.0295,0.2378,9.56,85.56,20.56,-1.7799,9.6732,0.9177,9.8783
1,5,1,3,1,15.910,15910,-1.2000,8.9300,0.6500,9.0337,0.0295,0.0262,0.1822,8.81,85.44,21.19,-1.7035,9.5753,0.8825,9.7656
1,5,1,3,1,16.031,16031,-1.7800,10.3000,0.6500,10.4729,0.0371,0.0393,-0.0065,8.25,85.19,21.56,-1.7136,9.6708,0.8518,9.8583
1,5,1,3,1,16.152,16152,-1.2800,8.0700,0.6000,8.1929,0.0415,0.1254,0.2280,7.56,84.88,21.75,-1.6564,9.4598,0.8186,9.6386
1,5,1,3,1,16.274,16274,0.0000,9.3400,0.8700,9.3804,-0.0349,0.1276,0.2313,6.25,84.88,22.19,-1.4382,9.4440,0.8254,9.5885
1,5,1,3,1,16.437,16437,-1.4700,9.9900,1.3000,10.1809,-0.0556,0.0764,-0.2236,7.94,85.13,19.63,-1.4424,9.5160,0.8879,9.6656
1,5,1,3,1,16.561,16561,-1.1000,8.7100,1.0000,8.8360,-0.0065,0.0480,-0.1876,8.94,85.06,18.13,-1.3972,9.4098,0.9027,9.5557
1,5,1,3,1,16.681,16681,-0.8100,8.2700,0.6500,8.3350,-0.0196,-0.0262,-0.0884,9.69,85.19,17.38,-1.3199,9.2596,0.8694,9.3935
1,5,1,3,1,16.802,16802,-1.4700,8.9100,0.8800,9.0732,-0.0044,-0.0425,-0.2782,10.19,85.31,17.06,-1.3396,9.2135,0.8708,9.3510
1,5,1,3,1,16.923,16923,-1.8100,10.2800,0.5300,10.4516,-0.0240,-0.0065,0.0480,10.94,85.50,16.44,-1.4016,9.3541,0.8259,9.4945
1,5,1,3,1,17.044,17044,-0.9800,9.5300,0.8900,9.6215,0.0654,-0.0273,-0.1069,11.25,85.44,16.19,-1.3461,9.3772,0.8343,9.5100
1,5,1,3,1,17.167,17167,-1.9500,10.4900,0.6900,10.6920,0.0905,-0.0360,0.2138,11.50,84.88,16.31,-1.4257,9.5239,0.8153,9.6644
1,5,1,3,1,17.288,17288,-1.1800,11.7800,1.1200,11.8918,0.1069,-0.0196,0.6545,10.63,84.25,17.69,-1.3933,9.8212,0.8555,9.9563
1,5,1,3,1,17.454,17454,0.1600,9.2500,1.0400,9.3097,0.0665,-0.0709,-0.5989,10.81,83.56,18.06,-1.1886,9.7459,0.8798,9.8575
1,5,1,3,1,17.575,17575,-2.9000,7.3100,0.9800,7.9251,-0.0316,-0.0436,0.1025,14.50,83.38,14.88,-1.4141,9.4249,0.8930,9.5722
1,5,1,3,1,17.695,17695,-2.5000,9.8900,1.0100,10.2510,-0.0196,-0.0654,0.1734,13.31,83.56,16.50,-1.5572,9.4862,0.9084,9.6560
1,5,1,3,1,17.816,17816,-2.1000,9.8500,1.1500,10.1368,0.0109,-0.0633,-0.1625,13.50,83.69,16.75,-1.6287,9.5341,0.9402,9.7179
1,5,1,3,1,17.937,17937,-2.5300,7.7700,1.0200,8.2349,-0.0349,-0.0164,0.2945,15.06,83.69,15.75,-1.7475,9.3017,0.9508,9.5120
1,5,1,3,1,18.058,18058,-3.2100,9.4800,0.6400,10.0292,-0.0207,0.0436,-0.4211,14.69,83.94,16.19,-1.9402,9.3252,0.9098,9.5682
1,5,1,3,1,18.179,18179,-3.0000,10.4000,1.2600,10.8971,0.0240,0.1854,0.2411,14.88,83.63,15.19,-2.0799,9.4668,0.9560,9.7396
1,5,1,3,1,18.300,18300,-2.7800,10.5000,1.2200,10.9301,-0.0829,0.1527,0.1625,14.38,83.56,14.69,-2.1721,9.6030,0.9907,9.8953
1,5,1,3,1,18.467,18467,-2.1300,11.0400,0.9200,11.2812,-0.0458,0.0469,-0.0873,12.50,83.94,15.69,-2.1666,9.7923,0.9814,10.0770
1,5,1,3,1,18.588,18588,1.2500,11.3400,1.2000,11.4716,0.0305,-0.0087,0.0055,11.38,84.13,16.63,-1.7164,9.9963,1.0102,10.1927
1,5,1,3,1,18.708,18708,-4.0400,11.4000,1.4600,12.1825,0.0818,0.0120,0.3382,14.06,83.69,14.44,-2.0226,10.1812,1.0695,10.4351
1,5,1,3,1,18.829,18829,-3.2200,9.9800,1.4100,10.5810,0.1669,0.0502,-0.4974,13.69,82.81,14.75,-2.1803,10.1547,1.1144,10.4458
1,6,1,3,1,18.950,18950,-2.9700,8.8200,1.2300,9.3876,0.0960,-0.0251,0.1484,13.63,81.75,15.06,-2.2844,9.9788,1.1296,10.2991
1,6,1,3,1,19.071,19071,-1.7100,9.2100,1.4500,9.4790,-0.1200,-0.0295,0.3436,11.44,81.88,17.50,-2.2087,9.8775,1.1718,10.1891
1,6,1,3,1,19.192,19192,-1.2300,9.5200,1.3500,9.6936,-0.1374,-0.1298,0.2596,10.44,83.06,18.81,-2.0797,9.8304,1.1953,10.1189
1,6,1,3,1,19.314,19314,-1.2100,9.1400,0.8200,9.2561,0.0415,-0.1167,0.2913,8.75,83.56,21.38,-1.9651,9.7394,1.1458,10.0016
1,6,1,3,1,19.480,19480,-0.6900,9.2000,1.1200,9.2936,0.0916,-0.0371,0.0960,7.06,83.19,23.56,-1.7971,9.6684,1.1424,9.9001
1,6,1,3,1,19.601,19601,-1.2600,7.6400,1.3400,7.8583,0.0611,-0.0393,-0.1920,7.19,82.63,23.63,-1.7263,9.4011,1.1685,9.6294
1,6,1,3,1,19.722,19722,-1.3600,10.0700,1.3300,10.2481,-0.0316,-0.0600,0.3371,6.06,82.63,25.06,-1.6781,9.4892,1.1898,9.7096
1,6,1,3,1,19.843,19843,-1.7600,8.9300,1.2600,9.1886,-0.0251,-0.0829,-0.1222,5.31,82.81,26.38,-1.6889,9.4155,1.1990,9.6406
1,6,1,3,1,19.964,19964,-1.5000,10.2900,1.0700,10.4537,-0.0644,-0.0436,0.0720,4.44,83.25,27.56,-1.6640,9.5308,1.1820,9.7469
1,6,1,3,1,20.086,20086,-1.0200,9.8300,0.9300,9.9264,-0.0556,0.0044,0.1004,3.88,83.69,28.19,-1.5791,9.5702,1.1488,9.7674
1,6,1,3,1,20.211,20211,0.1200,8.3000,0.8500,8.3443,-0.0480,0.0164,0.1014,2.81,84.00,29.19,-1.3552,9.4028,1.1094,9.5645
1,6,1,3,1,20.334,20334,0.1900,9.6300,1.1300,9.6979,-0.0185,0.0491,-0.0055,3.44,84.31,28.31,-1.1516,9.4327,1.1121,9.5676
1,6,1,3,1,20.497,20497,-1.3200,10.2500,0.8800,10.3720,-0.0622,0.0425,0.0589,4.88,84.56,26.44,-1.1738,9.5404,1.0816,9.6730
1,6,1,3,1,20.617,20617,-0.2700,9.5400,0.8400,9.5807,-0.0513,-0.0098,0.1429,4.44,84.88,26.81,-1.0547,9.5404,1.0497,9.6557
1,6,1,3,1,20.739,20739,-0.3400,8.7800,0.7600,8.8194,-0.0360,-0.0316,0.2487,4.13,85.13,27.31,-0.9605,9.4402,1.0115,9.5427
1,6,1,3,1,20.865,20865,0.4800,9.0900,0.7100,9.1303,-0.0011,-0.0360,-0.2182,3.94,85.19,27.75,-0.7707,9.3940,0.9718,9.4756
1,6,1,3,1,20.986,20986,-0.2000,9.8600,1.0200,9.9146,0.0196,-0.0425,-0.1265,5.06,85.13,26.94,-0.6955,9.4554,0.9782,9.5313
1,6,1,3,1,21.107,21107,-0.8800,9.3200,0.7800,9.3939,0.0556,-0.0382,-0.2782,6.94,84.81,25.31,-0.7198,9.4376,0.9520,9.5128
1,6,1,3,1,21.228,21228,-1.5500,10.5300,1.0000,10.6903,0.0469,-0.0327,-0.2891,7.81,84.44,24.75,-0.8292,9.5815,0.9584,9.6650
1,6,1,3,1,21.350,21350,-1.4200,9.5700,1.3100,9.7631,0.0338,-0.0175,-0.2847,9.25,84.19,23.44,-0.9071,9.5800,1.0047,9.6752
1,6,1,3,1,21.513,21513,-1.8400,9.8400,1.2000,10.0822,-0.0022,0.0109,-0.2018,10.94,84.06,21.75,-1.0300,9.6143,1.0304,9.7240
1,6,1,3,1,21.638,21638,-1.8700,9.3400,1.0200,9.5798,0.0055,0.0098,-0.0469,12.13,84.00,20.50,-1.1407,9.5781,1.0291,9.7006
1,6,1,3,1,21.758,21758,-1.3900,9.2900,1.0000,9.4465,0.0098,-0.0218,-0.0316,12.06,84.00,20.69,-1.1735,9.5402,1.0252,9.6666
1,6,1,3,1,21.879,21879,-2.2700,9.3300,0.9500,9.6491,-0.0065,-0.0098,-0.0447,12.50,84.00,20.31,-1.3180,9.5125,1.0153,9.6569
1,6,1,3,1,22.000,22000,-2.3900,9.3800,0.9500,9.7262,-0.0229,0.0393,0.0425,12.50,84.06,20.25,-1.4593,9.4950,1.0067,9.6591
1,6,1,3,1,22.121,22121,-1.6600,9.7100,1.0500,9.9067,-0.0284,0.0502,0.0644,12.00,84.19,20.38,-1.4857,9.5233,1.0124,9.6916
1,6,1,3,1,22.243,22243,-2.1200,9.9400,1.0600,10.2187,-0.0502,0.0654,0.1669,11.69,84.31,20.25,-1.5693,9.5783,1.0187,9.7593
1,6,1,3,1,22.369,22369,-1.4800,10.7000,0.9700,10.8453,-0.0425,0.0262,0.2640,10.19,84.63,21.44,-1.5575,9.7261,1.0123,9.9019
1,6,1,3,1,22.532,22532,-1.6500,11.0300,1.1400,11.2108,0.0109,-0.0109,-0.0142,9.31,84.88,22.19,-1.5697,9.8979,1.0291,10.0743
1,6,1,3,1,22.652,22652,-1.9200,10.6100,1.0500,10.8333,0.0447,-0.0240,-0.2836,9.50,84.69,22.06,-1.6159,9.9917,1.0319,10.1740
1,6,1,3,1,22.773,22773,-1.7400,10.2500,1.0500,10.4495,0.0327,-0.0131,-0.1047,10.13,84.44,21.63,-1.6322,10.0258,1.0342,10.2103
1,7,1,3,1,22.895,22895,-1.6300,8.9200,1.1500,9.1403,-0.0142,0.0109,-0.2989,11.38,84.38,20.31,-1.6319,9.8801,1.0495,10.0688
1,7,1,3,1,23.018,23018,-1.8100,8.6300,0.9600,8.8699,-0.0469,-0.0142,-0.3251,13.13,84.63,18.56,-1.6554,9.7153,1.0377,9.9098
1,7,1,3,1,23.142,23142,-2.7700,9.1600,0.7800,9.6014,-0.0087,-0.0240,-0.1996,14.00,84.88,17.81,-1.8023,9.6421,1.0037,9.8604
1,7,1,3,1,23.263,23263,-2.0200,9.6800,0.7700,9.9185,0.0644,0.0044,-0.1353,13.25,84.69,18.56,-1.8310,9.6471,0.9729,9.8674
1,7,1,3,1,23.384,23384,-2.5400,8.7300,0.9900,9.1457,0.0654,0.0305,0.0851,13.75,84.13,18.06,-1.9244,9.5263,0.9752,9.7675
1,7,1,3,1,23.546,23546,-1.5300,9.1000,1.1500,9.2991,0.0415,0.0578,0.1974,11.69,83.63,19.81,-1.8724,9.4701,0.9982,9.7049
1,7,1,3,1,23.667,23667,-1.7300,9.1300,1.0900,9.3562,0.0327,0.0480,0.2618,10.06,83.38,21.13,-1.8537,9.4253,1.0103,9.6588
1,7,1,3,1,23.791,23791,-1.3900,8.9100,1.1000,9.0846,-0.0022,0.0545,0.2138,8.06,83.25,22.81,-1.7926,9.3574,1.0221,9.5822
1,7,1,3,1,23.912,23912,-1.5100,9.4700,1.1700,9.6607,-0.0349,0.0447,0.1811,6.63,83.25,23.88,-1.7553,9.3722,1.0416,9.5919
1,7,1,3,1,24.035,24035,-1.6000,8.3900,0.9800,8.5972,-0.0611,0.0404,-0.1473,6.06,83.56,24.06,-1.7349,9.2428,1.0335,9.4608
1,7,1,3,1,24.156,24156,-0.7600,8.9200,1.1700,9.0284,-0.0436,-0.0142,-0.0218,5.88,84.00,24.13,-1.6064,9.2003,1.0515,9.3985
1,7,1,3,1,24.277,24277,-0.5400,9.2400,1.0200,9.3118,0.0000,-0.0142,-0.1996,5.63,84.25,24.50,-1.4659,9.2055,1.0473,9.3801
1,7,1,3,1,24.398,24398,-0.9700,9.0400,0.9100,9.1373,-0.0469,-0.0502,-0.2105,7.19,84.44,23.06,-1.4005,9.1837,1.0292,9.3467
1,7,1,3,1,24.561,24561,-1.4800,9.1300,0.7800,9.2820,-0.0556,-0.1058,-0.4134,8.69,84.94,22.19,-1.4110,9.1766,0.9964,9.3378
1,7,1,3,1,24.685,24685,-1.0800,9.8900,0.7000,9.9734,-0.0425,-0.1265,-0.0349,9.44,85.38,22.13,-1.3674,9.2706,0.9573,9.4197
1,7,1,3,1,24.806,24806,-1.1800,9.8000,0.9400,9.9154,0.0305,-0.1189,-0.0251,10.63,85.50,21.88,-1.3427,9.3404,0.9551,9.4846
1,7,1,3,1,24.928,24928,-2.2500,9.2500,0.9100,9.5631,0.0305,-0.0938,-0.0502,11.69,85.38,21.69,-1.4623,9.3285,0.9491,9.4900
1,7,1,3,1,25.049,25049,-1.8700,9.7300,0.9600,9.9545,0.0262,-0.0654,-0.1113,10.94,85.31,22.88,-1.5160,9.3814,0.9506,9.5505
1,7,1,3,1,25.170,25170,-2.5100,9.5100,0.9100,9.8777,0.0316,-0.0033,-0.4167,12.44,85.19,21.69,-1.6470,9.3983,0.9452,9.5882
1,7,1,3,1,25.291,25291,-1.8800,9.4500,0.6800,9.6592,0.0153,0.0360,-0.1560,14.19,84.94,19.81,-1.6777,9.4051,0.9103,9.5969
1,7,1,3,1,25.413,25413,-2.4600,9.2600,1.0000,9.6332,-0.0185,-0.0098,-0.0949,15.69,84.94,18.19,-1.7808,9.3860,0.9221,9.5978
1,7,1,3,1,25.580,25580,-3.5900,9.5200,0.6100,10.1927,-0.0327,0.0251,-0.2487,16.88,85.00,17.00,-2.0192,9.4037,0.8810,9.6583
1,7,1,3,1,25.701,25701,-3.0300,10.2700,0.8300,10.7398,-0.0360,0.0393,0.1331,16.19,85.25,17.31,-2.1524,9.5178,0.8742,9.7973
1,7,1,3,1,25.822,25822,-2.0300,11.5500,0.9100,11.7623,0.0327,0.0404,0.4112,14.25,85.19,19.00,-2.1363,9.7856,0.8790,10.0546
1,7,1,3,1,25.943,25943,-3.2900,11.5300,1.0100,12.0327,0.0698,0.0371,-0.0524,13.88,84.75,19.25,-2.2883,10.0155,0.8962,10.3126
1,8,1,3,1,26.065,26065,-2.3000,9.7800,1.0500,10.1015,0.0567,0.0567,0.0349,14.06,84.19,18.81,-2.2898,9.9845,0.9165,10.2846
1,8,1,3,1,26.190,26190,-2.5600,9.6900,1.3700,10.1157,0.0076,0.0447,-0.0491,14.44,83.88,18.19,-2.3254,9.9457,0.9763,10.2604
1,8,1,3,1,26.311,26311,-2.6700,9.9200,1.1600,10.3383,0.0011,0.0022,0.1320,14.25,83.75,18.25,-2.3708,9.9423,1.0005,10.2699
1,8,1,3,1,26.433,26433,-2.1400,9.1700,0.8300,9.4529,0.0109,-0.0251,0.1844,13.56,83.81,19.06,-2.3404,9.8405,0.9780,10.1622
1,8,1,3,1,26.597,26597,-2.1200,9.1000,1.1900,9.4192,-0.0131,-0.0644,-0.0513,12.13,83.94,20.81,-2.3114,9.7429,1.0059,10.0637
1,8,1,3,1,26.718,26718,-1.9000,9.5900,1.0200,9.8295,-0.0142,-0.0764,0.5269,10.56,84.13,22.81,-2.2572,9.7228,1.0078,10.0321
1,8,1,3,1,26.844,26844,-0.7500,9.4600,1.0600,9.5487,0.0240,-0.1014,0.2553,8.00,84.19,26.06,-2.0586,9.6881,1.0147,9.9563
1,8,1,3,1,26.965,26965,-1.0400,8.9500,0.8500,9.0502,0.0349,-0.0960,0.1058,6.69,84.00,28.13,-1.9243,9.5909,0.9930,9.8323
1,8,1,3,1,27.086,27086,-1.0400,9.4300,1.0900,9.5496,0.0164,-0.0622,0.0305,5.81,83.94,29.56,-1.8078,9.5697,1.0058,9.7907
1,8,1,3,1,27.207,27207,-1.4300,10.0800,0.9400,10.2242,-0.0262,-0.0120,0.1538,5.50,83.94,30.06,-1.7580,9.6369,0.9971,9.8466
1,8,1,3,1,27.328,27328,-0.7800,9.0700,1.1100,9.1709,0.0251,0.0251,-0.0284,4.13,84.06,31.44,-1.6291,9.5622,1.0120,9.7527
1,8,1,3,1,27.449,27449,-0.1700,9.1200,0.6200,9.1426,0.0578,0.1102,0.1549,3.88,83.69,31.19,-1.4369,9.5039,0.9603,9.6598
1,8,1,3,1,27.612,27612,0.2700,7.6000,1.2500,7.7068,0.0316,0.1145,-0.5312,5.94,83.19,28.06,-1.2119,9.2531,0.9985,9.3854
1,8,1,3,1,27.737,27737,-0.1700,9.8600,1.3700,9.9562,-0.0098,0.0982,0.1647,8.88,82.94,24.38,-1.0746,9.3330,1.0474,9.4529
1,8,1,3,1,27.858,27858,-1.0800,9.1600,1.1700,9.2974,0.0349,0.0338,-0.3033,10.06,82.69,22.69,-1.0753,9.3102,1.0636,9.4323
1,8,1,3,1,27.979,27979,-1.9200,9.6500,1.2000,9.9121,0.0109,-0.0098,0.0196,11.75,82.44,21.00,-1.1867,9.3550,1.0816,9.4918
1,8,1,3,1,28.100,28100,-2.2200,9.3700,1.3400,9.7222,-0.0109,-0.0480,-0.0633,12.44,82.50,20.75,-1.3228,9.3570,1.1156,9.5156
1,8,1,3,1,28.221,28221,-2.3400,8.9000,1.1500,9.2741,-0.0600,-0.0545,-0.1854,12.88,82.81,20.63,-1.4569,9.2968,1.1202,9.4767
1,8,1,3,1,28.342,28342,-1.7600,9.2700,1.1800,9.5091,-0.1233,-0.0284,-0.0087,13.25,83.56,20.44,-1.4968,9.2932,1.1280,9.4804
1,8,1,3,1,28.464,28464,-3.2000,9.8500,0.8600,10.3924,-0.1254,0.0393,-0.0360,14.44,84.38,19.13,-1.7212,9.3666,1.0927,9.5859
1,8,1,3,1,28.627,28627,-2.4900,10.1500,0.9500,10.4941,-0.0185,0.2193,-0.0753,15.38,84.63,17.00,-1.8225,9.4698,1.0739,9.7032
1,8,1,3,1,28.751,28751,-2.9500,9.5600,0.8800,10.0434,0.0578,0.2225,-0.0360,16.19,83.94,14.69,-1.9711,9.4817,1.0484,9.7410
1,8,1,3,1,28.872,28872,-2.5600,9.3100,1.1800,9.7274,0.0894,0.1909,-0.1025,16.25,83.00,13.38,-2.0487,9.4591,1.0657,9.7369
1,8,1,3,1,28.992,28992,-2.8200,9.8400,1.6500,10.3682,0.0524,0.1516,0.0076,16.31,82.13,12.31,-2.1504,9.5093,1.1427,9.8161
1,8,1,3,1,29.113,29113,-2.7600,11.0200,1.6800,11.4839,-0.0065,-0.0185,-0.1004,15.88,81.88,12.19,-2.2307,9.7084,1.2135,10.0350
1,8,1,3,1,29.234,29234,-3.1700,11.1300,1.3100,11.6465,-0.0076,-0.1974,0.0415,15.81,82.19,13.13,-2.3545,9.8957,1.2262,10.2456
1,8,1,3,1,29.355,29355,-3.1600,10.2900,1.1900,10.8299,0.0425,-0.2356,0.0524,15.50,82.50,15.00,-2.4606,9.9477,1.2214,10.3200
1,9,1,3,1,29.477,29477,-3.3400,9.2700,1.2300,9.9298,-0.0065,-0.1811,-0.1451,16.25,82.69,15.63,-2.5765,9.8584,1.2226,10.2626
1,9,1,3,1,29.643,29643,-3.0600,8.8300,0.9200,9.3904,-0.0338,-0.1473,-0.0087,17.25,83.31,15.88,-2.6402,9.7228,1.1827,10.1441
1,9,1,3,1,29.765,29765,-3.0900,9.0300,0.9400,9.5902,0.0033,-0.0687,0.1560,17.13,83.75,16.75,-2.6995,9.6315,1.1507,10.0687
1,9,1,3,1,29.885,29885,-2.4500,9.1700,1.1900,9.5660,0.0164,0.0033,0.2203,16.63,83.75,17.50,-2.6666,9.5707,1.1559,10.0023
1,9,1,3,1,30.006,30006,-2.0800,8.3200,1.0600,8.6413,-0.1811,0.0469,0.6261,14.81,84.19,19.06,-2.5893,9.4059,1.1433,9.8226
1,9,1,3,1,30.127,30127,-1.6300,9.9000,0.5400,10.0478,-0.5465,0.0829,-0.2291,14.06,86.75,18.81,-2.4629,9.4710,1.0638,9.8437
1,9,1,3,1,30.248,30248,-4.0000,12.5600,0.4600,13.1896,0.0218,0.0273,0.8454,14.19,88.50,18.06,-2.6654,9.8781,0.9842,10.2786
1,9,1,3,1,30.370,30370,-2.3200,9.5700,-0.0700,9.8474,0.2280,0.0251,0.3905,10.13,87.25,22.38,-2.6199,9.8375,0.8453,10.2154
1,9,1,3,1,30.496,30496,-1.1800,9.1100,0.8000,9.2209,0.1244,0.0764,0.0993,8.13,86.06,24.13,-2.4302,9.7416,0.8393,10.0752
1,9,1,3,1,30.659,30659,-1.4400,9.1000,0.9300,9.2600,0.0785,0.0316,-0.0709,8.13,85.06,23.56,-2.2997,9.6571,0.8513,9.9635
1,9,1,3,1,30.779,30779,-1.0900,9.4200,1.0000,9.5354,0.0185,0.0491,0.2356,7.88,84.69,23.56,-2.1403,9.6258,0.8709,9.8993
1,9,1,3,1,30.900,30900,-0.2000,8.1700,0.7100,8.2032,0.0207,0.0044,-0.2236,7.56,84.63,23.63,-1.8846,9.4340,0.8497,9.6578
1,9,1,3,1,31.022,31022,-1.6300,8.3900,0.7800,8.5824,0.0458,-0.0240,0.1800,8.56,84.44,22.50,-1.8511,9.2964,0.8405,9.5161
1,9,1,3,1,31.147,31147,0.7100,10.4000,0.9600,10.4683,0.0240,-0.0709,0.4560,6.13,84.25,25.31,-1.5136,9.4418,0.8562,9.6006
1,9,1,3,1,31.269,31269,-2.4300,7.2900,1.1200,7.7655,-0.0480,-0.0949,-0.5247,9.94,84.25,22.25,-1.6343,9.1583,0.8910,9.3455
1,9,1,3,1,31.390,31390,-0.6700,8.9300,0.7700,8.9881,-0.0600,-0.0731,0.1178,9.75,84.75,22.88,-1.5073,9.1282,0.8751,9.2931
1,9,1,3,1,31.511,31511,-2.4500,9.7700,0.8000,10.1042,-0.0491,-0.0469,-0.2749,10.63,85.19,22.38,-1.6315,9.2128,0.8652,9.3960
1,9,1,3,1,31.673,31673,-0.9600,10.2000,0.8000,10.2763,0.1364,-0.0393,0.3087,9.50,84.88,23.81,-1.5430,9.3429,0.8566,9.5081
1,9,1,3,1,31.796,31796,-1.4100,8.3800,1.1000,8.5687,0.1418,-0.0513,-0.0011,9.56,83.81,24.31,-1.5255,9.2160,0.8887,9.3836
1,9,1,3,1,31.921,31921,-2.0700,8.9700,0.8800,9.2477,-0.0327,0.0000,-0.1451,10.31,83.63,23.75,-1.5972,9.1836,0.8875,9.3636
1,9,1,3,1,32.042,32042,-1.6300,9.4100,1.1800,9.6228,-0.0447,0.0251,0.1124,10.81,83.94,23.06,-1.6016,9.2134,0.9261,9.3973
1,9,1,3,1,32.163,32163,-1.3300,9.3200,0.9200,9.4593,0.0164,0.0273,0.0338,10.50,83.94,23.19,-1.5658,9.2275,0.9253,9.4050
1,9,1,3,1,32.284,32284,-2.6500,9.5200,0.6300,9.9020,0.0240,0.0273,0.0284,10.69,83.81,22.88,-1.7086,9.2660,0.8863,9.4638
1,9,1,3,1,32.405,32405,-0.3500,10.8000,1.7200,10.9417,0.0218,-0.0033,0.3556,6.56,83.75,26.81,-1.5296,9.4681,0.9962,9.6425
1,9,1,3,1,32.527,32527,-0.8800,10.3500,0.9800,10.4335,-0.0393,0.0458,-0.2094,6.81,83.69,26.44,-1.4440,9.5844,0.9941,9.7434
1,9,1,3,1,32.690,32690,-0.9900,9.6000,1.1500,9.7192,-0.0993,-0.0196,0.1145,7.25,84.25,25.69,-1.3842,9.5864,1.0146,9.7388
1,9,1,3,1,32.814,32814,-1.1000,9.9600,1.1500,10.0863,-0.0796,-0.0535,0.0447,7.38,85.00,25.88,-1.3467,9.6356,1.0325,9.7839
1,9,1,3,1,32.935,32935,-1.9000,8.6100,0.9500,8.8682,-0.1102,0.0164,0.2302,7.81,85.44,25.56,-1.4196,9.5005,1.0216,9.6601
1,9,1,3,1,33.055,33055,-1.2800,10.4100,0.4800,10.4994,-0.1058,-0.0011,-0.0076,7.44,86.38,25.81,-1.4012,9.6203,0.9502,9.7682
1,9,1,3,1,33.176,33176,-0.4400,10.7700,0.5900,10.7951,0.0360,0.0545,0.0644,7.81,86.50,25.31,-1.2746,9.7718,0.9028,9.8959
1,9,1,3,1,33.297,33297,-2.4900,11.5900,0.8600,11.8856,0.1004,0.0884,-0.2094,9.25,85.81,23.63,-1.4347,10.0114,0.8971,10.1534
1,9,1,3,1,33.418,33418,-2.5400,11.5700,1.2000,11.9062,0.0654,0.1440,0.1647,9.13,85.13,23.06,-1.5804,10.2168,0.9370,10.3807
1,10,1,3,1,33.556,33556,-1.3700,9.6000,0.9600,9.7447,-0.0098,0.0338,-0.1156,9.13,84.81,22.31,-1.5527,10.1355,0.9401,10.2968
1,10,1,3,1,33.718,33718,-1.5300,7.8400,0.8500,8.0330,0.0436,-0.0698,-0.1942,11.31,84.69,20.50,-1.5497,9.8330,0.9282,9.9976
1,10,1,3,1,33.839,33839,-1.8900,8.8900,0.7500,9.1196,0.0000,-0.0818,0.2062,11.94,84.63,20.44,-1.5945,9.7088,0.9047,9.8803
1,10,1,3,1,33.960,33960,-0.7200,9.3100,0.9900,9.3901,-0.0022,-0.0938,0.2105,11.31,84.88,21.63,-1.4793,9.6562,0.9159,9.8117
1,10,1,3,1,34.081,34081,-2.7000,11.2300,0.8100,11.5784,0.0185,-0.1134,-0.0447,11.19,85.00,22.56,-1.6401,9.8636,0.9020,10.0396
1,10,1,3,1,34.207,34207,-2.7700,11.0300,0.9200,11.4097,0.0316,-0.0251,0.0894,11.56,84.81,22.69,-1.7890,10.0173,0.9044,10.2159
1,10,1,3,1,34.329,34329,-2.7900,9.0400,0.9700,9.5103,0.0273,0.0469,0.2203,12.06,84.50,22.13,-1.9209,9.8885,0.9130,10.1147
1,10,1,3,1,34.449,34449,-2.0400,9.9900,0.9900,10.2441,0.0262,0.0611,0.2967,11.31,84.19,22.63,-1.9366,9.9019,0.9232,10.1316
1,10,1,3,1,34.570,34570,-1.4300,9.3400,0.9700,9.4985,0.0218,0.0502,0.1254,10.13,84.00,23.44,-1.8699,9.8278,0.9293,10.0472
1,10,1,3,1,34.733,34733,-1.4200,9.6100,1.1200,9.7787,0.0480,0.0196,-0.1407,9.75,83.63,23.56,-1.8106,9.7991,0.9545,10.0106
1,10,1,3,1,34.853,34853,-1.7700,8.3000,1.1500,8.5642,-0.0120,0.0055,-0.0131,10.75,83.44,22.56,-1.8052,9.6016,0.9802,9.8189
1,10,1,3,1,34.980,34980,-1.4200,8.8600,0.7700,9.0060,-0.0927,0.0065,0.1680,9.88,83.88,23.31,-1.7545,9.5039,0.9525,9.7113
1,10,1,3,1,35.101,35101,-1.6800,9.8600,1.1300,10.0657,-0.0840,0.0502,0.3011,8.38,84.56,24.63,-1.7447,9.5508,0.9759,9.7578
1,10,1,3,1,35.222,35222,-1.3200,7.9000,0.6000,8.0320,-0.0458,0.0349,-0.1309,8.13,84.94,24.50,-1.6887,9.3333,0.9264,9.5299
1,10,1,3,1,35.343,35343,-0.7000,10.3600,0.8500,10.4184,-0.0098,0.0415,0.3131,7.00,85.25,25.31,-1.5584,9.4686,0.9163,9.6396
1,10,1,3,1,35.464,35464,-0.9800,7.9100,0.8200,8.0125,0.0425,0.0753,-0.4811,8.63,85.00,23.31,-1.4822,9.2632,0.9036,9.4244
1,10,1,3,1,35.585,35585,-1.1200,8.6700,0.5400,8.7587,0.0425,0.0360,-0.1767,10.50,84.50,21.06,-1.4345,9.1850,0.8557,9.3357
1,10,1,3,1,35.747,35747,-2.7500,9.2200,1.1100,9.6852,0.0164,-0.0327,-0.3196,11.81,84.25,19.88,-1.6078,9.1896,0.8892,9.3715
1,10,1,3,1,35.873,35873,-1.5100,8.1000,0.9300,8.2919,-0.0305,-0.0273,-0.1134,12.56,84.38,19.25,-1.5949,9.0460,0.8946,9.2290
1,10,1,3,1,35.994,35994,-3.2900,10.3300,0.9400,10.8819,-0.0709,-0.0044,0.0065,12.19,84.94,19.63,-1.8183,9.2152,0.9006,9.4360
1,10,1,3,1,36.114,36114,-2.5800,10.6800,0.7700,11.0142,-0.0142,0.0033,0.0327,11.94,85.25,19.81,-1.9187,9.4083,0.8834,9.6425
1,10,1,3,1,36.235,36235,-0.8100,11.3900,0.9900,11.4616,0.1374,0.0000,0.5160,10.50,84.88,21.31,-1.7726,9.6694,0.8974,9.8714
1,10,1,3,1,36.356,36356,-2.2100,11.9100,1.2200,12.1746,0.1462,0.0535,0.6501,9.50,83.56,22.56,-1.8302,9.9647,0.9399,10.1748
1,10,1,3,1,36.477,36477,-0.8300,9.1100,1.1000,9.2136,-0.0360,0.0153,-0.0818,9.19,83.00,22.75,-1.6984,9.8520,0.9610,10.0434
1,10,1,3,1,36.599,36599,-1.4200,5.8900,1.1300,6.1632,-0.0753,-0.0087,-0.2716,11.06,83.19,20.75,-1.6617,9.3299,0.9833,9.5276
1,10,1,3,1,36.766,36766,-1.5100,10.2700,0.7000,10.4040,-0.0862,-0.0109,0.1004,11.19,84.13,20.56,-1.6417,9.4538,0.9460,9.6418
1,10,1,3,1,36.887,36887,-1.5500,9.2100,0.7100,9.3665,-0.0153,-0.0218,-0.1789,12.13,84.44,19.69,-1.6296,9.4217,0.9149,9.6053
1,10,1,3,1,37.007,37007,-2.4400,9.4600,1.0900,9.8302,-0.0033,-0.0065,0.2182,13.00,84.56,18.88,-1.7364,9.4267,0.9379,9.6311
1,10,1,3,1,37.128,37128,-2.2500,9.4800,0.9800,9.7925,-0.0033,-0.0175,-0.1080,12.75,84.56,19.19,-1.8041,9.4338,0.9435,9.6509
1,10,1,3,1,37.249,37249,-1.5800,8.8500,0.7600,9.0220,-0.0665,-0.0011,0.1756,12.50,84.81,19.44,-1.7746,9.3568,0.9193,9.5679
1,10,1,3,1,37.370,37370,-1.0500,9.4300,0.7400,9.5171,-0.0884,-0.0371,0.2356,11.81,85.44,20.19,-1.6791,9.3665,0.8957,9.5578
