participant,rep,equipment_code,exercise_code,quality_code,timestamp,timestamp_ms,accelX,accelY,accelZ,accelMag,gyroX,gyroY,gyroZ,roll,pitch,yaw,filteredX,filteredY,filteredZ,filteredMag
3,1,1,3,1,00.000,0,-1.1900,9.7700,0.5000,9.8549,-0.0109,-0.0262,0.1440,8.00,87.38,20.25,-1.3469,9.7264,0.4473,9.8294
3,1,1,3,1,00.123,123,-1.2100,9.8600,0.4500,9.9442,0.0000,-0.0382,-0.2454,8.00,87.44,20.44,-1.3289,9.7440,0.4477,9.8444
3,1,1,3,1,00.244,244,-1.2100,9.6300,0.4000,9.7140,-0.0076,-0.0251,0.0742,8.19,87.44,20.50,-1.3132,9.7290,0.4414,9.8272
3,1,1,3,1,00.406,406,-1.8300,10.0500,0.4600,10.2256,0.0011,-0.0164,-0.1473,8.56,87.50,20.38,-1.3813,9.7713,0.4438,9.8784
3,1,1,3,1,00.533,533,-1.3400,9.6900,0.4100,9.7908,0.0360,0.0011,-0.1527,8.38,87.38,20.56,-1.3759,9.7606,0.4394,9.8669
3,1,1,3,1,00.655,655,-1.5400,9.2100,0.5400,9.3535,-0.0065,0.0033,0.2563,8.81,87.25,20.19,-1.3975,9.6880,0.4526,9.7988
3,1,1,3,1,00.776,776,-1.2100,8.1100,0.1600,8.2013,-0.0469,0.0087,-0.2313,8.25,87.38,20.69,-1.3728,9.4801,0.4141,9.5879
3,1,1,3,1,00.897,897,-1.1100,9.3800,1.0100,9.4993,-0.0120,0.0535,0.0469,8.88,87.63,19.75,-1.3381,9.4669,0.4926,9.5737
3,1,1,3,1,01.019,1019,-1.8100,7.3200,-0.1000,7.5411,0.0535,-0.0044,0.5912,9.06,87.31,19.50,-1.4003,9.1840,0.4145,9.2994
3,1,1,3,1,01.140,1140,-0.3000,10.6100,0.6700,10.6354,0.0524,-0.1516,-0.2422,6.56,87.00,22.63,-1.2553,9.3719,0.4482,9.4662
3,1,1,3,1,01.264,1264,-0.9900,9.5600,0.5300,9.6257,0.0742,-0.1025,-0.0284,8.13,86.50,22.06,-1.2204,9.3967,0.4590,9.4867
3,1,1,3,1,01.428,1428,-0.8200,9.4200,0.7400,9.4845,0.0720,-0.0284,-0.3000,8.94,85.94,22.06,-1.1676,9.3998,0.4960,9.4850
3,1,1,3,1,01.548,1548,-1.7100,8.9000,0.6200,9.0840,-0.0578,0.0709,-0.2193,11.50,85.81,19.69,-1.2391,9.3339,0.5123,9.4297
3,1,1,3,1,01.669,1669,-1.2200,8.7600,0.8000,8.8807,-0.1276,0.0993,-0.3752,11.81,86.50,18.75,-1.2366,9.2583,0.5502,9.3567
3,1,1,3,1,01.790,1790,-1.1400,10.4600,0.4600,10.5320,-0.0796,0.0000,-0.2760,13.25,87.31,17.06,-1.2238,9.4166,0.5383,9.5111
3,1,1,3,1,01.911,1911,-3.1900,9.4100,0.9500,9.9813,0.0371,0.0611,-0.0807,17.31,87.44,13.06,-1.4829,9.4158,0.5926,9.5502
3,1,1,3,1,02.037,2037,-2.7100,10.6600,0.1900,11.0007,0.0665,-0.0360,-0.6272,19.31,87.19,11.31,-1.6446,9.5797,0.5395,9.7348
3,1,1,3,1,02.158,2158,-4.2700,10.1400,-0.3200,11.0070,-0.0076,-0.0131,0.5029,20.88,86.88,10.38,-1.9906,9.6536,0.4263,9.8659
3,1,1,3,1,02.280,2280,-4.0500,11.1500,0.1800,11.8641,-0.0327,-0.0120,-0.1942,20.63,87.06,11.19,-2.2620,9.8507,0.3938,10.1148
3,1,1,3,1,02.442,2442,-3.0800,11.0200,0.2500,11.4451,-0.0305,0.0622,0.2934,17.69,87.19,14.19,-2.3698,10.0048,0.3749,10.2885
3,1,1,3,1,02.563,2563,-2.7500,10.7600,0.6800,11.1267,-0.0109,-0.0316,0.0720,16.25,87.38,15.56,-2.4199,10.1043,0.4151,10.3983
3,1,1,3,1,02.684,2684,-4.0200,10.8700,0.7400,11.6131,0.1014,-0.1145,-1.4039,16.50,86.81,15.50,-2.6307,10.2052,0.4579,10.5488
3,1,1,3,1,02.806,2806,-3.7700,8.9000,0.9000,9.7074,0.0305,-0.0851,0.2760,17.13,86.56,15.69,-2.7809,10.0332,0.5162,10.4243
3,1,1,3,1,02.932,2932,-1.7400,7.6900,0.5400,7.9029,-0.0273,-0.0785,1.1552,14.13,87.06,19.25,-2.6437,9.7245,0.5193,10.0908
3,1,1,3,1,03.053,3053,-0.0700,9.0400,-0.2500,9.0437,0.1014,-0.0316,0.4123,11.88,87.19,21.69,-2.3045,9.6343,0.4179,9.9149
3,1,1,3,1,03.174,3174,0.7000,7.6600,2.1800,7.9949,-0.0796,0.0622,0.7516,10.31,87.63,23.13,-1.9086,9.3741,0.6501,9.5885
3,1,1,3,1,03.294,3294,-0.7400,6.0400,1.1000,6.1838,-0.0545,-0.1004,0.2705,10.63,88.13,22.75,-1.7546,8.9348,0.7094,9.1330
3,2,1,3,1,03.456,3456,0.6500,10.1900,0.5000,10.2229,0.0633,-0.0055,0.9272,6.69,88.06,26.88,-1.4378,9.1002,0.6818,9.2382
3,2,1,3,1,03.577,3577,-5.4800,10.7800,0.9900,12.1334,0.0469,0.0153,-0.4483,9.13,87.56,24.50,-1.9704,9.3215,0.7224,9.5549
3,2,1,3,1,03.699,3699,-0.3100,9.8800,0.4800,9.8965,0.0316,0.0065,-0.3687,6.88,87.19,26.19,-1.7516,9.3951,0.6905,9.5819
3,2,1,3,1,03.825,3825,-1.1700,9.3300,0.5400,9.4186,-0.0011,0.0207,-0.0382,6.44,87.00,26.38,-1.6750,9.3865,0.6706,9.5584
3,2,1,3,1,03.946,3946,-1.1600,9.6700,0.3200,9.7446,-0.0447,0.0305,0.2214,7.13,87.13,25.38,-1.6071,9.4239,0.6244,9.5803
3,2,1,3,1,04.067,4067,-1.2800,9.7500,0.4800,9.8454,-0.0371,0.0731,0.1811,6.00,87.44,25.81,-1.5640,9.4669,0.6054,9.6143
3,2,1,3,1,04.188,4188,-2.0400,11.9100,1.0000,12.1248,0.0796,-0.1156,0.0807,6.75,87.44,24.94,-1.6267,9.7888,0.6574,9.9448
3,2,1,3,1,04.310,4310,-1.4200,6.7900,-0.9600,7.0030,0.0055,-0.1298,-0.5247,5.44,86.88,27.44,-1.5995,9.3936,0.4443,9.5392
3,2,1,3,1,04.477,4477,2.2800,7.8400,0.4100,8.1751,0.0382,0.0840,0.8039,3.19,87.06,29.19,-1.0883,9.1889,0.4398,9.2636
3,2,1,3,1,04.598,4598,-0.7300,9.5600,1.7400,9.7444,0.0513,0.1407,-0.6000,5.75,86.94,25.63,-1.0411,9.2378,0.6111,9.3164
3,2,1,3,1,04.719,4719,0.3000,10.9900,0.2800,10.9977,0.0153,-0.0687,-0.6730,6.13,86.50,25.19,-0.8643,9.4687,0.5675,9.5250
3,2,1,3,1,04.840,4840,5.0500,10.3900,1.0400,11.5990,0.2585,-0.2825,0.7003,6.75,86.19,25.56,-0.0850,9.5901,0.6297,9.6111
3,2,1,3,1,04.961,4961,-5.2500,6.3500,-0.9600,8.2950,0.0000,-0.6141,0.2411,9.25,84.69,27.44,-0.7656,9.1631,0.4202,9.2047
3,2,1,3,1,05.083,5083,-2.1000,9.1700,-0.1200,9.4082,-0.4440,0.0665,-0.1789,11.13,86.69,26.69,-0.9414,9.1640,0.3491,9.2189
3,2,1,3,1,05.204,5204,-1.1900,10.7600,0.8900,10.8621,0.1200,-0.0513,-0.4069,12.00,87.88,25.25,-0.9742,9.3744,0.4203,9.4342
3,2,1,3,1,05.330,5330,-2.6400,8.3000,0.0500,8.7099,-0.0916,0.2345,-0.4723,10.88,87.25,26.31,-1.1937,9.2328,0.3715,9.3170
3,2,1,3,1,05.492,5492,-1.8700,10.0100,0.5900,10.2003,0.0262,0.4451,-0.2400,14.06,87.44,19.06,-1.2828,9.3352,0.4003,9.4314
3,2,1,3,1,05.613,5613,-2.3200,9.5900,0.5800,9.8837,-0.0131,0.3927,-0.7887,17.13,86.63,13.88,-1.4195,9.3688,0.4240,9.4852
3,2,1,3,1,05.734,5734,-3.9400,11.4700,0.4500,12.1362,0.0076,0.2160,-0.2291,20.81,86.06,8.50,-1.7516,9.6457,0.4274,9.8127
3,2,1,3,1,05.872,5872,-3.5000,11.1700,0.7800,11.7315,0.0545,0.0273,0.0393,20.44,85.56,8.50,-1.9820,9.8465,0.4739,10.0552
3,2,1,3,1,05.993,5993,-2.6600,8.1400,0.8000,8.6009,0.0578,-0.1353,-0.5432,21.19,85.38,8.88,-2.0714,9.6217,0.5169,9.8557
3,2,1,3,1,06.113,6113,-3.1800,6.3900,0.4400,7.1511,0.0120,-0.1593,0.2116,23.06,85.38,8.63,-2.2175,9.1958,0.5067,9.4729
3,2,1,3,1,06.234,6234,-4.1300,13.1700,0.9800,13.8371,-0.0851,-0.0927,0.6316,20.88,86.06,12.13,-2.4695,9.7195,0.5691,10.0444
3,2,1,3,1,06.355,6355,-3.0100,14.8000,0.7400,15.1211,-0.2553,-0.0567,0.1734,16.81,87.63,16.44,-2.5407,10.3890,0.5916,10.7115
3,2,1,3,1,06.517,6517,-1.8300,10.3300,-0.2800,10.4946,-0.0513,-0.0840,0.1091,17.06,89.00,16.44,-2.4471,10.3812,0.4768,10.6764
3,2,1,3,1,06.641,6641,-4.7900,10.0400,0.2400,11.1267,0.0687,-0.0305,-0.3523,16.94,89.00,17.19,-2.7558,10.3362,0.4456,10.7066
3,2,1,3,1,06.762,6762,-1.4800,7.2900,-0.2900,7.4444,0.1702,0.0796,0.6807,14.81,88.25,19.19,-2.5877,9.9348,0.3486,10.2722
3,2,1,3,1,06.885,6885,-3.7500,6.4100,0.3900,7.4366,0.0295,0.1276,0.3840,15.31,87.31,17.81,-2.7408,9.4703,0.3541,9.8653
3,2,1,3,1,07.006,7006,-1.5700,8.9500,0.2900,9.0913,-0.0218,0.0993,-0.2105,14.56,87.13,17.63,-2.5866,9.4018,0.3456,9.7572
3,2,1,3,1,07.128,7128,-1.8700,10.1900,0.2500,10.3632,-0.0218,-0.0360,-0.0884,12.44,87.25,18.75,-2.4921,9.5056,0.3330,9.8325
3,2,1,3,1,07.248,7248,-2.7200,4.2800,0.2500,5.0773,-0.1222,-0.0982,-0.1778,11.06,87.63,20.50,-2.5222,8.8170,0.3221,9.1763
3,3,1,3,1,07.369,7369,2.1700,10.7500,0.4800,10.9773,-0.0142,-0.0109,0.2902,6.13,88.31,25.13,-1.9039,9.0718,0.3429,9.2757
3,3,1,3,1,07.531,7531,0.1800,9.7900,-0.2900,9.7959,0.0349,-0.0545,0.2302,7.63,88.19,23.63,-1.6293,9.1664,0.2595,9.3137
3,3,1,3,1,07.668,7668,-1.5900,9.8100,0.2900,9.9422,0.0796,-0.0327,-0.0502,9.06,87.81,22.38,-1.6241,9.2512,0.2635,9.3964
3,3,1,3,1,07.789,7789,-1.6900,9.4200,0.6900,9.5952,0.0665,-0.0164,-0.3807,10.81,87.25,20.81,-1.6328,9.2735,0.3197,9.4215
3,3,1,3,1,07.910,7910,-1.8700,9.1600,0.7300,9.3774,0.0240,-0.0153,0.1189,11.25,87.00,20.44,-1.6640,9.2585,0.3738,9.4143
3,3,1,3,1,08.031,8031,-1.0200,9.4700,0.7800,9.5567,-0.0175,0.0295,0.4200,8.69,87.13,22.75,-1.5792,9.2864,0.4273,9.4294
3,3,1,3,1,08.152,8152,-2.3800,8.9600,0.5200,9.2853,-0.0284,0.0011,-0.0502,7.56,87.25,23.81,-1.6847,9.2434,0.4395,9.4059
3,3,1,3,1,08.274,8274,0.6700,10.5800,0.8000,10.6313,-0.0022,0.0295,0.4363,5.69,87.38,25.25,-1.3744,9.4195,0.4870,9.5317
3,3,1,3,1,08.400,8400,-1.5600,12.6300,0.3600,12.7311,0.0185,0.0044,0.2574,4.44,87.38,26.50,-1.3989,9.8426,0.4703,9.9526
3,3,1,3,1,08.562,8562,-0.6900,6.4600,0.4200,6.5103,-0.0109,-0.0033,-0.0393,3.69,87.06,27.25,-1.3055,9.3968,0.4637,9.4984
3,3,1,3,1,08.683,8683,0.1600,5.7400,0.6600,5.7800,-0.0654,-0.0404,-0.3447,3.75,87.31,27.19,-1.1123,8.9149,0.4895,8.9974
3,3,1,3,1,08.804,8804,0.7900,11.2800,0.9800,11.3500,-0.0404,-0.0436,-0.1429,5.31,87.88,25.94,-0.8617,9.2266,0.5542,9.2833
3,3,1,3,1,08.926,8926,-1.2300,9.3600,0.0500,9.4406,0.0033,-0.0949,-0.9218,8.81,88.00,22.88,-0.9102,9.2442,0.4877,9.3017
3,3,1,3,1,09.052,9052,-0.5400,10.1400,0.2900,10.1585,0.1069,-0.0196,0.3120,11.25,87.94,20.94,-0.8614,9.3622,0.4617,9.4131
3,3,1,3,1,09.174,9174,-2.2400,8.8800,0.3300,9.1641,0.0654,-0.1287,0.5760,12.44,87.13,20.69,-1.0431,9.2987,0.4443,9.3675
3,3,1,3,1,09.294,9294,-2.0700,9.2200,0.3900,9.4576,0.0185,0.0524,-0.5040,13.50,87.00,19.94,-1.1784,9.2883,0.4372,9.3730
3,3,1,3,1,09.415,9415,-3.4000,11.1500,0.5300,11.6689,0.0044,0.0676,0.1789,15.69,86.81,17.56,-1.4712,9.5336,0.4494,9.6569
3,3,1,3,1,09.577,9577,-2.3400,9.7800,0.9500,10.1008,0.0120,0.0491,0.1909,15.31,86.31,17.69,-1.5856,9.5661,0.5154,9.7103
3,3,1,3,1,09.698,9698,-0.9400,7.5800,0.1600,7.6397,-0.0447,0.0295,0.0884,14.50,86.19,18.25,-1.5006,9.3044,0.4685,9.4362
3,3,1,3,1,09.820,9820,-2.8400,9.3800,0.8000,9.8331,-0.0556,0.0589,0.5640,17.19,86.44,15.50,-1.6771,9.3143,0.5122,9.4780
3,3,1,3,1,09.945,9945,-1.0800,12.9200,0.4400,12.9725,-0.0851,-0.0513,-0.3829,14.44,86.94,18.25,-1.5984,9.7895,0.5027,9.9318
3,3,1,3,1,10.067,10067,-2.2100,8.6700,0.5100,8.9618,-0.0316,-0.1287,-0.3022,17.88,87.56,15.63,-1.6790,9.6420,0.5037,9.8000
3,3,1,3,1,10.187,10187,-3.0700,6.9100,0.4400,7.5741,-0.0011,-0.0993,-0.2356,19.94,87.81,14.75,-1.8623,9.2820,0.4953,9.4799
3,3,1,3,1,10.308,10308,-3.3500,10.0500,0.4600,10.6036,-0.0142,-0.0175,-0.2956,21.31,88.06,14.00,-2.0583,9.3832,0.4906,9.6188
3,3,1,3,1,10.429,10429,-4.3600,12.4500,-0.0400,13.1914,-0.0327,-0.0360,-0.1538,22.69,88.44,13.00,-2.3616,9.7873,0.4207,10.0770
3,3,1,3,1,10.591,10591,-4.4700,8.3900,0.2100,9.5088,0.0545,0.0491,-0.3818,25.06,88.31,11.13,-2.6395,9.6032,0.3929,9.9670
3,3,1,3,1,10.718,10718,-4.2500,9.1600,0.3100,10.1027,0.0938,0.1309,0.2334,24.69,87.56,11.25,-2.8517,9.5448,0.3820,9.9690
3,3,1,3,1,10.839,10839,-4.1900,9.7600,0.6200,10.6395,0.0938,0.1091,-0.0709,24.38,86.50,11.19,-3.0280,9.5731,0.4134,10.0491
3,3,1,3,1,10.960,10960,-3.9000,10.6300,0.7100,11.3451,0.0371,0.0764,0.1822,23.38,85.81,11.94,-3.1429,9.7124,0.4525,10.2183
3,3,1,3,1,11.081,11081,-4.2900,11.3500,0.4800,12.1432,-0.0425,0.0327,0.2771,22.06,85.63,13.06,-3.2941,9.9282,0.4561,10.4703
3,3,1,3,1,11.203,11203,-3.8600,10.9800,0.6900,11.6592,-0.0851,0.0840,-0.0425,21.00,86.00,13.63,-3.3687,10.0668,0.4869,10.6266
3,3,1,3,1,11.324,11324,-3.0800,10.0800,0.7800,10.5689,-0.0196,0.1047,0.3153,20.13,86.19,13.75,-3.3306,10.0685,0.5255,10.6181
3,3,1,3,1,11.450,11450,-3.3000,9.0300,0.5400,9.6293,0.0753,0.0862,0.2913,19.44,85.75,13.94,-3.3266,9.9317,0.5274,10.4873
3,3,1,3,1,11.612,11612,-2.5200,8.3800,1.1300,8.8234,0.0633,0.0164,0.1113,16.06,84.94,17.06,-3.2203,9.7272,0.6068,10.2644
3,3,1,3,1,11.733,11733,-3.7900,8.6200,0.6700,9.4402,-0.0502,-0.0284,0.0971,15.75,85.00,17.44,-3.2954,9.5813,0.6152,10.1508
3,3,1,3,1,11.854,11854,-0.5300,8.1800,0.9800,8.2555,-0.0425,-0.0240,0.5520,13.19,85.50,20.06,-2.9310,9.3967,0.6632,9.8655
3,3,1,3,1,11.991,11991,-1.4000,8.8600,0.8800,9.0130,-0.0175,-0.0982,0.2683,11.50,85.81,22.19,-2.7292,9.3259,0.6918,9.7417
3,3,1,3,1,12.113,12113,-1.9600,8.9300,0.5400,9.1585,-0.0109,-0.0785,0.0873,9.69,86.06,23.88,-2.6279,9.2738,0.6718,9.6623
3,3,1,3,1,12.234,12234,-0.5200,8.9300,0.6200,8.9666,-0.0480,0.0120,0.4658,7.38,86.31,25.75,-2.3501,9.2285,0.6650,9.5462
3,3,1,3,1,12.355,12355,-0.2500,8.9200,0.6300,8.9457,-0.0818,0.0447,0.2563,5.69,86.69,26.81,-2.0734,9.1878,0.6604,9.4420
3,4,1,3,1,12.476,12476,0.5100,10.4200,0.9500,10.4756,-0.0884,0.0327,0.1865,4.13,87.38,27.81,-1.7329,9.3502,0.6985,9.5350
3,4,1,3,1,12.638,12638,-0.5100,10.1800,0.4200,10.2014,0.0338,-0.0164,0.3534,4.50,87.50,26.50,-1.5718,9.4595,0.6618,9.6120
3,4,1,3,1,12.764,12764,0.1800,9.6100,0.5200,9.6257,0.0611,-0.0164,0.1789,2.63,87.06,28.25,-1.3409,9.4794,0.6431,9.5953
3,4,1,3,1,12.886,12886,0.1100,9.6400,0.6600,9.6632,0.0284,0.0142,-0.0273,2.06,86.75,28.56,-1.1497,9.5005,0.6454,9.5916
3,4,1,3,1,13.006,13006,-0.1900,9.8200,0.6700,9.8447,-0.0316,0.0349,-0.2018,2.31,86.69,27.88,-1.0233,9.5426,0.6486,9.6192
3,4,1,3,1,13.127,13127,-0.0200,9.8200,0.6100,9.8389,-0.0458,0.0654,-0.1418,2.69,86.88,26.88,-0.8911,9.5792,0.6435,9.6420
3,4,1,3,1,13.249,13249,0.0500,9.4000,0.4000,9.4086,-0.0109,0.0502,-0.2236,3.06,87.00,25.88,-0.7671,9.5556,0.6114,9.6058
3,4,1,3,1,13.369,13369,-0.6600,8.2300,0.5000,8.2715,0.0273,0.0175,-0.3785,4.94,86.88,23.81,-0.7530,9.3809,0.5967,9.4300
3,4,1,3,1,13.491,13491,-0.9100,9.1500,0.0700,9.1954,0.0251,-0.0153,-0.0894,6.63,86.63,22.13,-0.7736,9.3505,0.5273,9.3972
3,4,1,3,1,13.658,13658,-1.9600,9.6000,0.4100,9.8066,-0.0229,-0.0196,-0.2618,9.13,86.69,19.88,-0.9300,9.3833,0.5119,9.4432
3,4,1,3,1,13.779,13779,-1.8700,9.7900,0.3900,9.9746,-0.0098,-0.0393,0.0022,10.31,86.75,18.81,-1.0539,9.4369,0.4958,9.5085
3,4,1,3,1,13.900,13900,-3.0600,10.3700,0.7100,10.8353,0.0753,-0.0905,-0.2749,11.44,86.50,18.31,-1.3182,9.5599,0.5240,9.6646
3,4,1,3,1,14.021,14021,-3.0700,10.4400,0.7400,10.9072,0.0087,-0.0436,-0.3480,12.50,86.13,17.75,-1.5491,9.6759,0.5525,9.8146
3,4,1,3,1,14.143,14143,-2.2000,10.8400,0.7300,11.0851,-0.0098,0.0185,0.0578,13.06,86.31,17.31,-1.6348,9.8293,0.5759,9.9809
3,4,1,3,1,14.269,14269,-1.3900,8.6200,0.4100,8.7410,0.0720,-0.0120,-0.2814,14.31,86.06,16.00,-1.6026,9.6699,0.5540,9.8175
3,4,1,3,1,14.391,14391,-2.5500,8.5800,0.7400,8.9815,0.0404,-0.0065,-0.5520,17.19,85.75,13.25,-1.7274,9.5263,0.5785,9.6989
3,4,1,3,1,14.511,14511,-3.2200,9.5900,0.9400,10.1597,0.0687,0.0295,-0.1745,19.13,85.38,11.31,-1.9241,9.5347,0.6262,9.7470
3,4,1,3,1,14.689,14689,-3.4200,9.8400,0.7500,10.4444,0.0807,-0.0076,-0.2738,19.81,84.81,12.06,-2.1212,9.5749,0.6425,9.8281
3,4,1,3,1,14.812,14812,-4.1600,9.7700,0.3100,10.6233,0.0196,-0.0185,-0.3196,22.19,84.38,10.44,-2.3899,9.6006,0.5987,9.9117
3,4,1,3,1,14.933,14933,-4.1900,9.4700,1.2200,10.4271,0.0404,-0.0011,0.3065,23.25,84.19,9.94,-2.6271,9.5834,0.6805,9.9602
3,4,1,3,1,15.053,15053,-4.2200,10.3000,1.2400,11.1998,-0.0240,0.0153,-0.0175,22.44,84.19,11.50,-2.8370,9.6778,0.7543,10.1133
3,4,1,3,1,15.174,15174,-3.0900,8.6000,1.1500,9.2104,-0.0796,0.0164,-0.3142,22.19,84.63,11.56,-2.8703,9.5358,0.8064,9.9910
3,4,1,3,1,15.296,15296,-3.9100,6.6500,0.6100,7.7384,-0.1058,0.0185,-0.0120,23.81,85.13,10.19,-3.0073,9.1555,0.7805,9.6684
3,4,1,3,1,15.416,15416,-3.1800,9.4000,0.5300,9.9375,-0.1702,0.0589,0.4374,21.81,85.81,12.06,-3.0301,9.1877,0.7475,9.7033
3,4,1,3,1,15.538,15538,-3.4700,12.2200,0.0700,12.7033,-0.3294,0.0175,0.1527,20.38,87.56,12.88,-3.0881,9.5873,0.6582,10.0939
3,4,1,3,1,15.700,15700,-3.6100,13.2400,-1.1500,13.7714,0.1767,0.0295,0.2618,20.81,88.56,11.94,-3.1568,10.0687,0.4200,10.5603
3,5,1,3,1,15.825,15825,-4.3300,8.7000,0.3900,9.7258,0.4069,0.0753,-0.1527,20.56,85.63,12.88,-3.3114,9.8883,0.4160,10.4363
3,5,1,3,1,15.946,15946,-3.7200,8.9800,1.1800,9.7914,-0.1320,0.1985,0.1244,21.44,84.44,11.25,-3.3653,9.7686,0.5167,10.3449
3,5,1,3,1,16.066,16066,-2.6600,10.6100,0.7600,10.9647,-0.1156,0.0120,0.0589,21.44,85.13,10.13,-3.2723,9.8795,0.5487,10.4218
3,5,1,3,1,16.187,16187,-3.3900,10.2100,0.6100,10.7754,-0.0447,-0.0611,-0.0524,21.50,85.69,10.25,-3.2878,9.9230,0.5568,10.4684
3,5,1,3,1,16.308,16308,-2.6700,7.6300,0.7800,8.1212,0.0098,-0.0513,-0.0382,22.06,85.94,9.94,-3.2064,9.6209,0.5862,10.1581
3,5,1,3,1,16.429,16429,-2.7600,7.6100,0.6600,8.1219,-0.0764,-0.1102,0.3022,21.75,86.69,10.63,-3.1476,9.3559,0.5960,9.8891
3,5,1,3,1,16.551,16551,-4.1800,8.4400,0.3200,9.4238,-0.0513,-0.1342,0.1974,19.94,87.38,13.19,-3.2836,9.2352,0.5596,9.8176
3,5,1,3,1,16.718,16718,-2.3700,6.3500,0.1000,6.7786,0.0567,-0.0262,0.6872,16.00,87.38,17.25,-3.1632,8.8550,0.4990,9.4163
3,5,1,3,1,16.839,16839,-1.3200,9.7000,0.8600,9.8271,0.0109,0.0513,0.6076,11.50,87.25,21.38,-2.9204,8.9664,0.5466,9.4458
3,5,1,3,1,16.960,16960,-1.5800,9.7100,0.3400,9.8436,0.0371,-0.0164,-0.1756,9.69,87.06,22.06,-2.7437,9.0643,0.5194,9.4847
3,5,1,3,1,17.081,17081,-1.2600,9.2100,0.4900,9.3087,0.0098,-0.0153,-0.1756,7.88,86.88,23.81,-2.5482,9.0835,0.5155,9.4483
3,5,1,3,1,17.203,17203,-0.3000,10.0400,0.6200,10.0636,-0.0196,0.0360,0.6207,6.75,86.94,24.44,-2.2520,9.2096,0.5293,9.4957
3,5,1,3,1,17.330,17330,-0.5500,9.6100,0.3900,9.6336,0.0011,-0.0044,0.1898,4.75,86.94,26.19,-2.0277,9.2623,0.5109,9.4954
3,5,1,3,1,17.451,17451,-0.3700,9.8200,0.4800,9.8387,0.0087,0.0262,0.0458,3.50,86.94,27.25,-1.8092,9.3358,0.5068,9.5230
3,5,1,3,1,17.571,17571,-0.5400,9.8400,0.5500,9.8701,-0.0065,0.0535,-0.0404,3.25,86.88,26.69,-1.6420,9.4023,0.5125,9.5583
3,5,1,3,1,17.733,17733,-0.0800,9.8500,0.5900,9.8680,-0.0131,0.0665,-0.1102,2.88,86.94,26.13,-1.4362,9.4613,0.5227,9.5839
3,5,1,3,1,17.854,17854,-0.3100,9.1400,0.5400,9.1612,0.0044,0.0611,-0.1745,3.69,86.88,24.69,-1.2878,9.4189,0.5250,9.5210
3,5,1,3,1,17.975,17975,0.4500,7.2000,0.5200,7.2328,0.0229,0.0524,-0.2280,5.38,86.81,22.56,-1.0588,9.1265,0.5244,9.2027
3,5,1,3,1,18.097,18097,-1.2300,8.1900,0.4700,8.2952,-0.0524,-0.0196,-0.3632,8.13,86.81,19.75,-1.0813,9.0031,0.5172,9.0826
3,5,1,3,1,18.223,18223,-1.8400,10.4300,0.0600,10.5912,-0.0251,-0.0404,-0.4440,9.75,87.13,18.25,-1.1813,9.1911,0.4569,9.2780
3,5,1,3,1,18.344,18344,-1.6100,8.8400,0.4800,8.9982,0.2029,-0.1124,-0.0371,12.88,86.63,15.81,-1.2378,9.1449,0.4600,9.2397
3,5,1,3,1,18.465,18465,-4.7000,9.4100,0.4600,10.5285,0.0076,-0.0022,-0.2203,14.38,85.88,15.00,-1.6940,9.1798,0.4600,9.3461
3,5,1,3,1,18.586,18586,-1.2400,11.3400,0.2700,11.4108,-0.0055,0.0535,-0.2422,13.13,86.00,15.69,-1.6342,9.4645,0.4349,9.6144
3,5,1,3,1,18.749,18749,-3.8200,9.8100,0.3900,10.5347,0.1473,-0.0545,-0.2291,16.88,85.00,12.63,-1.9222,9.5100,0.4290,9.7118
3,5,1,3,1,18.875,18875,-3.1400,9.6500,1.0700,10.2043,0.0600,0.0011,-0.0633,17.06,84.19,13.19,-2.0827,9.5284,0.5135,9.7669
3,5,1,3,1,18.996,18996,-3.1900,9.4200,0.8100,9.9784,-0.0491,-0.0469,0.1582,16.88,84.25,13.75,-2.2286,9.5142,0.5526,9.7873
3,5,1,3,1,19.117,19117,-3.5300,10.6400,0.5300,11.2228,-0.1527,-0.0371,0.0109,16.19,85.06,15.06,-2.4001,9.6625,0.5496,9.9713
3,5,1,3,1,19.238,19238,-2.2000,12.0300,1.0000,12.2703,-0.0120,-0.0480,0.0829,15.31,85.81,16.00,-2.3737,9.9745,0.6089,10.2711
3,6,1,3,1,19.360,19360,-2.8100,8.4000,0.2600,8.8614,0.2018,-0.0720,-0.2869,16.06,85.13,16.25,-2.4312,9.7670,0.5630,10.0808
3,6,1,3,1,19.480,19480,-3.4800,8.8000,1.1400,9.5315,-0.0622,0.0305,-0.1560,16.63,84.75,16.13,-2.5694,9.6396,0.6390,9.9966
3,6,1,3,1,19.602,19602,-2.5100,11.0100,0.7400,11.3167,-0.0218,0.1571,0.1865,15.38,85.06,16.50,-2.5616,9.8202,0.6523,10.1697
3,6,1,3,1,19.764,19764,-3.0300,9.4900,0.3200,9.9671,-0.0960,0.0545,0.3229,15.06,85.06,16.13,-2.6233,9.7767,0.6085,10.1408
3,6,1,3,1,19.889,19889,-1.4100,10.7800,1.1500,10.9325,-0.1058,0.0971,0.1713,13.88,85.75,16.56,-2.4634,9.9089,0.6799,10.2331
3,6,1,3,1,20.010,20010,-4.1000,11.6600,0.7100,12.3802,-0.0022,0.0458,-0.0840,15.25,85.94,14.69,-2.6791,10.1396,0.6838,10.5099
3,6,1,3,1,20.130,20130,-0.4500,10.3900,1.3000,10.4807,0.0709,-0.0578,0.2662,12.56,85.69,17.44,-2.3854,10.1726,0.7650,10.4765
3,6,1,3,1,20.251,20251,-2.1500,8.9400,-0.0800,9.1952,0.1844,-0.0142,-0.1822,13.25,84.81,17.31,-2.3543,10.0102,0.6537,10.3041
3,6,1,3,1,20.372,20372,-1.9400,10.1900,1.1500,10.4366,0.0774,0.0502,0.0764,13.81,84.13,16.81,-2.2997,10.0339,0.7191,10.3191
3,6,1,3,1,20.493,20493,-3.1700,9.5100,0.8500,10.0604,0.0229,0.0262,0.6414,13.25,83.88,17.13,-2.4144,9.9649,0.7363,10.2796
3,6,1,3,1,20.615,20615,-3.0000,10.5000,1.1800,10.9837,-0.1222,-0.0415,-0.4112,12.81,84.13,17.31,-2.4916,10.0354,0.7948,10.3706
3,6,1,3,1,20.781,20781,-2.1600,10.7900,0.4900,11.0150,-0.1004,-0.0153,0.1156,12.38,85.31,17.69,-2.4479,10.1348,0.7546,10.4535
3,6,1,3,1,20.903,20903,-2.0800,7.5500,0.3900,7.8410,-0.0316,-0.0338,-0.1254,11.38,85.69,18.44,-2.3994,9.7942,0.7066,10.1086
3,6,1,3,1,21.023,21023,0.3200,6.8600,0.2700,6.8728,-0.0109,-0.0458,0.5705,6.56,85.88,23.06,-2.0411,9.4075,0.6491,9.6483
3,6,1,3,1,21.144,21144,-1.1800,10.2200,1.0900,10.3455,-0.0229,-0.0796,-0.1451,6.19,86.13,23.69,-1.9276,9.5146,0.7072,9.7336
3,6,1,3,1,21.265,21265,0.8200,9.3900,0.4300,9.4355,-0.0044,-0.0011,0.5890,2.88,86.13,26.88,-1.5655,9.4982,0.6706,9.6497
3,6,1,3,1,21.387,21387,0.0100,9.9600,0.7300,9.9867,-0.0295,-0.0284,0.3262,2.75,86.25,27.00,-1.3579,9.5590,0.6785,9.6788
3,6,1,3,1,21.508,21508,-0.0100,9.5500,0.4800,9.5621,-0.0578,-0.0142,0.2138,1.63,86.50,28.25,-1.1803,9.5579,0.6523,9.6525
3,6,1,3,1,21.629,21629,-0.1100,9.7100,0.5100,9.7240,-0.0676,-0.0033,-0.0109,2.06,87.00,27.44,-1.0393,9.5779,0.6336,9.6549
3,6,1,3,1,21.795,21795,0.3400,10.1300,0.4300,10.1448,-0.0545,0.0022,0.3480,0.56,87.63,28.63,-0.8575,9.6507,0.6067,9.7077
3,6,1,3,1,21.916,21916,1.4000,10.7100,-0.0100,10.8011,0.0862,0.0480,0.4614,-1.13,87.56,30.13,-0.5600,9.7902,0.5255,9.8203
3,6,1,3,1,22.037,22037,-0.8000,9.0900,0.1200,9.1259,0.1374,-0.0600,-0.1931,-0.31,86.56,29.31,-0.5916,9.6980,0.4720,9.7275
3,6,1,3,1,22.158,22158,0.2700,6.7200,0.8500,6.7789,-0.0371,0.0807,-0.2029,0.31,86.31,28.44,-0.4781,9.3056,0.5218,9.3324
3,6,1,3,1,22.279,22279,0.2600,10.1100,0.5400,10.1277,-0.0578,0.0993,0.1854,1.56,86.69,26.31,-0.3808,9.4116,0.5242,9.4338
3,6,1,3,1,22.405,22405,1.1300,10.8800,0.4200,10.9466,0.1593,-0.2116,-0.6883,1.44,86.25,26.75,-0.1818,9.6051,0.5105,9.6203
3,6,1,3,1,22.526,22526,-1.5800,8.2700,-0.1300,8.4206,0.1036,-0.2400,-0.3294,5.13,85.19,24.88,-0.3660,9.4291,0.4261,9.4459
3,6,1,3,1,22.649,22649,0.6900,8.6500,1.0900,8.7457,-0.0720,-0.2760,-0.4756,7.81,85.44,23.63,-0.2269,9.3265,0.5136,9.3433
3,6,1,3,1,22.810,22810,-1.0200,8.0200,1.5900,8.2395,0.1058,-0.4549,0.0044,9.25,86.63,25.88,-0.3314,9.1543,0.6554,9.1837
3,6,1,3,1,22.931,22931,-2.1300,8.4000,0.8300,8.7055,0.0491,-0.3534,-0.1124,9.06,86.88,29.00,-0.5684,9.0549,0.6784,9.0981
3,6,1,3,1,23.052,23052,0.0600,8.8700,-0.2900,8.8749,0.0785,0.0262,-0.0676,5.88,86.38,33.56,-0.4856,9.0305,0.5508,9.0603
3,6,1,3,1,23.174,23174,-6.2800,9.7200,0.2900,11.5759,-0.1854,0.4581,-0.3087,13.63,86.38,24.06,-1.2491,9.1214,0.5164,9.2210
3,6,1,3,1,23.300,23300,1.8400,7.9500,1.0600,8.2287,-0.1091,0.4701,-0.0567,11.19,86.44,23.06,-0.8421,8.9670,0.5881,9.0257
3,6,1,3,1,23.421,23421,-4.0000,9.5300,0.2900,10.3395,-0.4429,0.0862,-0.2051,13.13,88.13,19.69,-1.2582,9.0412,0.5488,9.1448
3,6,1,3,1,23.541,23541,-4.9400,11.0500,-0.2700,12.1070,-0.2694,0.4440,-0.0491,12.94,90.56,17.88,-1.7434,9.3059,0.4409,9.4781
3,6,1,3,1,23.662,23662,-3.8600,11.6600,-0.4900,12.2921,0.2913,0.9108,-0.0698,13.94,89.25,12.38,-2.0223,9.6161,0.3182,9.8316
3,7,1,3,1,23.824,23824,-0.5100,9.1600,1.3300,9.2701,0.3131,0.6632,-0.1233,15.19,83.75,5.06,-1.8230,9.5560,0.4516,9.7388
3,7,1,3,1,23.945,23945,-0.1700,10.1500,1.6700,10.2879,-0.0513,0.0425,-0.4134,16.88,82.38,1.75,-1.6052,9.6343,0.6121,9.7863
3,7,1,3,1,24.067,24067,-2.5900,9.6200,0.9800,10.0106,0.0142,-0.4265,-0.4091,20.13,83.13,0.31,-1.7350,9.6324,0.6606,9.8097
3,7,1,3,1,24.193,24193,-3.9700,9.0800,0.3600,9.9165,0.0851,-0.4789,-0.0654,20.88,83.81,3.56,-2.0295,9.5596,0.6210,9.7924
3,7,1,3,1,24.314,24314,-3.5900,9.8100,0.6200,10.4646,0.0153,-0.2498,0.2160,20.06,84.38,7.56,-2.2351,9.5926,0.6209,9.8691
3,7,1,3,1,24.435,24435,-4.1400,9.2500,0.3900,10.1417,0.0818,-0.1276,-0.0905,20.75,84.50,8.31,-2.4861,9.5475,0.5904,9.8835
3,7,1,3,1,24.556,24556,-2.9600,9.5100,1.0000,10.0101,0.0960,0.0251,0.0425,20.75,84.00,8.94,-2.5486,9.5425,0.6444,9.8980
3,7,1,3,1,24.677,24677,-4.1600,9.8300,0.6400,10.6932,0.1134,0.0742,0.2945,20.38,82.88,9.56,-2.7609,9.5804,0.6438,9.9911
3,7,1,3,1,24.839,24839,-1.5100,12.3300,1.3700,12.4974,-0.0840,0.0480,0.4058,16.94,82.81,12.44,-2.5961,9.9427,0.7395,10.3026
3,7,1,3,1,24.966,24966,-2.9000,9.4000,0.9800,9.8859,-0.1680,-0.0327,0.0589,17.94,83.69,11.19,-2.6361,9.8712,0.7712,10.2462
3,7,1,3,1,25.087,25087,-1.1800,10.6900,0.9600,10.7977,-0.0960,-0.0415,0.8072,16.00,84.81,13.13,-2.4442,9.9791,0.7961,10.3049
3,7,1,3,1,25.207,25207,-5.6400,8.9800,0.6800,10.6260,0.2029,-0.2291,0.1713,17.50,84.38,12.94,-2.8654,9.8475,0.7808,10.2855
3,7,1,3,1,25.328,25328,-2.7500,9.8800,1.6800,10.3923,0.0829,-0.0676,0.3251,15.44,84.06,15.94,-2.8502,9.8517,0.8993,10.2951
3,7,1,3,1,25.450,25450,-2.2200,7.1800,1.1900,7.6090,-0.0742,0.0665,0.1658,13.50,84.25,17.69,-2.7671,9.4997,0.9376,9.9388
3,7,1,3,1,25.571,25571,-1.4800,8.5800,0.3500,8.7137,-0.0851,0.0185,-0.6501,12.94,84.63,17.38,-2.5975,9.3785,0.8602,9.7695
3,7,1,3,1,25.694,25694,-0.5700,8.6700,0.6400,8.7123,-0.0567,-0.0829,0.4603,12.38,85.25,17.56,-2.3303,9.2851,0.8311,9.6091
3,7,1,3,1,25.859,25859,-2.0600,7.9300,0.4800,8.2072,0.0240,-0.1113,0.3469,11.06,85.50,19.81,-2.2947,9.1066,0.7849,9.4240
3,7,1,3,1,25.980,25980,-1.1900,8.2900,0.7600,8.4094,0.0055,-0.0611,0.3240,8.94,85.56,22.31,-2.1491,8.9990,0.7816,9.2850
3,7,1,3,1,26.101,26101,-0.3300,10.9100,0.8900,10.9512,-0.0131,-0.0404,0.4581,6.19,85.69,25.06,-1.9094,9.2508,0.7959,9.4793
3,7,1,3,1,26.222,26222,-2.3400,9.1100,0.7800,9.4380,0.0033,-0.0829,-0.7712,6.94,85.69,24.69,-1.9662,9.2322,0.7938,9.4726
3,7,1,3,1,26.343,26343,1.0300,9.8100,0.7700,9.8939,-0.0164,-0.0316,0.6883,4.31,85.88,27.19,-1.5713,9.3084,0.7907,9.4731
3,7,1,3,1,26.466,26466,-0.6500,9.7900,0.7000,9.8365,-0.0436,-0.0131,-0.0295,3.94,86.13,27.44,-1.4499,9.3718,0.7787,9.5152
3,7,1,3,1,26.587,26587,-0.0600,9.4000,0.6300,9.4213,-0.0545,0.0447,0.3829,3.31,86.44,27.88,-1.2668,9.3755,0.7591,9.4911
3,7,1,3,1,26.712,26712,-0.5500,10.3900,0.5800,10.4207,-0.0491,0.0349,0.1996,2.00,86.81,28.69,-1.1723,9.5092,0.7355,9.6094
3,7,1,3,1,26.874,26874,0.8100,9.8100,0.5200,9.8571,0.0207,-0.0240,0.0480,-0.50,86.81,30.69,-0.9111,9.5489,0.7071,9.6183
3,7,1,3,1,26.995,26995,0.3800,8.5900,0.9400,8.6496,0.1342,-0.0524,-0.2771,1.25,86.19,28.94,-0.7410,9.4225,0.7378,9.4803
3,7,1,3,1,27.121,27121,-1.1200,8.6100,0.2900,8.6874,0.0502,-0.1429,-0.3992,3.19,85.56,27.69,-0.7909,9.3154,0.6788,9.3736
3,7,1,3,1,27.242,27242,-2.6400,9.4100,0.2200,9.7758,-0.1582,0.1244,-0.0556,4.88,85.88,26.06,-1.0346,9.3279,0.6183,9.4054
3,7,1,3,1,27.364,27364,-1.6500,8.8900,0.2300,9.0448,-0.1898,0.4571,-0.7898,6.56,87.13,21.81,-1.1157,9.2702,0.5672,9.3543
3,7,1,3,1,27.486,27486,0.8600,10.4600,0.5200,10.5082,-0.0316,0.2291,0.1145,7.94,87.50,17.63,-0.8553,9.4270,0.5609,9.4823
3,7,1,3,1,27.606,27606,-0.2900,9.7900,0.2100,9.7965,0.1516,-0.1254,-0.1702,7.69,86.88,17.94,-0.7808,9.4748,0.5147,9.5209
3,7,1,3,1,27.727,27727,-1.4600,9.4900,0.5400,9.6168,0.1822,-0.1680,-0.1451,9.56,86.06,17.38,-0.8703,9.4768,0.5180,9.5308
3,7,1,3,1,27.889,27889,0.9200,11.8000,1.6200,11.9462,0.1953,-0.3567,0.2596,9.44,85.00,19.88,-0.6344,9.7830,0.6632,9.8259
3,7,1,3,1,28.013,28013,-2.5800,7.7000,-0.2600,8.1249,0.1800,-0.4123,-0.1331,11.13,83.94,21.75,-0.8908,9.5085,0.5416,9.5655
3,7,1,3,1,28.134,28134,-4.2900,8.7400,0.9500,9.7823,0.0709,-0.0916,-0.4211,14.69,83.63,20.06,-1.3387,9.4072,0.5954,9.5206
3,7,1,3,1,28.257,28257,-2.2700,10.0800,1.5000,10.4408,0.0927,0.0731,0.0120,15.56,83.06,19.81,-1.4614,9.4959,0.7146,9.6342
3,7,1,3,1,28.378,28378,-3.0100,9.7500,1.4500,10.3066,0.0884,0.0480,0.0404,16.25,82.19,19.19,-1.6655,9.5294,0.8115,9.7078
3,7,1,3,1,28.499,28499,-3.3200,10.5500,1.5500,11.1681,-0.0327,0.0742,-0.1407,16.38,82.00,18.88,-1.8835,9.6638,0.9088,9.8875
3,8,1,3,1,28.620,28620,-3.3300,8.7500,1.3600,9.4605,-0.0600,0.0207,-0.2083,16.38,82.13,18.81,-2.0741,9.5434,0.9683,9.8141
3,8,1,3,1,28.741,28741,-3.0100,9.6900,1.2400,10.2222,-0.2127,0.0687,0.0916,15.81,83.00,19.25,-2.1975,9.5627,1.0041,9.8632
3,8,1,3,1,28.903,28903,-2.3200,9.0800,0.6800,9.3963,-0.3294,0.1909,-0.0785,15.13,85.13,18.50,-2.2136,9.4991,0.9614,9.8009
3,8,1,3,1,29.030,29030,-2.2500,13.4700,0.0000,13.6566,-0.1724,0.2094,0.1385,15.69,86.44,16.00,-2.2184,10.0224,0.8347,10.2988
3,8,1,3,1,29.151,29151,-2.1100,10.8300,0.9900,11.0780,0.0600,0.0065,0.5967,14.19,86.13,16.94,-2.2041,10.1288,0.8552,10.4011
3,8,1,3,1,29.271,29271,-2.6600,9.3800,0.7300,9.7772,-0.0229,-0.0164,-0.0491,10.06,86.25,21.25,-2.2642,10.0301,0.8387,10.3167
3,8,1,3,1,29.392,29392,-2.6800,11.1200,0.4200,11.4461,-0.1047,0.0687,-0.4309,11.00,86.38,19.63,-2.3190,10.1738,0.7835,10.4641
3,8,1,3,1,29.514,29514,-0.6900,10.5700,0.6900,10.6149,0.1822,-0.0654,-0.3534,11.56,86.25,18.94,-2.1043,10.2260,0.7712,10.4687
3,8,1,3,1,29.634,29634,-4.5000,7.6800,-0.7800,8.9354,-0.1254,0.0164,-0.4669,12.00,85.94,19.06,-2.4200,9.8905,0.5668,10.1980
3,8,1,3,1,29.755,29755,-1.9100,11.9000,0.2000,12.0540,-0.2400,0.2923,0.0524,12.63,87.19,16.44,-2.3528,10.1553,0.5184,10.4372
3,8,1,3,1,29.923,29923,-2.8300,9.3700,0.0400,9.7881,0.1036,-0.1069,-0.7614,17.13,87.50,10.75,-2.4157,10.0518,0.4554,10.3480
3,8,1,3,1,30.044,30044,-2.4800,7.3400,0.7600,7.7848,0.0589,-0.0076,0.1309,18.56,87.25,9.81,-2.4242,9.6945,0.4955,10.0052
3,8,1,3,1,30.164,30164,-2.2300,5.5500,0.3900,5.9940,0.0753,-0.0175,0.4581,16.50,86.81,11.94,-2.3986,9.1483,0.4816,9.4698
3,8,1,3,1,30.285,30285,-1.2000,10.2400,1.0700,10.3654,0.0971,-0.0611,0.8607,12.13,86.31,16.63,-2.2406,9.2922,0.5592,9.5748
3,8,1,3,1,30.406,30406,-1.1100,9.6200,0.2800,9.6879,0.0862,-0.1407,-0.1025,8.56,85.88,20.56,-2.0916,9.3354,0.5224,9.5811
3,8,1,3,1,30.527,30527,-2.2800,9.7100,0.9500,10.0192,-0.0164,-0.0687,-0.1124,9.75,85.81,20.00,-2.1165,9.3847,0.5787,9.6378
3,8,1,3,1,30.649,30649,-0.4700,9.3100,0.2600,9.3255,-0.0545,-0.0884,0.2203,7.13,86.13,22.81,-1.8995,9.3749,0.5367,9.5804
3,8,1,3,1,30.775,30775,-1.6200,10.0100,0.4500,10.1502,-0.0971,-0.0469,0.0327,7.00,86.81,23.31,-1.8627,9.4586,0.5253,9.6545
3,8,1,3,1,30.937,30937,-0.0200,10.2100,0.2700,10.2136,-0.0065,-0.0065,0.0698,4.81,87.44,25.25,-1.6199,9.5576,0.4917,9.7064
3,8,1,3,1,31.058,31058,-1.8600,10.1100,0.3600,10.2860,0.1156,0.0622,-0.0185,5.88,87.13,24.00,-1.6515,9.6304,0.4743,9.7825
3,8,1,3,1,31.179,31179,-0.6600,8.5600,1.0000,8.6434,0.1364,0.1047,-0.0589,5.56,86.06,23.63,-1.5208,9.4893,0.5436,9.6258
3,8,1,3,1,31.300,31300,-0.4500,8.6100,0.9300,8.6718,0.0862,-0.0011,-0.2673,6.13,85.19,22.63,-1.3797,9.3735,0.5945,9.4931
3,8,1,3,1,31.421,31421,-1.1700,7.9000,0.6000,8.0087,-0.0393,-0.1167,-0.4014,7.56,85.00,21.75,-1.3521,9.1793,0.5952,9.2974
3,8,1,3,1,31.544,31544,-1.8100,9.1500,-0.1000,9.3278,-0.1484,-0.0447,-0.2454,10.13,85.69,19.63,-1.4124,9.1754,0.5036,9.2972
3,8,1,3,1,31.669,31669,-1.0400,8.9400,0.8300,9.0385,-0.1069,-0.0469,-0.3185,12.88,86.63,16.94,-1.3634,9.1444,0.5466,9.2616
3,8,1,3,1,31.790,31790,-3.4400,10.0200,-0.0100,10.5941,-0.0327,-0.0927,-0.1407,16.13,87.13,14.25,-1.6370,9.2598,0.4733,9.4153
3,8,1,3,1,31.952,31952,-3.4000,9.6700,0.7000,10.2742,0.0742,-0.0076,-0.3153,17.75,86.69,13.19,-1.8693,9.3138,0.5031,9.5129
3,8,1,3,1,32.073,32073,-3.5700,9.0400,0.3700,9.7264,0.0894,0.0829,-0.1124,18.56,85.94,12.31,-2.0934,9.2778,0.4856,9.5234
3,8,1,3,1,32.195,32195,-2.7000,9.7300,0.8500,10.1334,0.0349,0.1014,-0.0535,19.06,85.38,11.25,-2.1734,9.3374,0.5336,9.6018
3,8,1,3,1,32.321,32321,-3.2200,10.3700,0.6700,10.8791,0.0316,0.0698,0.1953,18.63,85.00,11.81,-2.3113,9.4734,0.5516,9.7669
3,8,1,3,1,32.443,32443,-2.5000,10.0800,0.5000,10.3974,0.0044,0.0349,-0.0654,17.44,84.88,13.06,-2.3361,9.5534,0.5448,9.8499
3,8,1,3,1,32.563,32563,-4.0200,10.7700,0.5600,11.5094,-0.0327,0.0851,-0.1942,18.38,84.81,12.25,-2.5580,9.7137,0.5468,10.0597
3,8,1,3,1,32.684,32684,-3.4000,10.0800,0.7600,10.6651,-0.0425,0.1244,-0.2640,19.63,84.75,10.69,-2.6690,9.7620,0.5749,10.1366
3,9,1,3,1,32.805,32805,-3.4200,9.3200,0.7800,9.9583,-0.0131,0.0785,-0.1931,20.56,84.69,9.63,-2.7680,9.7037,0.6019,10.1087
3,9,1,3,1,32.967,32967,-3.5400,9.2100,0.8700,9.9052,0.0284,0.0524,0.0120,21.06,84.38,8.88,-2.8697,9.6387,0.6372,10.0769
3,9,1,3,1,33.093,33093,-4.6300,8.3200,0.6600,9.5444,-0.1233,0.0764,0.0687,20.94,84.38,8.75,-3.1017,9.4649,0.6402,9.9807
3,9,1,3,1,33.215,33215,-4.1000,10.2400,1.6400,11.1516,-0.2062,0.2389,0.1844,20.63,85.38,7.69,-3.2332,9.5670,0.7720,10.1281
3,9,1,3,1,33.335,33335,-0.9400,11.2000,0.5900,11.2549,-0.0044,-0.0491,0.0611,18.19,85.94,9.06,-2.9310,9.7822,0.7480,10.2392
3,9,1,3,1,33.456,33456,-0.7300,9.6500,0.5300,9.6921,0.2389,-0.3011,0.7145,16.25,85.56,12.81,-2.6410,9.7648,0.7193,10.1412
3,9,1,3,1,33.578,33578,-4.3600,7.6400,-0.2300,8.7996,0.0982,-0.3283,-0.3862,16.50,84.81,15.25,-2.8675,9.4848,0.5942,9.9266
3,9,1,3,1,33.698,33698,-3.6600,10.6400,1.0500,11.3008,-0.0316,0.0774,0.0556,17.50,84.94,14.88,-2.9719,9.6370,0.6543,10.1061
3,9,1,3,1,33.819,33819,-2.1500,10.5600,1.3700,10.8634,0.1822,-0.0796,0.0709,19.38,84.31,12.81,-2.8636,9.7586,0.7486,10.1976
3,9,1,3,1,33.987,33987,-6.8200,9.4900,1.1200,11.7400,-0.1527,-0.2727,0.0753,18.69,83.56,16.88,-3.3850,9.7232,0.7975,10.3265
3,9,1,3,1,34.108,34108,-1.5000,10.3500,1.1000,10.5158,-0.2542,0.0949,0.0360,16.81,85.56,18.31,-3.1366,9.8058,0.8374,10.3293
3,9,1,3,1,34.229,34229,-3.3300,11.3200,0.9400,11.8370,-0.1778,0.0153,0.3229,17.63,87.19,16.75,-3.1621,10.0054,0.8509,10.5276
3,9,1,3,1,34.349,34349,-1.7800,7.9900,-0.3400,8.1929,-0.0120,-0.0044,0.2574,16.00,87.50,18.31,-2.9799,9.7398,0.6940,10.2091
3,9,1,3,1,34.470,34470,-2.9300,9.1400,0.0000,9.5982,-0.0600,0.0425,-0.1156,15.00,87.88,19.00,-2.9734,9.6608,0.6025,10.1259
3,9,1,3,1,34.591,34591,-2.3200,7.8700,-0.2300,8.2081,-0.0011,0.0633,0.2662,14.81,88.00,18.75,-2.8873,9.4248,0.4928,9.8694
3,9,1,3,1,34.712,34712,-1.7700,8.2900,0.3900,8.4858,0.0698,0.0785,0.4451,13.00,87.75,20.19,-2.7400,9.2752,0.4793,9.6834
3,9,1,3,1,34.833,34833,-0.9000,8.7200,0.4000,8.7754,0.0993,0.1124,0.4134,9.56,86.94,23.06,-2.4976,9.2021,0.4688,9.5465
3,9,1,3,1,35.001,35001,-0.1100,10.3900,0.4400,10.3999,-0.0022,0.1091,0.5978,7.25,86.25,24.38,-2.1830,9.3586,0.4650,9.6211
3,9,1,3,1,35.122,35122,-1.9800,9.7400,0.8100,9.9722,-0.0044,0.0295,-0.2138,8.44,86.19,22.50,-2.1562,9.4089,0.5105,9.6663
3,9,1,3,1,35.242,35242,-0.5900,9.6100,0.7400,9.6565,0.0676,-0.0404,0.0818,7.00,85.94,23.56,-1.9498,9.4354,0.5407,9.6499
3,9,1,3,1,35.363,35363,-0.5000,9.6800,0.8600,9.7310,0.0305,-0.0753,0.1691,6.56,85.69,23.88,-1.7588,9.4676,0.5828,9.6472
3,9,1,3,1,35.484,35484,-0.5100,8.9500,0.8600,9.0057,-0.0229,-0.0894,0.0076,6.44,85.69,24.38,-1.5942,9.3994,0.6193,9.5537
3,9,1,3,1,35.606,35606,-2.4400,9.1800,0.6900,9.5238,-0.0535,-0.0753,-0.2291,8.00,86.06,23.19,-1.7057,9.3705,0.6286,9.5452
3,9,1,3,1,35.726,35726,-1.2600,9.2100,0.2800,9.3000,-0.0502,-0.0240,-0.1287,7.69,86.50,23.31,-1.6469,9.3493,0.5827,9.5112
3,9,1,3,1,35.853,35853,-0.5100,9.2700,0.3000,9.2889,-0.0349,0.0360,0.2203,7.94,86.81,22.94,-1.4971,9.3389,0.5454,9.4738
3,9,1,3,1,36.015,36015,-0.4000,9.3800,0.2800,9.3927,0.0098,-0.0295,-0.0785,8.44,87.00,22.19,-1.3525,9.3443,0.5105,9.4555
3,9,1,3,1,36.136,36136,0.7500,10.0200,1.3100,10.1331,0.1113,0.0480,0.3272,7.56,86.69,22.94,-1.0755,9.4333,0.6158,9.5144
3,9,1,3,1,36.257,36257,-2.1500,9.6800,0.4400,9.9256,0.1549,-0.0665,-0.6109,9.13,85.50,21.56,-1.2171,9.4658,0.5927,9.5622
3,9,1,3,1,36.378,36378,-3.2600,8.5300,0.6500,9.1548,0.0589,-0.0349,-0.5181,11.44,84.88,19.75,-1.4863,9.3425,0.6002,9.4790
3,9,1,3,1,36.499,36499,-2.2500,7.5000,0.8400,7.8752,-0.0153,-0.0011,-0.7058,11.56,84.69,19.56,-1.5869,9.0997,0.6318,9.2586
3,9,1,3,1,36.621,36621,-0.7300,9.4200,0.8100,9.4829,0.0196,0.0884,0.5400,10.56,84.75,20.38,-1.4740,9.1419,0.6553,9.2832
3,9,1,3,1,36.747,36747,-1.6400,9.3200,0.8500,9.5013,-0.0164,0.0415,-0.7025,9.75,84.69,20.69,-1.4959,9.1654,0.6809,9.3116
3,9,1,3,1,36.868,36868,-1.5500,9.6000,0.9800,9.7736,-0.0447,0.0578,-0.2498,11.88,84.94,18.13,-1.5030,9.2227,0.7204,9.3721
3,9,1,3,1,37.030,37030,-2.4500,10.5600,0.8500,10.8738,-0.0600,0.0055,-0.0502,13.44,85.31,16.56,-1.6278,9.3989,0.7374,9.5673
3,9,1,3,1,37.154,37154,-1.3300,12.4200,0.6700,12.5090,-0.0938,-0.0862,0.2280,12.25,85.75,18.13,-1.5886,9.7970,0.7286,9.9517
3,9,1,3,1,37.276,37276,-2.2200,12.0000,0.4600,12.2123,-0.1058,-0.1604,-0.0829,12.50,86.69,19.00,-1.6718,10.0873,0.6932,10.2484
3,10,1,3,1,37.399,37399,-2.7800,9.2800,0.3900,9.6953,-0.0393,-0.0687,-0.2498,13.88,87.38,18.38,-1.8178,9.9809,0.6532,10.1661
3,10,1,3,1,37.520,37520,-2.3800,8.1800,0.3600,8.5268,0.0076,-0.0055,-0.1124,14.75,87.44,17.94,-1.8919,9.7436,0.6146,9.9446
3,10,1,3,1,37.642,37642,-2.1400,9.0300,0.5100,9.2941,0.0153,-0.0131,-1.0210,16.69,87.38,15.94,-1.9246,9.6496,0.6008,9.8579
3,10,1,3,1,37.762,37762,-5.4500,12.1600,0.0500,13.3256,-0.0720,0.0131,-0.0916,21.13,87.56,11.56,-2.3891,9.9804,0.5282,10.2759
3,10,1,3,1,37.883,37883,-3.9100,11.1500,0.2600,11.8186,0.0611,0.0971,-0.1560,20.00,87.25,12.94,-2.5896,10.1345,0.4929,10.4717
3,10,1,3,1,38.049,38049,-1.5200,12.1900,0.9600,12.3219,0.1331,0.1396,0.2182,16.00,86.00,16.13,-2.4486,10.4054,0.5544,10.7040
3,10,1,3,1,38.170,38170,-2.3600,7.1600,0.4500,7.5523,0.1200,-0.1331,-0.3185,17.44,84.88,15.00,-2.4369,9.9777,0.5407,10.2852
3,10,1,3,1,38.293,38293,-3.3900,9.1700,1.0500,9.8328,-0.0382,-0.0491,-0.1484,16.69,85.13,16.44,-2.5625,9.8713,0.6078,10.2166
3,10,1,3,1,38.413,38413,-2.7600,9.4500,1.8300,10.0134,-0.1134,0.0175,0.1102,17.06,85.75,15.88,-2.5885,9.8158,0.7688,10.1804
3,10,1,3,1,38.534,38534,-2.6100,10.5700,0.2000,10.8893,-0.0338,-0.0665,0.3098,16.00,86.38,16.94,-2.5914,9.9152,0.6939,10.2717
3,10,1,3,1,38.655,38655,-3.8000,10.0900,0.1800,10.7833,0.0076,-0.0185,0.2847,15.38,86.38,17.88,-2.7506,9.9382,0.6262,10.3308
3,10,1,3,1,38.776,38776,-3.1600,8.9600,0.5700,9.5180,0.0087,0.0371,0.0665,14.25,86.38,18.75,-2.8046,9.8093,0.6188,10.2211
3,10,1,3,1,38.897,38897,-1.7300,9.7900,0.3300,9.9472,-0.0720,0.0251,0.2847,11.94,86.69,20.81,-2.6630,9.8067,0.5807,10.1785
3,10,1,3,1,39.065,39065,-1.4700,7.4600,0.5200,7.6212,-0.0262,0.0447,0.4331,10.13,86.81,22.00,-2.5058,9.4975,0.5727,9.8392
3,10,1,3,1,39.186,39186,-1.0500,9.2500,0.7200,9.3372,-0.0240,0.0567,0.6240,6.88,86.94,24.81,-2.3139,9.4649,0.5921,9.7616
3,10,1,3,1,39.306,39306,0.2100,8.9900,0.5000,9.0063,-0.0371,-0.0065,0.1898,3.19,87.19,27.81,-1.9814,9.4023,0.5800,9.6263
3,10,1,3,1,39.427,39427,0.7100,10.4200,0.6400,10.4638,-0.0207,-0.0295,-0.0360,2.06,87.44,29.06,-1.6267,9.5364,0.5879,9.6920
3,10,1,3,1,39.548,39548,-0.4200,10.0000,0.4300,10.0180,0.0556,-0.0011,0.0458,3.81,87.31,27.44,-1.4677,9.5975,0.5671,9.7256
3,10,1,3,1,39.670,39670,0.6200,9.4900,0.4300,9.5199,0.0611,-0.0447,0.3011,2.25,86.88,28.88,-1.1926,9.5833,0.5490,9.6729
3,10,1,3,1,39.790,39790,0.4000,9.7900,0.7300,9.8253,0.0262,-0.0393,-0.0720,0.88,86.63,30.19,-0.9827,9.6106,0.5729,9.6777
3,10,1,3,1,39.911,39911,1.0600,8.0400,1.0800,8.1812,-0.0175,0.0087,0.3622,0.06,86.63,30.81,-0.7135,9.4036,0.6397,9.4523
3,10,1,3,1,40.074,40074,-2.1000,8.5200,-0.2300,8.7780,-0.0567,-0.0338,-0.4309,3.69,87.06,26.94,-0.8962,9.2872,0.5251,9.3451
3,10,1,3,1,40.199,40199,0.2800,9.8300,0.1200,9.8347,-0.0229,-0.0284,0.1102,3.13,87.44,27.63,-0.7412,9.3587,0.4717,9.3999
3,10,1,3,1,40.320,40320,-0.0300,8.8600,0.9700,8.9130,-0.0109,-0.0185,-0.0524,3.63,87.69,27.25,-0.6475,9.2930,0.5374,9.3310
3,10,1,3,1,40.441,40441,-3.8300,10.5100,0.0100,11.1861,-0.0142,0.0262,-0.1342,8.00,87.81,22.88,-1.0669,9.4534,0.4679,9.5249
3,10,1,3,1,40.562,40562,-1.9800,10.6100,0.8800,10.8290,0.1265,0.1658,-0.9610,6.81,87.25,23.19,-1.1872,9.6058,0.5222,9.6929
3,10,1,3,1,40.684,40684,1.1800,9.0200,0.4000,9.1056,0.1331,0.1200,0.6632,5.25,86.25,23.81,-0.8753,9.5286,0.5061,9.5821
3,10,1,3,1,40.810,40810,0.0500,9.3600,1.0300,9.4166,0.0633,0.0371,-0.4287,5.50,85.69,23.06,-0.7533,9.5064,0.5751,9.5535
3,10,1,3,1,40.932,40932,1.4100,10.7500,1.8900,11.0056,0.0884,0.0415,0.7614,3.63,85.25,24.81,-0.4683,9.6702,0.7484,9.7105
3,10,1,3,1,41.094,41094,-2.3800,10.5700,0.8900,10.8711,0.0109,-0.0120,-0.3087,8.56,84.44,20.44,-0.7202,9.7888,0.7671,9.8452
3,10,1,3,1,41.215,41215,-0.8300,10.7900,0.7700,10.8492,-0.0251,-0.0262,-0.5552,10.19,84.50,19.00,-0.7347,9.9207,0.7674,9.9775
3,10,1,3,1,41.336,41336,-3.8000,11.5600,0.8600,12.1989,-0.0251,-0.0425,-0.1233,14.13,84.69,15.81,-1.1386,10.1368,0.7796,10.2303
3,10,1,3,1,41.459,41459,-1.9600,10.0700,0.8300,10.2925,-0.0851,0.0742,-0.2465,12.81,85.06,17.50,-1.2468,10.1280,0.7863,10.2347
3,10,1,3,1,41.581,41581,-3.6300,10.3600,0.8400,11.0096,-0.1691,0.2967,0.3927,13.94,85.44,15.25,-1.5609,10.1585,0.7934,10.3083
3,10,1,3,1,41.705,41705,-0.4400,13.1500,0.7100,13.1765,-0.1113,0.1047,0.3436,11.06,86.19,16.38,-1.4132,10.5527,0.7824,10.6756
3,10,1,3,1,41.826,41826,2.1700,10.0700,-1.1300,10.3629,0.1036,-0.6109,-0.3371,10.94,86.13,18.44,-0.9410,10.4891,0.5304,10.5446
3,10,1,3,1,41.946,41946,-3.9600,10.0800,1.6000,10.9475,-0.0120,-0.3109,0.2945,12.19,86.94,20.88,-1.3388,10.4352,0.6713,10.5421
3,10,1,3,1,42.108,42108,-5.1000,11.4000,1.3600,12.5626,-0.0436,-0.0142,-0.1505,13.75,87.19,20.00,-1.8345,10.5623,0.7621,10.7475
3,10,1,3,1,42.230,42230,-2.6600,9.3400,0.4200,9.7205,0.1113,0.0556,0.1265,11.69,86.63,22.06,-1.9432,10.4013,0.7170,10.6055
3,10,1,3,1,42.356,42356,-2.4000,9.0100,-0.4000,9.3327,-0.1963,0.3033,0.6872,7.56,86.81,24.38,-2.0034,10.2179,0.5698,10.4281
3,10,1,3,1,42.478,42478,1.9900,7.0900,0.6300,7.3909,-0.1047,0.3556,0.0415,4.63,87.94,24.13,-1.4772,9.8058,0.5777,9.9332
3,10,1,3,1,42.598,42598,0.8100,6.0800,-0.7500,6.1794,0.1211,0.0327,1.0614,2.06,87.38,25.19,-1.1758,9.3148,0.4028,9.3973
3,10,1,3,1,42.719,42719,1.8900,9.7300,0.4600,9.9225,0.1145,-0.0415,0.3611,-3.69,86.63,30.94,-0.7718,9.3695,0.4103,9.4102
3,10,1,3,1,42.840,42840,0.1600,11.0500,1.0100,11.0972,0.0207,0.0371,0.4472,-3.31,86.06,30.44,-0.6490,9.5910,0.4893,9.6253
3,10,1,3,1,42.961,42961,0.6300,9.1200,0.9500,9.1910,-0.0415,-0.0022,-0.2760,-5.00,86.06,31.81,-0.4805,9.5289,0.5500,9.5568
