participant,rep,equipment_code,exercise_code,quality_code,timestamp,timestamp_ms,accelX,accelY,accelZ,accelMag,gyroX,gyroY,gyroZ,roll,pitch,yaw,filteredX,filteredY,filteredZ,filteredMag
3,1,1,3,1,00.000,0,-1.1000,9.5800,0.5600,9.6592,-0.0011,0.0196,-0.0240,6.88,87.13,104.13,-1.0815,9.5644,0.3846,9.6331
3,1,1,3,1,00.172,172,-1.2600,9.5300,0.4700,9.6244,-0.0055,0.0196,-0.0251,7.06,87.06,103.75,-1.1050,9.5599,0.3959,9.6317
3,1,1,3,1,00.303,303,-0.9300,9.6000,0.4200,9.6541,-0.0098,0.0164,-0.0458,7.06,87.13,103.63,-1.0819,9.5652,0.3991,9.6345
3,1,1,3,1,00.433,433,-1.4700,9.7900,0.3900,9.9074,-0.0044,0.0207,0.0665,7.00,87.13,103.50,-1.1331,9.5948,0.3979,9.6697
3,1,1,3,1,00.564,564,0.0300,9.2100,0.5300,9.2253,0.0055,0.0196,-0.0458,6.31,87.06,104.00,-0.9798,9.5441,0.4153,9.6033
3,1,1,3,1,00.694,694,-2.1500,7.2200,0.2200,7.5365,-0.0022,-0.0065,-0.4538,8.75,87.06,101.56,-1.1340,9.2378,0.3895,9.3153
3,1,1,3,1,00.825,825,-0.3100,8.0200,0.7000,8.0565,0.0349,0.0044,-0.1756,8.50,86.94,101.69,-1.0254,9.0774,0.4305,9.1452
3,1,1,3,1,00.956,956,-0.1400,9.9100,0.0300,9.9110,0.0469,0.0349,0.3545,8.31,86.81,101.75,-0.9088,9.1871,0.3777,9.2396
3,1,1,3,1,01.086,1086,-1.2500,9.7000,0.2400,9.7832,-0.0262,-0.0087,0.0360,9.06,86.69,101.13,-0.9537,9.2547,0.3595,9.3106
3,1,1,3,1,01.259,1259,-3.3400,9.3300,0.3400,9.9156,-0.0153,-0.0076,0.3316,10.63,86.63,99.75,-1.2682,9.2646,0.3570,9.3578
3,1,1,3,1,01.393,1393,-2.1500,9.3800,0.4600,9.6342,0.0295,-0.0175,0.0709,9.44,86.50,101.00,-1.3844,9.2798,0.3705,9.3898
3,1,1,3,1,01.524,1524,-1.8900,10.6000,0.4700,10.7774,0.0087,-0.0360,-0.3142,8.25,86.44,102.25,-1.4510,9.4538,0.3836,9.5722
3,1,1,3,1,01.655,1655,0.4100,11.5700,0.9000,11.6122,0.0055,-0.0295,-0.0131,6.75,86.38,103.88,-1.2058,9.7326,0.4517,9.8174
3,1,1,3,1,01.785,1785,-0.6900,10.8600,0.5400,10.8953,0.0142,-0.0011,0.0654,7.69,86.38,103.13,-1.1378,9.8812,0.4633,9.9573
3,1,1,3,1,01.915,1915,-2.6200,9.9700,0.6500,10.3290,0.0065,0.0011,0.2531,8.94,86.44,102.13,-1.3331,9.8929,0.4879,9.9942
3,1,1,3,1,02.046,2046,-1.7900,9.0200,0.7000,9.2225,-0.0218,-0.0316,-0.2945,9.25,86.56,101.88,-1.3933,9.7779,0.5159,9.8901
3,1,1,3,1,02.176,2176,-0.6400,9.9300,0.6100,9.9693,-0.0011,-0.0065,0.1178,7.75,86.56,103.38,-1.2941,9.7979,0.5283,9.8971
3,1,1,3,1,02.349,2349,-1.1700,12.9700,0.5600,13.0347,-0.0022,0.0011,0.1069,7.06,86.56,104.13,-1.2777,10.2159,0.5325,10.3093
3,1,1,3,1,02.480,2480,-0.8100,10.6900,0.6100,10.7380,0.0022,-0.0033,-0.3065,7.88,86.56,103.31,-1.2161,10.2784,0.5427,10.3643
3,1,1,3,1,02.611,2611,-2.8200,9.9700,0.4800,10.3723,-0.0055,0.0044,-0.1025,9.63,86.56,101.50,-1.4274,10.2378,0.5344,10.3506
3,1,1,3,1,02.741,2741,-1.3800,10.1000,0.4800,10.2051,0.0131,0.0316,0.2138,9.19,86.56,101.81,-1.4212,10.2196,0.5272,10.3314
3,1,1,3,1,02.872,2872,-1.4300,9.6200,0.6900,9.7501,0.0153,-0.0044,-0.3229,9.19,86.44,101.75,-1.4223,10.1406,0.5487,10.2545
3,1,1,3,1,03.002,3002,-2.3700,9.1500,0.3400,9.4581,-0.0065,0.0011,-0.3054,10.50,86.31,100.38,-1.5472,10.0101,0.5212,10.1423
3,1,1,3,1,03.137,3137,-1.3000,7.0400,0.4500,7.1732,0.0251,0.0055,-0.3229,11.63,86.13,99.25,-1.5146,9.6187,0.5118,9.7506
3,1,1,3,1,03.268,3268,-2.5400,7.9100,0.5700,8.3273,-0.0120,0.0295,-0.0382,12.25,86.06,98.44,-1.6498,9.3935,0.5195,9.5514
3,1,1,3,1,03.441,3441,-2.7400,8.9500,0.7200,9.3877,-0.0316,0.0753,0.7658,11.63,86.19,98.69,-1.7934,9.3351,0.5459,9.5214
3,1,1,3,1,03.571,3571,-2.7200,9.0200,0.3500,9.4277,-0.0742,-0.0022,-0.5334,10.69,86.56,99.31,-1.9155,9.2936,0.5201,9.5032
3,2,1,3,1,03.701,3701,-1.1600,9.7200,0.6700,9.8119,-0.0774,0.0262,-0.0545,10.63,87.06,99.00,-1.8160,9.3497,0.5398,9.5398
3,2,1,3,1,03.832,3832,-1.6000,9.6800,0.3500,9.8176,-0.0611,0.0404,0.1058,10.06,87.50,99.31,-1.7875,9.3933,0.5148,9.5757
3,2,1,3,1,03.962,3962,-1.4300,9.5800,0.2700,9.6899,-0.0458,0.0251,-0.0436,9.88,87.88,99.13,-1.7404,9.4179,0.4826,9.5895
3,2,1,3,1,04.093,4093,-1.4800,9.8200,0.2200,9.9333,-0.0229,0.0207,-0.0033,9.75,88.06,99.06,-1.7061,9.4709,0.4480,9.6337
3,2,1,3,1,04.223,4223,-1.2300,9.4800,0.2600,9.5630,-0.0098,0.0218,0.0436,9.69,88.19,98.94,-1.6433,9.4721,0.4232,9.6229
3,2,1,3,1,04.353,4353,-1.5600,9.6700,0.2200,9.7975,0.0022,0.0164,0.0873,9.44,88.13,99.06,-1.6324,9.4982,0.3964,9.6455
3,2,1,3,1,04.526,4526,-1.0000,9.3800,0.3600,9.4400,0.0142,0.0109,0.1091,8.63,88.13,99.81,-1.5490,9.4826,0.3916,9.6162
3,2,1,3,1,04.656,4656,-0.6100,8.0700,0.3100,8.0990,0.0327,0.0044,0.0360,9.00,88.00,99.50,-1.4253,9.2964,0.3809,9.4128
3,2,1,3,1,04.786,4786,-2.4500,8.1300,0.1900,8.4933,0.0131,-0.0087,0.0033,10.31,87.81,98.31,-1.5603,9.1427,0.3557,9.2817
3,2,1,3,1,04.916,4916,-1.3200,8.9800,-0.0200,9.0765,0.0425,0.0185,0.3283,9.44,87.63,99.19,-1.5287,9.1213,0.3062,9.2536
3,2,1,3,1,05.046,5046,-2.0000,9.1300,0.4600,9.3578,-0.0185,-0.0415,-0.2094,9.00,87.50,99.75,-1.5908,9.1224,0.3265,9.2658
3,2,1,3,1,05.176,5176,-0.8000,9.0600,0.5200,9.1101,0.0262,-0.0327,-0.0044,8.81,87.44,100.13,-1.4866,9.1142,0.3520,9.2414
3,2,1,3,1,05.306,5306,-1.1400,9.5000,0.3300,9.5738,-0.0087,-0.0415,0.1222,8.63,87.44,100.63,-1.4409,9.1650,0.3491,9.2842
3,2,1,3,1,05.437,5437,-0.5800,9.4100,0.4900,9.4406,0.0284,-0.0338,0.1822,8.38,87.38,101.25,-1.3275,9.1973,0.3676,9.2999
3,2,1,3,1,05.610,5610,-1.4200,10.8200,0.3200,10.9175,0.0164,-0.0600,0.0229,7.56,87.25,102.56,-1.3396,9.4112,0.3614,9.5129
3,2,1,3,1,05.741,5741,-0.6000,11.2200,0.5600,11.2500,0.0153,-0.0502,0.0229,7.19,87.25,103.31,-1.2422,9.6495,0.3875,9.7369
3,2,1,3,1,05.872,5872,-1.3600,10.7500,0.4400,10.8446,-0.0044,-0.0556,0.0502,7.50,87.25,103.44,-1.2577,9.7945,0.3945,9.8828
3,2,1,3,1,06.003,6003,-1.6500,10.4800,0.7200,10.6335,0.0251,-0.0425,-0.3523,7.81,87.19,103.50,-1.3094,9.8849,0.4374,9.9808
3,2,1,3,1,06.134,6134,-1.5600,8.3600,0.3000,8.5096,0.0425,-0.0262,-0.1625,9.00,86.94,102.50,-1.3424,9.6839,0.4193,9.7855
3,2,1,3,1,06.269,6269,-1.5100,9.2900,0.4400,9.4222,0.0404,0.0098,0.0709,9.75,86.63,101.94,-1.3645,9.6320,0.4220,9.7373
3,2,1,3,1,06.400,6400,-1.7000,10.4300,0.6600,10.5882,0.0654,0.0229,-0.0153,9.31,86.19,102.31,-1.4087,9.7372,0.4534,9.8490
3,2,1,3,1,06.530,6530,-2.2700,11.7300,0.8300,11.9764,0.0589,0.0480,0.0818,9.25,85.63,102.13,-1.5222,9.9998,0.5030,10.1275
3,2,1,3,1,06.703,6703,-2.7300,10.4800,0.8400,10.8623,0.0131,0.0545,-0.4058,9.75,85.19,101.19,-1.6814,10.0631,0.5474,10.2172
3,2,1,3,1,06.834,6834,-1.9500,9.2800,0.9000,9.5253,-0.0065,0.0916,-0.0273,10.69,85.06,99.63,-1.7168,9.9599,0.5939,10.1242
3,2,1,3,1,06.964,6964,-2.0500,9.7900,0.9700,10.0493,-0.0545,0.0720,-0.1134,10.31,85.19,99.38,-1.7607,9.9375,0.6434,10.1127
3,2,1,3,1,07.095,7095,-1.4600,9.2100,0.6600,9.3483,-0.0709,0.0589,-0.0371,10.44,85.56,98.63,-1.7211,9.8416,0.6456,10.0118
3,2,1,3,1,07.226,7226,-1.1900,8.4300,0.2900,8.5185,-0.0840,0.0305,-0.0055,10.88,86.06,97.75,-1.6511,9.6556,0.5987,9.8140
3,2,1,3,1,07.357,7357,-2.1500,8.0800,0.3500,8.3685,-0.0862,0.0153,-0.0404,11.38,86.81,97.06,-1.7168,9.4480,0.5660,9.6194
3,2,1,3,1,07.487,7487,-1.6100,8.2300,0.3200,8.3921,-0.0556,0.0087,0.2051,10.75,87.38,97.50,-1.7027,9.2875,0.5336,9.4573
3,2,1,3,1,07.619,7619,-0.6400,8.6100,0.1300,8.6347,-0.0524,-0.0273,-0.0404,9.50,87.75,98.75,-1.5627,9.1982,0.4804,9.3424
3,3,1,3,1,07.792,7792,-1.3500,10.2400,0.2300,10.3312,0.0065,-0.0404,0.1134,9.31,88.00,99.25,-1.5347,9.3355,0.4474,9.4714
3,3,1,3,1,07.924,7924,-1.9500,9.6300,0.4400,9.8353,0.0535,-0.0535,0.0469,9.56,87.75,99.44,-1.5894,9.3743,0.4464,9.5186
3,3,1,3,1,08.055,8055,-0.9500,9.5400,0.3700,9.5943,0.0654,-0.0665,0.1113,9.25,87.38,100.25,-1.5051,9.3961,0.4363,9.5259
3,3,1,3,1,08.185,8185,-1.4500,9.5300,0.4700,9.6511,0.0665,-0.0654,0.0818,8.94,87.00,101.19,-1.4979,9.4138,0.4408,9.5424
3,3,1,3,1,08.331,8331,-0.9900,9.3900,0.6200,9.4624,0.0393,-0.0644,-0.0011,8.38,86.69,102.31,-1.4310,9.4106,0.4644,9.5301
3,3,1,3,1,08.465,8465,-1.1000,9.2200,0.5100,9.2994,-0.0251,-0.0360,0.0654,8.38,86.69,102.69,-1.3873,9.3855,0.4704,9.4992
3,3,1,3,1,08.597,8597,-1.3700,9.4700,0.6200,9.5886,-0.0742,-0.0295,-0.0644,8.38,87.13,102.88,-1.3851,9.3967,0.4901,9.5108
3,3,1,3,1,08.727,8727,-1.1500,8.9700,0.5500,9.0601,-0.0382,-0.0196,-0.1025,8.56,87.56,102.75,-1.3541,9.3404,0.4980,9.4512
3,3,1,3,1,08.900,8900,-1.0100,7.3500,0.0000,7.4191,0.0338,0.0207,0.0993,9.94,87.75,101.38,-1.3087,9.0781,0.4324,9.1822
3,3,1,3,1,09.031,9031,-0.3100,7.4600,0.1100,7.4672,0.0011,0.0098,0.1571,9.94,87.63,101.38,-1.1771,8.8649,0.3899,8.9512
3,3,1,3,1,09.161,9161,-0.8000,9.0100,0.4500,9.0566,-0.0240,-0.0327,-0.5181,9.31,87.56,101.94,-1.1274,8.8840,0.3978,8.9641
3,3,1,3,1,09.292,9292,-1.4600,8.7600,0.4600,8.8927,0.0131,-0.0273,-0.1451,11.31,87.69,100.06,-1.1713,8.8677,0.4060,8.9539
3,3,1,3,1,09.422,9422,-1.6700,10.0600,0.4500,10.2076,0.0251,0.0076,0.4832,11.44,87.75,100.06,-1.2370,9.0248,0.4118,9.1185
3,3,1,3,1,09.555,9555,-1.5900,10.2800,0.1900,10.4040,0.0098,-0.0513,0.1593,10.25,87.69,101.56,-1.2835,9.1902,0.3826,9.2873
3,3,1,3,1,09.686,9686,-2.2200,11.0500,0.2000,11.2726,0.0120,-0.0535,-0.1429,9.44,87.63,102.69,-1.4069,9.4353,0.3585,9.5463
3,3,1,3,1,09.820,9820,-3.9600,12.1400,0.2500,12.7720,-0.0262,-0.0905,-0.5531,8.75,87.69,103.69,-1.7433,9.7917,0.3442,9.9516
3,3,1,3,1,09.992,9992,-1.4000,10.1100,0.4300,10.2155,-0.0022,-0.0273,-0.1353,8.19,87.63,104.56,-1.6981,9.8336,0.3555,9.9855
3,3,1,3,1,10.122,10122,-2.5000,8.0200,0.3600,8.4083,0.0076,-0.0262,-0.4265,9.38,87.56,103.50,-1.8038,9.5946,0.3561,9.7692
3,3,1,3,1,10.252,10252,-1.7600,8.8700,0.4400,9.0536,0.0065,0.0175,0.0305,9.88,87.50,103.00,-1.7980,9.4992,0.3672,9.6748
3,3,1,3,1,10.383,10383,-2.7100,12.5300,0.7900,12.8440,0.0164,0.0382,0.0884,9.44,87.38,103.19,-1.9182,9.8985,0.4229,10.0916
3,3,1,3,1,10.513,10513,-2.1400,12.9300,0.5700,13.1183,0.0065,0.0055,-0.5672,8.44,87.13,103.94,-1.9474,10.2980,0.4423,10.4899
3,3,1,3,1,10.643,10643,-2.2800,9.3900,0.7000,9.6882,0.0175,0.0251,-0.4821,11.00,87.06,101.13,-1.9912,10.1784,0.4762,10.3822
3,3,1,3,1,10.774,10774,-3.2000,9.3000,0.0800,9.8355,-0.0164,0.0644,0.1276,12.19,87.00,99.56,-2.1505,10.0626,0.4240,10.2986
3,3,1,3,1,10.904,10904,-0.3400,8.9100,0.4800,8.9294,0.0022,0.0829,0.3392,11.31,87.00,100.00,-1.9119,9.9107,0.4314,10.1027
3,3,1,3,1,11.077,11077,-3.0000,9.1400,0.2200,9.6223,-0.0545,0.0447,0.0251,11.94,87.19,98.88,-2.0553,9.8092,0.4035,10.0303
3,3,1,3,1,11.208,11208,-0.6900,6.8800,0.1700,6.9166,-0.0327,0.0120,-0.1756,12.38,87.38,98.13,-1.8754,9.4232,0.3728,9.6152
3,3,1,3,1,11.339,11339,-2.8100,8.0500,0.3300,8.5327,-0.0535,0.0251,0.2007,12.38,87.63,97.94,-1.9986,9.2422,0.3671,9.4630
3,3,1,3,1,11.469,11469,-0.8800,8.5400,0.5900,8.6055,0.0142,0.0305,0.4963,10.81,87.75,99.31,-1.8512,9.1497,0.3965,9.3435
3,4,1,3,1,11.600,11600,-2.0200,9.6200,0.3300,9.8353,-0.0022,-0.0033,0.0327,9.81,87.81,100.25,-1.8734,9.2117,0.3877,9.4082
3,4,1,3,1,11.731,11731,-1.2600,9.1900,0.4400,9.2864,0.0098,-0.0295,-0.4080,8.81,87.75,101.31,-1.7926,9.2088,0.3946,9.3900
3,4,1,3,1,11.866,11866,-0.9900,9.8800,0.2800,9.9334,0.0262,-0.0065,0.0644,7.88,87.69,102.25,-1.6868,9.2973,0.3795,9.4567
3,4,1,3,1,11.997,11997,-0.9800,9.6600,0.4700,9.7210,0.0251,-0.0240,-0.1887,7.56,87.50,102.69,-1.5937,9.3451,0.3914,9.4881
3,4,1,3,1,12.170,12170,-0.5800,9.7400,0.4100,9.7659,0.0273,-0.0055,0.0338,7.13,87.13,103.19,-1.4601,9.3971,0.3939,9.5180
3,4,1,3,1,12.300,12300,-0.5600,9.5000,0.5500,9.5324,0.0251,-0.0120,0.0436,7.06,86.94,103.38,-1.3415,9.4107,0.4145,9.5148
3,4,1,3,1,12.430,12430,-0.7300,9.4200,0.5500,9.4642,-0.0087,-0.0055,-0.0022,7.31,86.94,103.19,-1.2609,9.4119,0.4323,9.5058
3,4,1,3,1,12.560,12560,-0.6700,9.5700,0.5300,9.6081,-0.0305,0.0011,0.0665,7.00,87.13,103.44,-1.1830,9.4327,0.4452,9.5170
3,4,1,3,1,12.690,12690,-0.6800,8.4500,0.2900,8.4823,-0.0185,0.0055,0.0687,6.81,87.31,103.63,-1.1168,9.3032,0.4247,9.3796
3,4,1,3,1,12.820,12820,-0.9600,7.2200,0.2100,7.2866,-0.0262,0.0065,-0.0044,7.44,87.44,102.94,-1.0961,9.0287,0.3964,9.1036
3,4,1,3,1,12.951,12951,-2.0000,8.0400,0.1500,8.2864,0.0011,0.0076,0.0851,8.38,87.44,102.06,-1.2152,8.8984,0.3640,8.9884
3,4,1,3,1,13.081,13081,-1.5600,9.7600,0.4500,9.8941,0.0120,-0.0098,-0.1396,8.06,87.38,102.38,-1.2606,9.0120,0.3753,9.1074
3,4,1,3,1,13.254,13254,-4.4600,10.5700,0.4200,11.4801,0.0262,-0.0404,-0.4080,9.50,87.06,101.13,-1.6822,9.2173,0.3812,9.3773
3,4,1,3,1,13.384,13384,0.3900,9.6100,0.7400,9.6463,0.0556,-0.0120,-0.0393,8.38,86.69,102.25,-1.4092,9.2690,0.4285,9.3853
3,4,1,3,1,13.514,13514,-2.2600,10.7600,0.5800,11.0101,0.0218,-0.0142,-0.0393,9.00,86.44,101.88,-1.5213,9.4655,0.4484,9.5974
3,4,1,3,1,13.644,13644,-1.9300,11.4000,0.8100,11.5906,0.0305,-0.0022,0.1789,9.00,86.19,101.94,-1.5751,9.7204,0.4961,9.8597
3,4,1,3,1,13.774,13774,-1.5600,10.3200,0.8400,10.4710,0.0404,0.0185,-0.0349,9.13,85.94,101.75,-1.5732,9.7994,0.5414,9.9396
3,4,1,3,1,13.904,13904,-1.7500,10.4400,0.6700,10.6068,0.0142,0.0196,-0.0065,8.75,85.69,102.06,-1.5965,9.8838,0.5584,10.0275
3,4,1,3,1,14.034,14034,-1.9800,9.2700,0.8400,9.5162,-0.0022,0.0033,-0.3665,9.44,85.56,101.19,-1.6470,9.8029,0.5955,9.9582
3,4,1,3,1,14.165,14165,-2.1100,8.3800,0.7600,8.6749,0.0000,0.0327,0.0185,9.94,85.50,100.50,-1.7080,9.6154,0.6171,9.7854
3,4,1,3,1,14.338,14338,-1.1400,11.7000,0.9300,11.7921,-0.0524,0.0469,0.0873,8.69,85.63,101.25,-1.6332,9.8901,0.6584,10.0457
3,4,1,3,1,14.471,14471,-0.8600,13.1400,1.0900,13.2131,-0.0382,0.0578,0.0851,7.13,85.94,102.38,-1.5313,10.3184,0.7153,10.4559
3,4,1,3,1,14.602,14602,-1.7600,9.8000,0.5800,9.9737,-0.0796,0.0207,-0.3371,8.38,86.38,100.81,-1.5614,10.2501,0.6974,10.3917
3,4,1,3,1,14.736,14736,-1.5000,9.4500,0.3700,9.5755,-0.0927,0.0415,0.1233,9.25,86.94,99.56,-1.5533,10.1446,0.6543,10.2837
3,4,1,3,1,14.867,14867,-1.6900,10.1200,-0.0800,10.2605,-0.0916,0.0131,-0.1342,8.56,87.56,99.94,-1.5713,10.1414,0.5575,10.2775
3,4,1,3,1,14.998,14998,-2.0600,10.0400,0.0900,10.2496,0.0000,0.0644,0.6534,8.13,88.00,100.13,-1.6357,10.1280,0.4959,10.2713
3,4,1,3,1,15.128,15128,1.6900,7.2200,0.1600,7.4169,-0.0404,0.0164,0.1876,7.81,88.31,100.31,-1.1975,9.7448,0.4516,9.8285
3,4,1,3,1,15.258,15258,-1.4600,7.6100,-0.0900,7.7493,-0.0185,0.0065,0.1342,9.00,88.63,99.25,-1.2321,9.4635,0.3803,9.5510
3,4,1,3,1,15.431,15431,-1.4700,9.4500,0.0900,9.5641,-0.0164,0.0120,0.3022,9.31,88.81,99.00,-1.2634,9.4617,0.3420,9.5518
3,4,1,3,1,15.561,15561,-0.1800,9.4700,0.3700,9.4789,0.0327,-0.0011,0.2651,8.25,88.69,100.13,-1.1207,9.4628,0.3457,9.5352
3,4,1,3,1,15.691,15691,-0.2600,9.7100,0.2200,9.7160,0.0502,-0.0033,0.2847,6.94,88.38,101.56,-1.0072,9.4954,0.3291,9.5543
3,4,1,3,1,15.821,15821,-0.2700,9.5200,0.3900,9.5318,0.0447,-0.0131,0.0938,6.19,88.00,102.44,-0.9101,9.4986,0.3372,9.5481
3,4,1,3,1,15.951,15951,-1.1600,9.4400,0.3900,9.5190,0.0273,0.0044,0.0622,6.19,87.81,102.50,-0.9430,9.4909,0.3441,9.5439
3,4,1,3,1,16.081,16081,-0.3000,9.5500,0.2600,9.5582,0.0065,0.0142,0.0436,5.63,87.69,102.94,-0.8583,9.4987,0.3330,9.5432
3,4,1,3,1,16.211,16211,-0.5600,9.6800,0.4200,9.7053,-0.0022,0.0229,0.0076,5.44,87.69,103.06,-0.8190,9.5226,0.3445,9.5639
3,4,1,3,1,16.342,16342,-0.5000,9.6500,0.5000,9.6759,0.0065,0.0305,0.1593,5.19,87.69,103.13,-0.7770,9.5394,0.3650,9.5779
3,4,1,3,1,16.515,16515,-0.0800,8.8800,0.4900,8.8939,0.0295,0.0164,0.0120,5.06,87.50,103.06,-0.6851,9.4525,0.3815,9.4850
3,4,1,3,1,16.645,16645,-0.8600,8.2000,0.3300,8.2516,0.0044,-0.0022,-0.1756,6.25,87.38,101.88,-0.7082,9.2874,0.3747,9.3219
3,4,1,3,1,16.776,16776,-1.2700,7.8500,0.2500,7.9560,0.0218,0.0033,-0.2945,7.25,87.25,100.81,-0.7822,9.0980,0.3583,9.1386
3,4,1,3,1,16.907,16907,-1.2300,8.0900,0.4100,8.1932,-0.0011,-0.0087,-0.2225,7.81,87.13,100.25,-0.8412,8.9652,0.3651,9.0120
3,5,1,3,1,17.037,17037,-0.9800,9.0700,0.5900,9.1418,0.0120,0.0011,-0.1614,7.88,87.13,100.06,-0.8595,8.9790,0.3947,9.0287
3,5,1,3,1,17.171,17171,-1.5900,9.3600,0.5300,9.5089,0.0109,-0.0098,0.0196,8.75,87.06,99.25,-0.9558,9.0292,0.4125,9.0890
3,5,1,3,1,17.305,17305,-0.6700,9.6000,0.6800,9.6473,0.0349,-0.0251,0.0982,8.19,87.00,100.00,-0.9181,9.1044,0.4478,9.1615
3,5,1,3,1,17.435,17435,-1.6300,11.4300,0.6800,11.5656,0.0087,-0.0524,0.0076,7.56,87.00,100.88,-1.0119,9.4109,0.4784,9.4772
3,5,1,3,1,17.608,17608,-0.9900,11.7900,0.7500,11.8552,0.0338,-0.0360,0.0916,6.63,87.00,102.38,-1.0090,9.7244,0.5142,9.7901
3,5,1,3,1,17.738,17738,-1.1600,10.8400,0.5200,10.9143,0.0349,-0.0327,0.0644,6.94,86.81,102.38,-1.0289,9.8714,0.5149,9.9382
3,5,1,3,1,17.868,17868,-1.3000,9.5200,0.3800,9.6159,0.0207,-0.0535,-0.4429,7.63,86.63,102.06,-1.0646,9.8251,0.4972,9.8951
3,5,1,3,1,17.998,17998,-2.0900,8.4600,0.4500,8.7259,0.0055,-0.0349,-0.1636,8.69,86.50,101.25,-1.1998,9.6452,0.4909,9.7319
3,5,1,3,1,18.128,18128,-1.4400,9.5500,0.7000,9.6833,0.0055,-0.0011,0.2018,8.25,86.50,101.75,-1.2314,9.6327,0.5185,9.7249
3,5,1,3,1,18.258,18258,-0.8500,11.2400,0.9100,11.3088,0.0055,0.0327,0.5040,7.75,86.56,102.31,-1.1812,9.8445,0.5701,9.9314
3,5,1,3,1,18.389,18389,-2.4600,12.4900,0.5200,12.7406,-0.0284,-0.0098,-0.3207,7.63,86.69,102.38,-1.3497,10.1931,0.5635,10.2975
3,5,1,3,1,18.519,18519,-1.0100,9.7300,0.8400,9.8183,-0.0185,0.0175,-0.0044,8.31,86.81,101.63,-1.3049,10.1321,0.5999,10.2333
3,5,1,3,1,18.692,18692,-0.8900,9.9300,0.2500,9.9729,-0.0436,0.0393,0.1593,8.81,87.19,100.94,-1.2502,10.1054,0.5538,10.1975
3,5,1,3,1,18.823,18823,-2.4800,9.9700,0.5100,10.2865,-0.0644,-0.0175,-0.4865,9.13,87.44,100.44,-1.4123,10.0876,0.5480,10.2007
3,5,1,3,1,18.953,18953,-2.0100,10.0800,0.2800,10.2823,-0.0371,0.0229,0.2258,9.38,87.81,100.06,-1.4911,10.0866,0.5127,10.2091
3,5,1,3,1,19.085,19085,2.3700,7.7300,0.3400,8.0923,-0.0338,0.0175,0.1887,8.88,88.13,100.50,-0.9823,9.7760,0.4900,9.8375
3,5,1,3,1,19.216,19216,-0.8500,7.7200,0.1900,7.7690,-0.0622,-0.0316,-0.1691,9.31,88.63,100.06,-0.9648,9.5051,0.4504,9.5646
3,5,1,3,1,19.351,19351,-1.5400,7.6500,0.0000,7.8035,-0.0469,-0.0065,0.1047,9.50,89.00,99.94,-1.0406,9.2607,0.3911,9.3271
3,6,1,3,1,19.482,19482,-1.2600,9.5200,-0.0300,9.6031,-0.0491,-0.0218,0.1298,7.81,89.31,101.63,-1.0695,9.2948,0.3356,9.3622
3,6,1,3,1,19.613,19613,-2.3700,9.6100,0.2300,9.9006,-0.0065,-0.0371,-0.0273,7.69,89.44,102.00,-1.2409,9.3364,0.3217,9.4240
3,6,1,3,1,19.785,19785,-0.4500,9.5700,0.0000,9.5806,0.0393,-0.0218,0.1004,6.56,89.25,103.31,-1.1367,9.3672,0.2793,9.4400
3,6,1,3,1,19.916,19916,-1.2400,9.6500,0.0700,9.7296,0.0458,-0.0316,-0.2400,7.00,89.00,103.19,-1.1503,9.4044,0.2517,9.4779
3,6,1,3,1,20.046,20046,-1.1200,9.5300,0.1600,9.5969,0.0513,0.0098,0.0982,7.19,88.63,103.06,-1.1463,9.4210,0.2396,9.4935
3,6,1,3,1,20.177,20177,-0.9900,9.4300,0.3300,9.4876,0.0327,0.0011,-0.1254,7.38,88.31,102.88,-1.1257,9.4222,0.2515,9.4925
3,6,1,3,1,20.307,20307,-1.4500,9.5200,0.3300,9.6354,0.0229,0.0185,-0.0273,7.81,88.13,102.38,-1.1684,9.4351,0.2619,9.5107
3,6,1,3,1,20.438,20438,-0.6500,8.8300,0.3300,8.8600,0.0218,0.0142,-0.0807,8.13,87.94,102.00,-1.1001,9.3553,0.2708,9.4237
3,6,1,3,1,20.569,20569,-0.6100,7.8800,0.3000,7.9093,0.0262,0.0196,-0.0458,9.25,87.81,100.81,-1.0355,9.1609,0.2747,9.2233
3,6,1,3,1,20.699,20699,-1.0700,7.7700,0.1500,7.8448,0.0240,-0.0175,-0.2105,9.69,87.63,100.44,-1.0401,8.9776,0.2583,9.0414
3,6,1,3,1,20.872,20872,-0.2600,7.5500,0.6700,7.5841,0.0065,-0.0578,-0.3752,10.31,87.31,99.94,-0.9373,8.7895,0.3125,8.8449
3,6,1,3,1,21.006,21006,-1.8500,10.4500,0.4000,10.6200,0.0196,0.0207,0.4352,11.13,87.31,99.31,-1.0576,9.0083,0.3240,9.0760
3,6,1,3,1,21.137,21137,-2.0500,9.6000,0.3400,9.8223,-0.0175,-0.0404,0.0807,11.50,87.19,99.19,-1.1883,9.0863,0.3261,9.1695
3,6,1,3,1,21.268,21268,-2.2300,10.8100,0.4400,11.0464,0.0087,-0.0284,0.2574,11.38,87.19,99.50,-1.3256,9.3134,0.3412,9.4135
3,6,1,3,1,21.398,21398,-2.0200,11.3000,0.8100,11.5077,0.0229,-0.0185,0.1484,10.88,87.19,100.25,-1.4171,9.5752,0.4029,9.6879
3,6,1,3,1,21.529,21529,-2.2200,12.8200,0.6000,13.0246,-0.0316,-0.0480,-0.2105,10.06,87.25,101.25,-1.5229,10.0028,0.4289,10.1271
3,6,1,3,1,21.659,21659,-1.0600,9.6300,0.5800,9.7055,0.0109,-0.0120,-0.1953,11.19,87.25,100.25,-1.4619,9.9537,0.4488,10.0705
3,6,1,3,1,21.790,21790,-1.1900,7.4500,0.2100,7.5474,-0.0055,0.0196,0.0873,12.75,87.25,98.75,-1.4261,9.6237,0.4173,9.7378
3,6,1,3,1,21.963,21963,-0.9100,9.4000,0.5600,9.4605,0.0044,0.0447,0.2476,12.50,87.25,98.81,-1.3581,9.5943,0.4361,9.6997
3,6,1,3,1,22.097,22097,-1.9100,10.8500,0.3300,11.0218,-0.0273,0.0316,0.0720,12.00,87.31,99.06,-1.4308,9.7597,0.4222,9.8731
3,6,1,3,1,22.228,22228,-2.0800,12.6200,0.3600,12.7953,-0.0535,0.0305,0.0196,10.75,87.56,100.00,-1.5163,10.1366,0.4140,10.2578
3,6,1,3,1,22.361,22361,-2.3800,10.0100,0.3500,10.2950,-0.0589,0.0316,-0.1069,11.06,88.00,99.38,-1.6302,10.1200,0.4055,10.2584
3,6,1,3,1,22.492,22492,-0.0900,9.4700,0.3300,9.4762,-0.0338,0.0305,-0.1287,11.13,88.31,99.00,-1.4272,10.0343,0.3956,10.1430
3,6,1,3,1,22.623,22623,-4.0100,10.5100,0.2200,11.2512,-0.0360,0.0087,-0.1734,13.44,88.63,96.63,-1.7675,10.0970,0.3724,10.2573
3,6,1,3,1,22.753,22753,-0.8100,8.6200,0.1100,8.6587,0.0033,0.0436,0.2465,13.38,88.69,96.44,-1.6414,9.9024,0.3379,10.0432
3,6,1,3,1,22.883,22883,-1.5900,7.3500,0.5100,7.5373,0.0175,-0.0251,-0.3218,13.31,88.56,96.44,-1.6346,9.5660,0.3605,9.7114
3,6,1,3,1,23.056,23056,-1.7700,7.6600,0.3900,7.8715,0.0502,-0.0098,0.0971,12.50,88.38,97.25,-1.6524,9.3149,0.3644,9.4673
3,6,1,3,1,23.187,23187,-1.8400,7.8800,-0.2500,8.0958,0.0044,0.0109,0.3971,10.81,88.25,99.00,-1.6772,9.1258,0.2835,9.2829
3,6,1,3,1,23.317,23317,-0.1000,9.1100,0.1900,9.1125,0.0185,0.0131,0.3971,8.38,88.13,101.38,-1.4693,9.1237,0.2711,9.2452
3,7,1,3,1,23.448,23448,0.0300,9.3800,0.3300,9.3859,0.0229,-0.0098,-0.1396,6.56,88.00,103.13,-1.2718,9.1575,0.2789,9.2496
3,7,1,3,1,23.579,23579,-0.9700,9.6700,0.5400,9.7335,0.0218,0.0262,0.3862,7.94,87.94,101.81,-1.2320,9.2250,0.3133,9.3122
3,7,1,3,1,23.711,23711,-1.4100,9.2200,0.3600,9.3341,0.0229,0.0076,-0.0436,7.00,87.81,102.63,-1.2554,9.2244,0.3195,9.3149
3,7,1,3,1,23.841,23841,-0.9500,9.6000,0.5300,9.6614,0.0175,0.0000,-0.0884,6.44,87.75,103.13,-1.2152,9.2739,0.3472,9.3596
3,7,1,3,1,23.976,23976,-0.5900,9.6100,0.5500,9.6438,0.0120,0.0207,0.0382,6.00,87.63,103.44,-1.1328,9.3181,0.3739,9.3942
3,7,1,3,1,24.149,24149,-0.5700,9.5800,0.5200,9.6110,0.0131,0.0218,0.1505,5.50,87.50,103.81,-1.0586,9.3527,0.3932,9.4206
3,7,1,3,1,24.279,24279,-0.9800,9.4600,0.4300,9.5203,0.0153,0.0065,0.0229,4.94,87.38,104.31,-1.0483,9.3668,0.3980,9.4337
3,7,1,3,1,24.409,24409,-0.5600,9.6800,0.3700,9.7032,0.0131,0.0131,0.0873,4.31,87.25,104.88,-0.9839,9.4081,0.3943,9.4676
3,7,1,3,1,24.539,24539,0.0400,9.2100,0.4300,9.2201,0.0000,0.0185,0.0589,3.81,87.25,105.31,-0.8490,9.3820,0.3990,9.4288
3,7,1,3,1,24.669,24669,0.2100,7.1300,0.4500,7.1473,-0.0011,-0.0065,-0.3534,4.63,87.25,104.38,-0.7095,9.0852,0.4058,9.1219
3,7,1,3,1,24.800,24800,-0.5100,7.4600,0.5800,7.4999,0.0087,-0.0044,-0.1713,6.88,87.31,102.25,-0.6832,8.8711,0.4287,8.9076
3,7,1,3,1,24.930,24930,0.8900,8.7800,0.3400,8.8315,0.0185,0.0164,0.3425,7.19,87.44,101.94,-0.4759,8.8591,0.4170,8.8816
3,7,1,3,1,25.061,25061,-0.7100,8.9700,0.4500,9.0093,-0.0185,-0.0469,-0.1429,7.44,87.38,101.88,-0.5067,8.8737,0.4214,8.8981
3,7,1,3,1,25.234,25234,-1.5100,9.6300,0.6200,9.7674,-0.0087,-0.0404,0.1287,7.63,87.44,102.06,-0.6389,8.9733,0.4475,9.0072
3,7,1,3,1,25.364,25364,-1.8000,10.8400,0.5400,11.0017,0.0142,-0.0567,-0.0469,6.31,87.38,103.63,-0.7919,9.2193,0.4597,9.2647
3,7,1,3,1,25.495,25495,0.4200,11.3300,0.6900,11.3588,0.0480,0.0164,0.9327,5.81,87.31,104.44,-0.6322,9.4975,0.4901,9.5311
3,7,1,3,1,25.625,25625,-4.0100,13.1500,0.5300,13.7580,0.0033,-0.0535,-0.2825,6.44,87.19,104.13,-1.0773,9.9788,0.4953,10.0490
3,7,1,3,1,25.757,25757,-1.5900,9.5800,0.4500,9.7215,0.0327,-0.0131,-0.2149,6.69,87.00,104.00,-1.1449,9.9262,0.4894,10.0040
3,7,1,3,1,25.887,25887,-1.4900,7.7800,0.2500,7.9253,0.0044,0.0044,-0.0469,7.50,86.88,103.25,-1.1904,9.6434,0.4578,9.7274
3,7,1,3,1,26.019,26019,-1.0900,9.3500,0.6500,9.4357,-0.0196,0.0284,0.1320,7.00,87.00,103.69,-1.1771,9.6047,0.4831,9.6887
3,7,1,3,1,26.149,26149,-1.1700,11.8800,0.7500,11.9610,-0.0338,0.0447,0.1811,6.13,87.13,104.25,-1.1762,9.9046,0.5183,9.9876
3,7,1,3,1,26.324,26324,-1.4800,11.4600,0.4300,11.5632,-0.0316,0.0469,-0.0764,4.50,87.38,105.31,-1.2162,10.1095,0.5067,10.1950
3,7,1,3,1,26.455,26455,-1.2800,10.1800,0.5200,10.2733,-0.0142,0.0447,-0.0840,4.31,87.50,105.13,-1.2246,10.1188,0.5084,10.2053
3,7,1,3,1,26.586,26586,-0.5900,10.3400,0.2700,10.3603,-0.0044,0.0284,-0.0393,4.63,87.50,104.50,-1.1410,10.1480,0.4770,10.2230
3,7,1,3,1,26.716,26716,-0.1300,9.1600,0.2200,9.1636,0.0087,0.0240,-0.2007,5.00,87.50,103.94,-1.0078,10.0178,0.4431,10.0781
3,7,1,3,1,26.846,26846,-2.5100,9.8600,0.3700,10.1812,-0.0829,-0.0164,-0.5029,6.38,87.63,102.44,-1.2057,9.9970,0.4335,10.0788
3,7,1,3,1,26.992,26992,-0.8300,7.0000,0.1200,7.0501,0.0436,0.0382,0.2193,7.81,87.63,100.88,-1.1562,9.6021,0.3922,9.6794
3,7,1,3,1,27.126,27126,-1.0400,7.0600,0.3400,7.1443,-0.0022,-0.0185,-0.1462,7.44,87.69,101.13,-1.1409,9.2671,0.3853,9.3450
3,8,1,3,1,27.258,27258,0.0300,9.6000,0.6700,9.6234,0.0055,-0.0065,-0.0600,7.38,87.69,101.19,-0.9866,9.3109,0.4228,9.3726
3,8,1,3,1,27.430,27430,-2.3500,9.6100,0.4000,9.9012,-0.0033,-0.0153,-0.0098,8.38,87.56,100.38,-1.1663,9.3504,0.4198,9.4322
3,8,1,3,1,27.560,27560,-0.8600,9.3400,0.4100,9.3885,-0.0076,-0.0415,-0.3709,7.25,87.56,101.56,-1.1259,9.3490,0.4185,9.4258
3,8,1,3,1,27.690,27690,-0.1400,9.4400,0.4700,9.4527,-0.0175,-0.0011,0.1527,7.44,87.69,101.44,-0.9960,9.3610,0.4253,9.4234
3,8,1,3,1,27.820,27820,-1.2700,9.5500,0.4100,9.6428,-0.0316,-0.0098,-0.0142,7.19,87.88,101.75,-1.0321,9.3859,0.4233,9.4520
3,8,1,3,1,27.950,27950,-1.1400,9.4700,0.3000,9.5431,-0.0295,0.0055,0.1374,6.56,88.13,102.31,-1.0463,9.3970,0.4070,9.4638
3,8,1,3,1,28.081,28081,-0.8900,9.7200,0.2900,9.7650,-0.0360,-0.0044,0.0164,6.25,88.44,102.56,-1.0257,9.4395,0.3916,9.5032
3,8,1,3,1,28.211,28211,-0.7500,9.7700,0.3500,9.8050,-0.0251,0.0022,-0.0011,5.94,88.63,102.88,-0.9894,9.4831,0.3861,9.5424
3,8,1,3,1,28.342,28342,-0.9900,9.6200,0.2900,9.6752,-0.0065,0.0011,0.0011,5.88,88.69,102.88,-0.9895,9.5011,0.3735,9.5598
3,8,1,3,1,28.514,28514,-0.3900,9.3000,0.2100,9.3105,0.0087,0.0000,-0.0382,5.50,88.69,103.31,-0.9105,9.4746,0.3519,9.5248
3,8,1,3,1,28.644,28644,-1.3500,7.9700,0.1900,8.0858,0.0109,-0.0044,-0.0916,6.63,88.63,102.19,-0.9684,9.2764,0.3306,9.3326
3,8,1,3,1,28.774,28774,-0.3500,7.5600,0.1000,7.5688,0.0076,0.0087,0.0349,7.75,88.63,101.06,-0.8869,9.0502,0.3002,9.0985
3,8,1,3,1,28.904,28904,-1.6100,8.2000,0.0600,8.3568,-0.0142,-0.0229,-0.2007,8.94,88.69,100.00,-0.9822,8.9382,0.2686,8.9960
3,8,1,3,1,29.034,29034,-0.6700,9.3900,0.1500,9.4151,0.0098,-0.0011,0.1036,9.06,88.81,99.94,-0.9411,8.9977,0.2529,9.0503
3,8,1,3,1,29.164,29164,-2.5500,9.7700,0.2100,10.0995,-0.0415,-0.0305,0.0578,10.06,88.88,99.13,-1.1531,9.0995,0.2473,9.1756
3,8,1,3,1,29.295,29295,-2.3400,10.9300,0.1400,11.1786,0.0131,-0.0044,0.1669,9.44,88.94,99.88,-1.3095,9.3407,0.2331,9.4349
3,8,1,3,1,29.425,29425,-1.0400,10.8800,0.1400,10.9305,-0.0044,-0.0349,-0.0011,9.25,89.00,100.19,-1.2740,9.5435,0.2209,9.6307
3,8,1,3,1,29.598,29598,-0.8400,12.9900,0.3000,13.0206,0.0436,0.0207,0.7058,8.88,88.94,100.88,-1.2168,9.9977,0.2313,10.0741
3,8,1,3,1,29.728,29728,-4.3000,9.9200,-0.0100,10.8119,0.0295,-0.0109,-0.4123,10.75,88.69,99.13,-1.6231,9.9874,0.1995,10.1204
3,8,1,3,1,29.858,29858,-2.3200,7.5400,0.1600,7.8905,0.0360,0.0055,-0.3207,10.81,88.38,99.00,-1.7149,9.6649,0.1943,9.8178
3,8,1,3,1,29.988,29988,-2.0800,8.8200,0.2800,9.0663,0.0120,0.0535,0.1091,11.31,88.13,98.31,-1.7630,9.5536,0.2056,9.7171
3,8,1,3,1,30.118,30118,-1.0000,10.3700,0.4000,10.4258,0.0196,0.0545,0.1494,9.94,87.94,99.31,-1.6625,9.6612,0.2312,9.8059
3,8,1,3,1,30.248,30248,-2.1600,10.8800,0.6000,11.1086,0.0229,0.0633,0.0578,10.00,87.75,98.88,-1.7280,9.8218,0.2798,9.9766
3,8,1,3,1,30.378,30378,-2.4600,13.7300,-0.0100,13.9486,0.0251,0.0851,0.2880,8.50,87.63,99.94,-1.8245,10.3368,0.2416,10.4993
3,8,1,3,1,30.508,30508,-1.7400,10.3000,0.8900,10.4838,0.0284,0.0524,-0.0676,8.88,87.44,99.13,-1.8134,10.3319,0.3271,10.4950
3,8,1,3,1,30.681,30681,-2.1200,9.5400,0.4800,9.7845,0.0404,0.0567,0.0633,10.19,87.06,97.44,-1.8538,10.2276,0.3472,10.4000
3,8,1,3,1,30.811,30811,-0.8600,8.9800,0.4800,9.0338,0.0305,0.0393,0.0371,9.44,86.75,97.88,-1.7228,10.0632,0.3647,10.2161
3,8,1,3,1,30.941,30941,-2.0800,8.8500,0.2600,9.0949,-0.0153,0.0033,-0.0447,9.38,86.69,97.81,-1.7699,9.9033,0.3509,10.0663
3,8,1,3,1,31.071,31071,-0.6300,7.4700,0.3600,7.5052,-0.0185,-0.0175,0.0654,9.38,86.81,97.81,-1.6197,9.5827,0.3521,9.7250
3,8,1,3,1,31.201,31201,-1.1900,8.6800,0.4900,8.7749,-0.0535,-0.0164,0.4091,8.63,87.25,98.69,-1.5631,9.4637,0.3703,9.5991
3,8,1,3,1,31.331,31331,-0.3400,8.2500,0.3900,8.2662,-0.0229,-0.0393,0.0665,7.81,87.63,99.69,-1.4019,9.3038,0.3729,9.4162
3,8,1,3,1,31.461,31461,-2.1000,8.7100,0.3900,8.9681,-0.0371,-0.0131,0.4254,7.88,87.88,99.94,-1.4939,9.2255,0.3751,9.3532
3,9,1,3,1,31.592,31592,-0.1000,10.0700,0.2800,10.0744,-0.0153,-0.0436,0.0098,6.06,88.06,101.88,-1.3102,9.3368,0.3626,9.4353
3,9,1,3,1,31.765,31765,-0.8500,9.6400,0.3300,9.6830,-0.0153,-0.0327,0.1265,7.69,88.31,100.75,-1.2496,9.3768,0.3583,9.4664
3,9,1,3,1,31.895,31895,-0.8500,9.6200,0.3600,9.6642,-0.0218,-0.0480,-0.1124,7.38,88.44,101.31,-1.1969,9.4088,0.3585,9.4914
3,9,1,3,1,32.025,32025,-1.6600,9.5900,0.2600,9.7361,-0.0065,-0.0295,0.0284,8.00,88.63,100.94,-1.2579,9.4327,0.3455,9.5225
3,9,1,3,1,32.155,32155,-1.1000,9.7000,0.1600,9.7635,0.0033,-0.0131,0.1014,7.63,88.63,101.50,-1.2371,9.4679,0.3211,9.5538
3,9,1,3,1,32.285,32285,-1.4200,9.7200,0.2700,9.8269,0.0229,0.0011,0.0742,7.13,88.56,102.06,-1.2612,9.5011,0.3144,9.5896
3,9,1,3,1,32.415,32415,-1.0500,9.5300,0.2900,9.5921,0.0251,0.0109,0.0480,6.63,88.44,102.50,-1.2334,9.5049,0.3111,9.5897
3,9,1,3,1,32.545,32545,-0.5800,9.3400,0.2700,9.3619,0.0153,0.0065,-0.0142,6.13,88.25,103.00,-1.1473,9.4832,0.3057,9.5572
3,9,1,3,1,32.676,32676,-0.1800,8.6700,0.2000,8.6742,0.0098,0.0175,0.1320,6.63,88.19,102.50,-1.0198,9.3760,0.2918,9.4359
3,9,1,3,1,32.849,32849,-2.2700,8.5400,0.1800,8.8384,0.0000,-0.0065,-0.0654,8.13,88.13,101.06,-1.1846,9.2659,0.2771,9.3454
3,9,1,3,1,32.983,32983,-1.2800,8.3500,0.3300,8.4540,0.0338,-0.0218,-0.0338,7.56,87.88,101.63,-1.1971,9.1452,0.2840,9.2276
3,9,1,3,1,33.114,33114,-1.0200,9.3400,0.2700,9.3994,0.0153,-0.0076,0.0720,7.50,87.75,101.81,-1.1738,9.1709,0.2822,9.2500
3,9,1,3,1,33.247,33247,0.5600,8.4800,0.5400,8.5156,0.0535,-0.0120,0.0622,7.25,87.56,102.19,-0.9453,9.0798,0.3162,9.1344
3,9,1,3,1,33.378,33378,-1.7200,11.4400,0.1600,11.5697,0.0065,-0.0131,0.0764,7.81,87.63,101.81,-1.0474,9.3908,0.2956,9.4537
3,9,1,3,1,33.509,33509,-1.0300,9.7800,0.3600,9.8407,-0.0011,-0.0240,0.2574,8.00,87.63,101.75,-1.0451,9.4421,0.3041,9.5046
3,9,1,3,1,33.639,33639,-3.9200,11.7800,0.4000,12.4215,-0.0185,-0.0284,-0.0894,8.00,87.75,102.00,-1.4240,9.7502,0.3167,9.8587
3,9,1,3,1,33.769,33769,-1.0600,11.3200,0.5200,11.3814,0.0076,-0.0131,-0.1309,6.75,87.75,103.31,-1.3760,9.9570,0.3435,10.0575
3,9,1,3,1,33.942,33942,-1.2800,9.0500,0.3500,9.1468,0.0065,-0.0011,-0.2618,7.38,87.69,102.63,-1.3633,9.8375,0.3444,9.9375
3,9,1,3,1,34.073,34073,-1.3500,8.9200,0.5600,9.0389,-0.0065,0.0196,-0.1309,7.81,87.69,102.06,-1.3616,9.7166,0.3728,9.8186
3,9,1,3,1,34.203,34203,-1.3400,10.3100,0.5600,10.4118,0.0022,0.0327,0.0142,7.81,87.63,101.88,-1.3587,9.7948,0.3974,9.8966
3,9,1,3,1,34.334,34334,-2.0300,11.8100,0.4400,11.9913,0.0044,0.0535,0.1494,7.44,87.56,101.88,-1.4472,10.0604,0.4031,10.1719
3,9,1,3,1,34.465,34465,-0.5600,12.2200,0.2200,12.2348,0.0000,0.0698,0.2716,6.00,87.56,102.94,-1.3303,10.3449,0.3789,10.4370
3,9,1,3,1,34.595,34595,-1.4000,10.2700,0.4200,10.3735,0.0065,0.0458,0.0796,6.13,87.50,102.44,-1.3395,10.3351,0.3843,10.4286
3,9,1,3,1,34.726,34726,-0.7000,9.1200,0.7200,9.1751,0.0415,0.0207,-0.2258,7.00,87.38,101.38,-1.2552,10.1750,0.4286,10.2610
3,9,1,3,1,34.857,34857,-2.4400,9.6900,0.2900,9.9967,-0.0164,-0.0284,-0.2094,7.50,87.31,100.81,-1.4113,10.1111,0.4103,10.2173
3,9,1,3,1,35.030,35030,0.2800,7.5900,0.6200,7.6204,-0.0633,-0.0731,-0.6676,7.81,87.38,100.69,-1.1885,9.7788,0.4379,9.8605
3,9,1,3,1,35.164,35164,-3.6500,9.9500,-0.1400,10.5993,-0.1047,-0.0654,-0.1985,7.94,87.94,100.81,-1.5128,9.8014,0.3618,9.9241
3,9,1,3,1,35.294,35294,-1.5200,7.8000,0.0700,7.9470,-0.0535,-0.0382,0.3196,6.94,88.38,102.00,-1.5138,9.5377,0.3233,9.6625
3,9,1,3,1,35.425,35425,-2.1900,8.2100,0.3700,8.5051,-0.0469,-0.0600,-0.0884,6.13,88.75,103.13,-1.6029,9.3627,0.3295,9.5046
3,10,1,3,1,35.555,35555,-0.3900,10.4300,-0.2600,10.4405,-0.0142,-0.0218,0.3076,4.56,88.94,104.88,-1.4431,9.5034,0.2518,9.6156
3,10,1,3,1,35.686,35686,-1.0200,9.8300,0.4200,9.8917,-0.0098,-0.0295,0.0240,4.50,89.06,105.19,-1.3873,9.5464,0.2740,9.6506
3,10,1,3,1,35.817,35817,-0.4600,9.4400,0.0800,9.4515,-0.0022,-0.0055,0.0327,3.94,89.06,105.81,-1.2651,9.5324,0.2484,9.6192
3,10,1,3,1,35.947,35947,-0.8200,9.9600,0.1700,9.9951,0.0044,0.0022,-0.0720,4.38,89.13,105.44,-1.2065,9.5887,0.2381,9.6673
3,10,1,3,1,36.120,36120,-0.4900,9.8800,0.2200,9.8946,0.0251,0.0349,0.1265,3.94,89.00,105.63,-1.1120,9.6271,0.2357,9.6940
3,10,1,3,1,36.250,36250,-0.9400,9.6900,0.1100,9.7361,0.0469,0.0415,-0.0065,3.63,88.69,105.69,-1.0894,9.6354,0.2191,9.6993
3,10,1,3,1,36.381,36381,0.0900,9.6900,0.3300,9.6960,0.0578,0.0600,0.1571,3.13,88.31,105.88,-0.9340,9.6426,0.2337,9.6905
3,10,1,3,1,36.511,36511,-0.3400,9.6700,0.4100,9.6847,0.0513,0.0469,-0.0382,3.19,87.88,105.44,-0.8557,9.6462,0.2570,9.6875
3,10,1,3,1,36.641,36641,-0.5000,9.3700,0.5400,9.3989,0.0404,0.0404,-0.0905,3.50,87.50,104.88,-0.8088,9.6098,0.2943,9.6483
3,10,1,3,1,36.771,36771,-0.4900,9.3700,0.2900,9.3873,0.0044,0.0338,-0.0774,3.88,87.31,104.19,-0.7668,9.5782,0.2937,9.6133
3,10,1,3,1,36.901,36901,-0.2200,8.3100,0.4500,8.3251,-0.0164,0.0044,-0.2803,4.44,87.38,103.50,-0.6948,9.4111,0.3143,9.4419
3,10,1,3,1,37.031,37031,-1.1700,6.7100,0.5200,6.8311,-0.0382,-0.0142,-0.3011,6.69,87.56,101.19,-0.7574,9.0552,0.3414,9.0932
3,10,1,3,1,37.208,37208,-1.5700,8.1500,0.1500,8.3012,-0.0218,-0.0262,-0.1680,8.25,87.81,99.75,-0.8645,8.9359,0.3162,8.9832
3,10,1,3,1,37.338,37338,-0.9700,9.5100,0.1600,9.5607,-0.0316,-0.0556,-0.1963,8.06,88.00,100.13,-0.8784,9.0115,0.2956,9.0591
3,10,1,3,1,37.471,37471,-0.4100,9.4800,0.8400,9.5260,-0.0033,-0.0502,-0.0709,8.44,88.25,100.00,-0.8167,9.0733,0.3673,9.1173
3,10,1,3,1,37.602,37602,-1.3800,10.6600,-0.0100,10.7490,-0.0207,-0.0360,0.2160,8.81,88.44,100.00,-0.8909,9.2824,0.3176,9.3304
3,10,1,3,1,37.732,37732,-1.0200,11.6800,0.4500,11.7331,-0.0055,-0.0447,0.2825,8.31,88.69,100.88,-0.9079,9.5983,0.3351,9.6470
3,10,1,3,1,37.863,37863,-1.4100,11.5500,-0.0100,11.6358,-0.0175,-0.0513,0.0894,7.81,88.88,101.75,-0.9741,9.8555,0.2896,9.9077
3,10,1,3,1,37.993,37993,-1.6600,11.3900,0.0700,11.5105,-0.0316,-0.0884,-0.4232,8.19,89.00,101.81,-1.0645,10.0577,0.2607,10.1172
3,10,1,3,1,38.124,38124,-1.2500,9.3600,0.2800,9.4472,0.0164,-0.0316,0.0905,8.25,89.06,102.06,-1.0889,9.9658,0.2632,10.0285
3,10,1,3,1,38.297,38297,-1.5900,8.3100,0.2200,8.4636,0.0109,-0.0393,-0.2891,9.25,89.00,101.44,-1.1549,9.7476,0.2575,9.8191
3,10,1,3,1,38.428,38428,-0.5600,10.0800,0.2400,10.0984,0.0164,0.0011,0.1505,8.81,88.94,102.00,-1.0765,9.7914,0.2552,9.8537
3,10,1,3,1,38.558,38558,-1.9200,11.5300,0.2300,11.6910,0.0218,0.0120,0.0382,8.50,88.81,102.31,-1.1877,10.0205,0.2519,10.0938
3,10,1,3,1,38.689,38689,-1.7300,12.2000,0.4100,12.3289,0.0425,0.0316,0.0742,7.81,88.50,102.88,-1.2591,10.3077,0.2727,10.3879
3,10,1,3,1,38.819,38819,-0.6800,10.9800,0.3300,11.0060,0.0807,0.0164,-0.2738,6.63,87.94,103.75,-1.1828,10.3963,0.2803,10.4671
3,10,1,3,1,38.952,38952,-2.0500,9.3800,0.1700,9.6029,0.0851,0.0153,-0.1963,8.56,87.31,101.81,-1.2971,10.2624,0.2657,10.3474
3,10,1,3,1,39.083,39083,-2.2200,9.6300,0.5500,9.8979,0.0764,0.0207,0.0535,9.31,86.75,101.00,-1.4187,10.1790,0.3032,10.2819
3,10,1,3,1,39.217,39217,-0.7500,8.6500,0.5900,8.7025,0.0273,0.0065,0.0578,9.13,86.31,101.19,-1.3306,9.9775,0.3410,10.0717
3,10,1,3,1,39.390,39390,-0.2900,7.9500,0.3500,7.9630,-0.0295,-0.0491,-0.2422,9.44,86.50,101.06,-1.1935,9.7104,0.3422,9.7894
3,10,1,3,1,39.520,39520,-3.2700,9.2500,0.3900,9.8187,-0.0644,-0.0545,-0.1287,10.50,86.94,100.25,-1.4671,9.6497,0.3485,9.7668
3,10,1,3,1,39.650,39650,-0.5000,8.4700,0.7300,8.5161,0.0175,-0.0055,0.3840,9.25,87.13,101.69,-1.3397,9.4942,0.3988,9.5966
3,10,1,3,1,39.780,39780,-1.3300,7.5900,0.1100,7.7064,-0.0393,-0.0044,0.1647,9.06,87.13,102.00,-1.3384,9.2433,0.3607,9.3467
3,11,1,3,1,39.910,39910,0.3200,11.0900,0.5100,11.1063,-0.0240,0.0415,0.6109,6.25,87.38,104.63,-1.1199,9.4867,0.3804,9.5601
3,11,1,3,1,40.040,40040,-2.5200,8.9200,0.3300,9.2750,-0.0665,0.0207,0.1560,7.19,87.69,103.63,-1.3044,9.4120,0.3737,9.5093
3,11,1,3,1,40.171,40171,-0.4100,9.6200,0.4500,9.6392,-0.0425,0.0175,0.0753,4.38,88.00,106.19,-1.1865,9.4394,0.3838,9.5214
3,11,1,3,1,40.301,40301,-1.7000,9.8500,0.1000,9.9961,-0.0425,0.0338,0.0524,4.38,88.38,106.06,-1.2542,9.4935,0.3464,9.5823
3,11,1,3,1,40.474,40474,-0.2200,9.7800,0.3400,9.7884,-0.0382,0.0578,-0.0360,1.31,88.69,108.44,-1.1179,9.5313,0.3455,9.6028
3,11,1,3,1,40.605,40605,0.3100,9.6200,0.1000,9.6255,-0.0131,0.1287,0.8552,-1.13,88.81,110.25,-0.9297,9.5430,0.3132,9.5933
3,11,1,3,1,40.736,40736,-2.3100,8.2900,0.4500,8.6176,-0.0011,0.1134,0.3763,0.00,89.13,108.50,-1.1116,9.3778,0.3312,9.4493
3,11,1,3,1,40.866,40866,1.5000,10.9200,-0.2300,11.0249,-0.0644,0.0491,-0.6087,-4.38,89.50,112.06,-0.7675,9.5811,0.2573,9.6152
3,11,1,3,1,40.997,40997,3.2300,9.4500,-0.1900,9.9886,-0.0382,0.0862,0.0545,-7.00,89.81,113.94,-0.2407,9.5638,0.1983,9.5689
3,11,1,3,1,41.127,41127,-0.7400,9.9200,-0.8100,9.9805,0.0022,0.1004,0.5574,-2.50,90.13,109.25,-0.3065,9.6107,0.0655,9.6158
3,11,1,3,1,41.261,41261,0.3900,10.2600,-0.6600,10.2886,0.0098,0.0611,0.1429,-4.19,90.13,110.44,-0.2147,9.6963,-0.0301,9.6987
3,11,1,3,1,41.392,41392,1.0300,10.6400,1.4000,10.7810,0.0644,0.0949,0.6654,-5.31,89.94,111.06,-0.0507,9.8206,0.1583,9.8221
3,11,1,3,1,41.565,41565,0.6100,8.6600,1.2000,8.7640,0.0502,0.0600,-0.4811,-4.31,89.44,109.38,0.0364,9.6677,0.2956,9.6723
3,11,1,3,1,41.696,41696,1.3100,10.8000,0.6900,10.9010,0.0905,0.1233,0.5901,-6.38,89.00,110.69,0.2042,9.8169,0.3476,9.8252
3,11,1,3,1,41.826,41826,0.2900,9.4800,0.2600,9.4880,0.0818,0.0698,0.1080,-5.81,88.44,109.50,0.2155,9.7725,0.3360,9.7807
3,11,1,3,1,41.957,41957,-0.0400,10.2000,-0.2000,10.2020,0.0938,0.0393,-0.0393,-6.00,87.81,109.19,0.1818,9.8288,0.2654,9.8341
3,11,1,3,1,42.087,42087,0.9000,9.8600,-0.2200,9.9034,0.0971,0.0295,-0.0611,-5.75,87.13,108.63,0.2765,9.8330,0.2014,9.8389
3,11,1,3,1,42.217,42217,0.7800,9.1900,0.2300,9.2259,0.1004,0.0207,-0.0709,-5.25,86.50,107.88,0.3428,9.7482,0.2052,9.7564
3,11,1,3,1,42.349,42349,1.5300,9.9400,0.3100,10.0618,0.0927,0.0175,0.1298,-6.63,85.81,109.00,0.4993,9.7735,0.2190,9.7887
3,11,1,3,1,42.479,42479,1.6700,9.2400,1.0400,9.4471,0.0633,-0.0229,-0.1484,-7.31,85.19,109.56,0.6535,9.7032,0.3272,9.7307
3,11,1,3,1,42.652,42652,1.0100,9.5900,1.2600,9.7250,0.0022,-0.0360,0.1582,-5.75,84.94,108.38,0.7005,9.6883,0.4501,9.7240
3,11,1,3,1,42.782,42782,0.7000,9.6900,1.6100,9.8478,-0.0578,-0.0894,-0.1876,-5.38,85.00,108.50,0.7004,9.6885,0.6030,9.7325
3,11,1,3,1,42.915,42915,0.4400,9.7100,1.0000,9.7713,-0.0938,-0.1036,-0.1516,-4.75,85.38,108.56,0.6661,9.6913,0.6553,9.7363
3,11,1,3,1,43.046,43046,-0.0400,9.4300,1.2500,9.5126,-0.0894,-0.1036,-0.0687,-4.56,85.81,109.13,0.5731,9.6569,0.7336,9.7017
3,11,1,3,1,43.180,43180,1.1600,9.5900,0.5600,9.6761,-0.0654,-0.0829,-0.0644,-6.06,86.31,111.19,0.6504,9.6481,0.7108,9.6961
3,11,1,3,1,43.311,43311,2.1900,9.6700,0.2700,9.9186,-0.0360,-0.0425,-0.0720,-6.13,86.75,111.75,0.8533,9.6510,0.6527,9.7106
3,11,1,3,1,43.442,43442,1.1600,9.8600,0.1800,9.9296,-0.0327,0.0055,-0.0196,-3.50,87.06,109.44,0.8937,9.6785,0.5904,9.7376
3,11,1,3,1,43.572,43572,0.4200,9.1600,0.0300,9.1697,-0.0709,0.0055,-0.1974,-0.94,87.50,106.94,0.8313,9.6102,0.5165,9.6599
3,11,1,3,1,43.745,43745,1.1200,10.2200,0.0500,10.2813,-0.1178,0.0305,0.2814,-0.75,88.50,106.56,0.8693,9.6905,0.4551,9.7401
3,11,1,3,1,43.875,43875,0.6700,9.5400,0.0500,9.5636,-0.0916,-0.0360,-0.0796,-0.31,89.25,106.00,0.8431,9.6707,0.4017,9.7157
3,11,1,3,1,44.006,44006,-0.2500,9.7800,0.6000,9.8016,0.1582,0.0600,0.3338,-0.06,88.94,105.56,0.6990,9.6851,0.4278,9.7197
3,11,1,3,1,44.136,44136,0.2500,9.3600,0.1300,9.3642,0.0884,-0.0011,-0.3905,0.06,88.00,105.13,0.6399,9.6423,0.3886,9.6713
3,11,1,3,1,44.267,44267,-1.3800,8.8500,1.0200,9.0148,0.0447,-0.0316,-0.3960,3.25,87.69,102.13,0.3737,9.5379,0.4718,9.5568
3,11,1,3,1,44.398,44398,-1.2500,8.5300,0.9800,8.6766,-0.0600,0.0513,0.2051,2.69,87.75,102.56,0.1597,9.4051,0.5388,9.4218
3,11,1,3,1,44.528,44528,-1.7600,8.8700,0.0700,9.0432,-0.0425,0.0807,-0.0327,3.00,87.81,101.75,-0.0932,9.3346,0.4770,9.3472
3,11,1,3,1,44.659,44659,-0.7800,7.9100,0.3300,7.9552,-0.1516,0.1931,0.9174,-0.94,88.38,104.63,-0.1837,9.1468,0.4576,9.1601
3,11,1,3,1,44.835,44835,1.0800,10.8300,-0.4800,10.8943,-0.2923,0.1974,0.7636,-7.81,91.75,110.06,-0.0172,9.3686,0.3341,9.3746
3,11,1,3,1,44.966,44966,3.0900,12.7100,-1.1100,13.1272,-0.0829,-0.0556,-1.0581,-6.06,93.50,108.38,0.3922,9.8089,0.1438,9.8178
3,11,1,3,1,45.097,45097,-3.4300,11.2800,-0.4700,11.7993,0.3022,-0.0938,-2.0944,6.13,92.50,96.75,-0.1114,10.0028,0.0629,10.0036
3,11,1,3,1,45.227,45227,0.8900,7.8400,2.4400,8.2590,0.6338,0.0393,1.4977,8.50,90.31,94.38,0.0205,9.7178,0.3761,9.7251
3,11,1,3,1,45.357,45357,0.3600,9.8700,0.3600,9.8831,0.2007,0.0535,-0.5018,9.63,88.19,92.88,0.0653,9.7378,0.3740,9.7452
3,11,1,3,1,45.488,45488,-1.1800,8.6100,-0.0200,8.6905,0.1549,-0.0665,-0.7701,13.19,86.50,89.63,-0.0988,9.5892,0.3221,9.5951
3,11,1,3,1,45.618,45618,-1.4200,7.6600,0.7000,7.8219,0.0284,-0.2160,-0.6796,17.00,85.44,86.81,-0.2729,9.3350,0.3719,9.3464
3,11,1,3,1,45.749,45749,-2.4900,8.3300,0.6800,8.7207,-0.0524,-0.2105,-0.2334,22.19,85.94,83.06,-0.5651,9.2026,0.4125,9.2291
3,11,1,3,1,45.922,45922,-6.1800,8.5900,-0.6200,10.6002,-0.2203,-0.1942,-0.9425,28.38,88.06,78.00,-1.3050,9.1218,0.2764,9.2189
3,11,1,3,1,46.053,46053,-6.5400,7.3900,-0.8600,9.9057,-0.1985,0.0622,0.2869,30.06,89.25,76.19,-1.9948,8.8936,0.1267,9.1155
3,11,1,3,1,46.183,46183,-6.8800,7.1800,-0.8400,9.9796,-0.0196,0.1244,-0.3578,32.81,89.44,73.25,-2.6386,8.6678,-0.0007,9.0605
3,11,1,3,1,46.314,46314,-5.4700,8.2600,-0.8100,9.9401,0.1287,0.0589,0.0600,33.00,88.38,72.63,-3.0117,8.6141,-0.1073,9.1260
3,11,1,3,1,46.444,46444,-4.3500,7.1400,1.1900,8.4450,0.2258,0.0556,0.1876,32.31,87.38,73.38,-3.1880,8.4198,0.0636,9.0034
3,11,1,3,1,46.577,46577,-8.3100,6.7700,0.4500,10.7281,-0.2476,0.0011,-0.2291,33.06,87.25,72.63,-3.8630,8.2024,0.1145,9.0673
3,11,1,3,1,46.708,46708,-3.6700,9.2800,-0.8600,10.0163,0.0480,-0.0033,-0.0076,32.94,87.19,72.75,-3.8375,8.3444,-0.0139,9.1846
3,11,1,3,1,46.842,46842,-5.7800,8.6500,-0.7900,10.4334,-0.0447,-0.0327,-0.2760,33.94,87.25,71.75,-4.0935,8.3847,-0.1162,9.3313
3,11,1,3,1,47.015,47015,-5.4600,7.0200,0.7200,8.9225,0.1767,-0.0131,-0.1811,34.94,87.19,70.88,-4.2736,8.2049,-0.0060,9.2511
3,11,1,3,1,47.145,47145,-5.8200,7.7900,0.2900,9.7283,0.0502,-0.0076,-0.0753,34.88,87.25,70.88,-4.4774,8.1502,0.0330,9.2991
3,11,1,3,1,47.275,47275,-4.9900,8.5100,-0.4300,9.8745,-0.0873,0.0284,0.3262,34.13,87.25,71.56,-4.5449,8.1976,-0.0280,9.3732
3,11,1,3,1,47.405,47405,-4.8000,7.4600,0.7600,8.9033,0.0142,0.0065,0.0960,33.00,87.13,72.69,-4.5785,8.1004,0.0758,9.3051
3,11,1,3,1,47.535,47535,-4.9800,7.7400,0.4600,9.2152,0.0654,0.0044,0.1593,33.00,87.13,72.69,-4.6314,8.0529,0.1265,9.2906
3,11,1,3,1,47.665,47665,-4.9700,8.3400,0.0000,9.7086,-0.0382,0.0087,0.0949,32.25,87.25,73.38,-4.6760,8.0907,0.1098,9.3455
3,11,1,3,1,47.796,47796,-4.9300,7.7800,0.4900,9.2235,-0.0327,0.0065,0.0240,31.75,87.50,73.94,-4.7095,8.0498,0.1599,9.3276
3,11,1,3,1,47.926,47926,-3.6800,7.8300,0.6200,8.6739,0.0731,0.0262,0.4276,30.25,87.50,75.38,-4.5738,8.0208,0.2205,9.2359
3,11,1,3,1,48.099,48099,-4.7500,8.1000,0.2800,9.3942,0.0295,0.0109,0.1342,30.44,87.50,75.19,-4.5971,8.0313,0.2284,9.2567
3,11,1,3,1,48.230,48230,-4.7900,8.3800,0.1800,9.6541,-0.0284,0.0022,-0.0055,30.06,87.50,75.56,-4.6225,8.0772,0.2220,9.3090
3,11,1,3,1,48.361,48361,-4.6600,8.2600,0.2800,9.4880,-0.0033,0.0011,0.0164,29.81,87.56,75.81,-4.6274,8.1013,0.2296,9.3326
3,11,1,3,1,48.493,48493,-4.3900,8.1700,0.3100,9.2799,0.0175,0.0055,0.0382,29.75,87.56,75.88,-4.5961,8.1104,0.2402,9.3252
3,11,1,3,1,48.628,48628,-4.7800,8.2400,0.2500,9.5293,-0.0033,0.0033,0.0120,30.06,87.56,75.56,-4.6204,8.1274,0.2415,9.3521
3,11,1,3,1,48.759,48759,-4.8000,8.2100,0.3000,9.5149,-0.0011,0.0000,-0.0087,30.00,87.63,75.63,-4.6440,8.1383,0.2492,9.3734
3,11,1,3,1,48.889,48889,-4.7600,8.3400,0.1800,9.6045,0.0033,0.0000,-0.0065,29.94,87.63,75.63,-4.6593,8.1649,0.2401,9.4039
3,11,1,3,1,49.020,49020,-4.7400,8.2000,0.2200,9.4740,0.0011,0.0011,-0.0196,30.13,87.63,75.50,-4.6700,8.1695,0.2375,9.4131
3,11,1,3,1,49.193,49193,-4.3300,8.3600,0.2600,9.4184,0.0120,0.0185,0.2934,28.38,87.63,77.13,-4.6252,8.1946,0.2404,9.4128
3,11,1,3,1,49.324,49324,-4.4700,8.4600,0.4500,9.5789,0.0142,0.0273,0.3982,26.25,87.56,79.13,-4.6047,8.2296,0.2680,9.4341
3,11,1,3,1,49.454,49454,-2.8900,8.8700,0.3700,9.3363,-0.0055,0.0305,0.4985,22.69,87.44,82.56,-4.3788,8.3140,0.2815,9.4008
3,11,1,3,1,49.585,49585,-3.5500,9.0200,0.2600,9.6969,0.0055,0.0371,0.6861,19.56,87.38,85.56,-4.2695,8.4070,0.2786,9.4332
3,11,1,3,1,49.716,49716,-1.2900,9.2300,0.5900,9.3384,0.0175,0.0327,0.5749,13.94,87.19,90.94,-3.8769,8.5155,0.3197,9.3619
3,11,1,3,1,49.846,49846,-2.0500,9.3900,0.4600,9.6222,0.0196,0.0142,0.2454,12.38,87.19,92.44,-3.6362,8.6307,0.3382,9.3715
3,11,1,3,1,49.977,49977,-1.3200,9.6000,0.3600,9.6970,0.0011,0.0491,0.8018,8.56,87.06,96.00,-3.3310,8.7584,0.3410,9.3767
3,11,1,3,1,50.107,50107,-0.6400,9.8400,0.5000,9.8735,-0.0022,0.0469,0.7047,3.25,86.94,101.06,-2.9764,8.9010,0.3620,9.3924
3,11,1,3,1,50.280,50280,1.4100,9.6900,0.6400,9.8129,0.0153,0.0022,0.0393,-1.94,86.81,106.00,-2.3984,9.0049,0.3986,9.3274
3,11,1,3,1,50.414,50414,-0.8200,9.7700,0.5000,9.8171,-0.0218,-0.0316,-0.5509,1.88,86.88,102.38,-2.1904,9.1057,0.4120,9.3745
3,11,1,3,1,50.545,50545,0.0400,9.7200,0.4800,9.7319,0.0065,0.0207,0.3229,1.31,86.88,102.81,-1.8965,9.1867,0.4209,9.3898
3,11,1,3,1,50.675,50675,0.4500,9.5800,0.7400,9.6191,-0.0109,0.0098,0.1265,0.00,86.88,104.13,-1.5873,9.2385,0.4630,9.3853
3,11,1,3,1,50.806,50806,0.7700,9.1900,0.6700,9.2465,-0.0349,-0.1178,-2.0082,5.38,86.94,99.06,-1.2766,9.2321,0.4903,9.3329
3,11,1,3,1,50.936,50936,-4.7800,8.4500,0.2200,9.7108,-0.0415,-0.1396,-2.3431,24.19,87.44,81.19,-1.7383,9.1291,0.4547,9.3042
3,11,1,3,1,51.067,51067,-3.4500,8.7200,0.2200,9.3803,0.0131,0.0491,0.7559,26.31,87.56,79.06,-1.9638,9.0752,0.4237,9.2949
3,11,1,3,1,51.197,51197,-4.4900,8.5600,0.3000,9.6708,-0.0120,-0.0175,-0.2542,26.44,87.56,78.94,-2.2967,9.0073,0.4074,9.3044
3,11,1,3,1,51.370,51370,-4.2600,8.2200,0.5000,9.2718,0.0153,-0.0109,-0.2051,28.13,87.56,77.31,-2.5554,8.9035,0.4196,9.2725
3,11,1,3,1,51.500,51500,-4.7100,8.3000,0.2200,9.5458,-0.0131,-0.0011,-0.0393,29.44,87.63,76.06,-2.8394,8.8240,0.3933,9.2779
3,11,1,3,1,51.630,51630,-4.5800,8.4600,0.1300,9.6211,-0.0164,0.0022,-0.0109,29.13,87.63,76.31,-3.0687,8.7760,0.3586,9.3040
3,11,1,3,1,51.760,51760,-4.4700,8.2400,0.4000,9.3829,0.0131,-0.0011,-0.0087,29.00,87.63,76.50,-3.2534,8.7054,0.3641,9.3006
3,11,1,3,1,51.890,51890,-4.5700,8.2600,0.3300,9.4457,0.0098,0.0000,0.0022,29.00,87.69,76.50,-3.4269,8.6467,0.3596,9.3080
3,11,1,3,1,52.020,52020,-4.5200,8.3700,0.2900,9.5169,-0.0065,0.0022,0.0044,29.00,87.69,76.50,-3.5709,8.6102,0.3504,9.3279
3,11,1,3,1,52.150,52150,-4.6100,8.2900,0.2900,9.4900,0.0000,-0.0022,-0.0185,29.00,87.75,76.44,-3.7078,8.5680,0.3425,9.3422
3,11,1,3,1,52.281,52281,-4.4700,8.3400,0.2700,9.4662,0.0033,-0.0011,-0.0175,28.88,87.75,76.63,-3.8083,8.5380,0.3329,9.3547
3,11,1,3,1,52.453,52453,-4.5500,8.3500,0.2300,9.5120,-0.0022,0.0000,-0.0120,28.88,87.75,76.56,-3.9060,8.5132,0.3193,9.3720
3,11,1,3,1,52.583,52583,-4.4800,8.3600,0.2600,9.4883,0.0055,0.0000,0.0000,28.88,87.75,76.56,-3.9817,8.4930,0.3115,9.3852
3,11,1,3,1,52.713,52713,-4.6400,8.3300,0.2600,9.5387,-0.0076,-0.0033,-0.0469,29.13,87.75,76.38,-4.0684,8.4715,0.3047,9.4028
3,11,1,3,1,52.843,52843,-4.4900,8.3200,0.2900,9.4587,0.0022,-0.0022,-0.0360,29.00,87.75,76.50,-4.1240,8.4516,0.3028,9.4089
3,11,1,3,1,52.973,52973,-4.5200,8.2900,0.3200,9.4476,-0.0011,0.0022,0.0142,29.00,87.75,76.50,-4.1762,8.4303,0.3051,9.4129
3,11,1,3,1,53.103,53103,-4.5100,8.3400,0.2800,9.4855,0.0055,0.0033,0.0131,28.94,87.75,76.50,-4.2201,8.4184,0.3018,9.4218
3,11,1,3,1,53.234,53234,-4.4800,8.4000,0.2200,9.5225,0.0000,-0.0022,0.0109,28.94,87.75,76.56,-4.2544,8.4160,0.2910,9.4347
3,11,1,3,1,53.364,53364,-4.5000,8.2600,0.3600,9.4131,-0.0011,0.0022,0.0022,28.94,87.75,76.56,-4.2868,8.3954,0.3001,9.4313
3,11,1,3,1,53.537,53537,-4.5500,8.3200,0.3100,9.4879,0.0022,0.0011,0.0022,28.94,87.75,76.56,-4.3214,8.3855,0.3014,9.4383
