participant,rep,equipment_code,exercise_code,quality_code,timestamp,timestamp_ms,accelX,accelY,accelZ,accelMag,gyroX,gyroY,gyroZ,roll,pitch,yaw,filteredX,filteredY,filteredZ,filteredMag
3,1,1,3,1,00.000,0,-1.4600,9.8100,0.2800,9.9220,0.0218,0.0295,-0.0731,10.50,87.69,26.19,-1.4686,9.3175,0.4650,9.4440
3,1,1,3,1,00.124,124,-1.8900,9.7500,0.2900,9.9357,0.0415,0.0011,0.2356,9.75,87.50,26.81,-1.5241,9.3745,0.4419,9.5079
3,1,1,3,1,00.245,245,-1.8700,9.6500,0.7300,9.8566,-0.0065,0.0371,0.1102,8.88,87.25,27.56,-1.5697,9.4108,0.4799,9.5529
3,1,1,3,1,00.368,368,-0.9500,9.9700,0.2900,10.0194,-0.0076,0.0545,0.1385,7.75,87.19,28.00,-1.4880,9.4845,0.4549,9.6113
3,1,1,3,1,00.488,488,-1.5800,9.7200,0.5100,9.8608,0.0196,0.0491,0.2771,7.44,87.06,27.75,-1.5002,9.5155,0.4621,9.6441
3,1,1,3,1,00.609,609,-0.4400,9.9200,0.4900,9.9418,0.0142,0.0469,0.3000,4.88,86.94,29.94,-1.3605,9.5688,0.4658,9.6763
3,1,1,3,1,00.730,730,-0.5700,9.7600,0.6700,9.7996,0.0218,0.0371,-0.0502,4.38,86.75,29.63,-1.2563,9.5940,0.4927,9.6885
3,1,1,3,1,00.851,851,-0.6900,9.8600,0.5300,9.8983,0.0142,0.0055,-0.0371,4.38,86.63,29.38,-1.1817,9.6291,0.4976,9.7141
3,1,1,3,1,01.014,1014,-0.4900,9.7800,0.6200,9.8119,-0.0196,-0.0360,0.0600,3.38,86.63,30.50,-1.0905,9.6490,0.5137,9.7240
3,1,1,3,1,01.140,1140,-0.4500,9.6600,0.5700,9.6873,-0.0240,-0.0425,-0.0469,3.19,86.81,30.94,-1.0061,9.6504,0.5212,9.7167
3,1,1,3,1,01.260,1260,-0.2400,9.9300,0.5100,9.9460,-0.0295,-0.0371,0.2116,2.56,87.00,31.81,-0.9052,9.6873,0.5197,9.7433
3,1,1,3,1,01.381,1381,-0.2300,10.0600,0.5200,10.0761,0.0218,-0.0469,0.0240,2.06,87.00,32.63,-0.8162,9.7364,0.5197,9.7843
3,1,1,3,1,01.502,1502,-0.2600,9.8400,0.4800,9.8551,0.0262,-0.0371,-0.0120,1.88,86.88,33.06,-0.7429,9.7500,0.5145,9.7918
3,1,1,3,1,01.623,1623,-0.3700,9.6500,0.5400,9.6722,0.0055,-0.0349,-0.1276,2.38,86.75,32.81,-0.6938,9.7368,0.5179,9.7753
3,1,1,3,1,01.744,1744,-0.3400,10.0900,0.7100,10.1207,-0.0349,0.0000,0.0818,2.50,86.94,32.75,-0.6471,9.7834,0.5432,9.8198
3,1,1,3,1,01.865,1865,-0.4500,9.2700,0.6000,9.3003,0.0131,-0.0011,-0.2291,3.25,86.94,32.06,-0.6212,9.7157,0.5507,9.7511
3,1,1,3,1,02.032,2032,-1.4800,8.4300,0.3400,8.5657,0.0076,-0.0033,-0.1756,5.81,86.81,29.50,-0.7343,9.5463,0.5229,9.5888
3,1,1,3,1,02.153,2153,-0.9700,10.8000,0.5200,10.8559,0.0164,0.0065,-0.0873,5.69,86.75,29.56,-0.7654,9.7115,0.5225,9.7556
3,1,1,3,1,02.274,2274,-1.3300,9.0700,0.4200,9.1766,0.0305,0.0404,-0.3087,8.19,86.50,27.00,-0.8398,9.6270,0.5090,9.6769
3,1,1,3,1,02.395,2395,-1.9200,9.4900,0.9400,9.7278,0.0611,0.0087,-0.1385,9.69,86.19,25.38,-0.9821,9.6089,0.5658,9.6755
3,1,1,3,1,02.516,2516,-0.8400,10.2400,0.7600,10.3025,0.0687,-0.0382,0.7047,7.44,85.75,27.75,-0.9634,9.6921,0.5914,9.7578
3,1,1,3,1,02.637,2637,-1.8000,9.0800,0.5700,9.2742,0.0338,-0.0753,-0.6720,8.06,85.50,27.63,-1.0736,9.6114,0.5886,9.6891
3,1,1,3,1,02.758,2758,-2.1700,11.1100,0.2000,11.3217,0.0567,0.0142,0.2323,8.75,85.25,27.25,-1.2181,9.8089,0.5374,9.8988
3,1,1,3,1,02.884,2884,-2.3300,8.4300,1.1600,8.8227,0.1080,0.0033,0.0044,10.75,84.38,25.38,-1.3646,9.6272,0.6194,9.7431
3,1,1,3,1,03.046,3046,-0.7100,9.1100,1.1900,9.2148,0.0120,-0.0371,0.0185,8.38,83.81,27.94,-1.2784,9.5590,0.6946,9.6691
3,1,1,3,1,03.167,3167,-0.4800,9.8200,0.8400,9.8675,-0.0731,-0.0513,-0.1134,9.00,84.13,27.56,-1.1732,9.5934,0.7138,9.6912
3,1,1,3,1,03.288,3288,-2.0400,9.9100,0.9500,10.1623,-0.0807,-0.0654,-0.1920,10.75,84.69,26.25,-1.2874,9.6351,0.7449,9.7493
3,1,1,3,1,03.409,3409,-0.9100,9.9400,0.5200,9.9951,-0.0753,-0.0458,0.2978,10.31,85.31,27.06,-1.2377,9.6753,0.7153,9.7803
3,1,1,3,1,03.530,3530,-2.8000,9.9600,0.8500,10.3809,-0.0011,-0.0764,-0.2531,11.00,85.63,26.81,-1.4435,9.7128,0.7330,9.8468
3,1,1,3,1,03.652,3652,-1.0500,9.6100,0.8700,9.7063,-0.0098,-0.0785,0.2825,10.44,85.81,27.81,-1.3917,9.6993,0.7511,9.8274
3,1,1,3,1,03.777,3777,-1.8100,10.3700,0.8900,10.5643,0.0207,-0.0753,-0.1822,11.00,85.94,28.00,-1.4468,9.7877,0.7694,9.9239
3,1,1,3,1,03.899,3899,-2.9200,10.0900,0.2300,10.5065,0.0109,-0.0055,0.0076,12.25,85.75,27.00,-1.6409,9.8275,0.6983,9.9880
3,1,1,3,1,04.062,4062,-2.2100,10.1100,0.7500,10.3759,-0.0665,0.0098,-0.3338,12.31,86.25,26.75,-1.7159,9.8647,0.7051,10.0377
3,1,1,3,1,04.182,4182,-2.6800,9.6000,0.4600,9.9777,-0.0349,-0.0164,0.2225,13.19,86.44,25.81,-1.8430,9.8298,0.6728,10.0237
3,1,1,3,1,04.303,4303,-2.2200,9.8700,0.1800,10.1182,-0.0458,-0.0022,-0.2138,12.50,86.81,26.44,-1.8926,9.8351,0.6079,10.0340
3,1,1,3,1,04.426,4426,-2.3700,10.0200,0.4600,10.3067,-0.0316,0.0415,0.1342,12.69,87.06,26.13,-1.9556,9.8595,0.5884,10.0688
3,1,1,3,1,04.551,4551,-1.9600,9.8600,0.4200,10.0617,0.0033,0.0622,-0.0556,12.94,86.94,25.44,-1.9561,9.8596,0.5662,10.0677
3,1,1,3,1,04.671,4671,-3.3100,10.3200,0.0400,10.8379,-0.0251,0.0436,-0.2749,14.38,86.88,23.69,-2.1345,9.9202,0.4969,10.1594
3,1,1,3,1,04.792,4792,-1.8200,9.7300,0.4500,9.9090,0.0393,0.0044,-0.0916,13.81,86.69,24.06,-2.0931,9.8952,0.4907,10.1260
3,1,1,3,1,04.913,4913,-2.5500,10.3200,0.4100,10.6383,0.0654,-0.0142,0.1876,13.88,86.31,24.13,-2.1533,9.9512,0.4801,10.1928
3,1,1,3,1,05.075,5075,-2.7100,11.5800,0.4900,11.9030,0.0535,0.0044,0.1429,12.25,85.88,26.06,-2.2267,10.1658,0.4814,10.4179
3,1,1,3,1,05.202,5202,-1.8800,10.0600,0.8300,10.2678,0.0687,0.0633,0.0840,10.44,85.50,27.69,-2.1810,10.1519,0.5273,10.3969
3,1,1,3,1,05.324,5324,-1.5300,10.3100,0.5900,10.4396,-0.0218,0.0709,0.1854,10.88,85.25,26.69,-2.0952,10.1727,0.5356,10.4000
3,1,1,3,1,05.444,5444,-2.8200,10.8400,1.2100,11.2660,-0.0567,0.0055,0.0415,10.56,85.50,26.81,-2.1907,10.2606,0.6244,10.5104
3,2,1,3,1,05.565,5565,-1.2600,8.5800,0.8000,8.7088,-0.0567,-0.0164,0.2051,9.56,86.06,27.75,-2.0681,10.0392,0.6476,10.2704
3,2,1,3,1,05.686,5686,-0.5700,5.8600,0.3400,5.8975,-0.0327,-0.0436,0.0742,8.63,86.44,28.81,-1.8707,9.4885,0.6070,9.6901
3,2,1,3,1,05.807,5807,-1.7900,6.8300,0.8200,7.1081,0.0327,-0.0556,-0.0044,8.63,86.56,29.19,-1.8600,9.1381,0.6351,9.3471
3,2,1,3,1,05.928,5928,-0.9500,10.1400,0.6700,10.2064,0.0709,-0.0131,0.7799,6.25,86.25,31.88,-1.7401,9.2702,0.6397,9.4537
3,2,1,3,1,06.095,6095,-1.1600,8.3900,0.7800,8.5057,0.0600,-0.0251,-0.0480,5.69,85.56,32.63,-1.6637,9.1542,0.6582,9.3274
3,2,1,3,1,06.216,6216,0.4700,9.9000,1.2800,9.9935,-0.0349,0.0415,0.6687,3.00,85.63,35.25,-1.3825,9.2525,0.7401,9.3844
3,2,1,3,1,06.337,6337,-0.6200,9.9100,0.2900,9.9336,-0.0949,0.0567,-0.3087,2.75,85.94,35.06,-1.2820,9.3391,0.6808,9.4512
3,2,1,3,1,06.458,6458,-0.2400,10.1200,0.3600,10.1292,-0.0207,0.0938,0.0185,3.50,86.31,33.69,-1.1447,9.4420,0.6385,9.5326
3,2,1,3,1,06.579,6579,-0.7300,10.4500,0.8200,10.5075,0.0644,0.0949,0.0360,3.94,86.13,32.44,-1.0901,9.5748,0.6625,9.6594
3,2,1,3,1,06.700,6700,-0.3600,9.4600,0.8100,9.5014,0.1014,0.0447,0.2716,3.06,85.44,32.75,-0.9939,9.5597,0.6819,9.6354
3,2,1,3,1,06.822,6822,-0.3400,9.4600,1.0900,9.5287,0.0000,-0.0033,-0.1222,2.00,85.19,33.56,-0.9077,9.5466,0.7357,9.6178
3,2,1,3,1,06.948,6948,-0.0100,8.7400,0.7700,8.7739,-0.0971,0.0033,0.0011,2.50,85.56,33.00,-0.7894,9.4403,0.7402,9.5021
3,2,1,3,1,07.110,7110,-1.6400,10.1400,0.5400,10.2860,-0.1604,-0.0371,0.0000,3.50,86.75,31.88,-0.9015,9.5325,0.7138,9.6016
3,2,1,3,1,07.231,7231,1.4700,10.0800,0.5900,10.2037,-0.0774,-0.1767,-0.5149,3.69,87.63,32.19,-0.5890,9.6046,0.6975,9.6479
3,2,1,3,1,07.352,7352,-1.8300,9.2500,-0.2800,9.4334,0.0654,-0.1702,-0.1996,6.31,87.38,30.75,-0.7525,9.5579,0.5687,9.6043
3,2,1,3,1,07.474,7474,-0.6900,9.6200,0.7600,9.6746,-0.1276,-0.0316,0.0720,7.25,87.75,30.63,-0.7443,9.5661,0.5939,9.6134
3,2,1,3,1,07.600,7600,-0.6300,12.0600,0.2400,12.0788,-0.0753,0.0556,0.2662,6.44,88.50,31.06,-0.7292,9.8947,0.5473,9.9366
3,2,1,3,1,07.721,7721,-2.9600,9.2600,0.5800,9.7389,0.0600,-0.0578,-0.9523,7.44,88.19,30.06,-1.0232,9.8111,0.5516,9.8797
3,2,1,3,1,07.842,7842,-1.9400,7.0500,0.0200,7.3121,0.0229,-0.0284,-0.9032,8.44,87.88,29.19,-1.1440,9.4472,0.4815,9.5284
3,2,1,3,1,07.963,7963,0.0500,9.0300,-0.4700,9.0424,-0.2487,0.1734,0.2825,6.75,88.56,30.31,-0.9867,9.3923,0.3561,9.4507
3,2,1,3,1,08.126,8126,0.3100,8.6500,0.0800,8.6559,0.2378,-0.0207,-1.3341,7.69,88.94,28.38,-0.8158,9.2944,0.3198,9.3357
3,2,1,3,1,08.246,8246,-1.7600,4.7000,0.1200,5.0202,0.1865,0.0076,-0.3949,13.75,87.31,22.75,-0.9402,8.6890,0.2934,8.7447
3,3,1,3,1,08.368,8368,-1.5300,10.2300,0.4300,10.3527,0.0742,0.0240,0.1473,13.38,86.50,23.38,-1.0179,8.8921,0.3114,8.9556
3,3,1,3,1,08.493,8493,-2.5700,11.2900,0.5200,11.5905,0.0578,0.0284,-0.1233,15.75,85.81,21.56,-1.2225,9.2081,0.3389,9.2950
3,3,1,3,1,08.615,8615,-4.3600,10.3500,0.6500,11.2496,0.0567,-0.0098,-0.6501,18.63,85.19,19.00,-1.6359,9.3585,0.3799,9.5080
3,3,1,3,1,08.735,8735,-4.5800,10.8400,1.1000,11.8191,-0.0044,-0.0371,-0.4909,21.63,85.00,16.81,-2.0239,9.5538,0.4748,9.7773
3,3,1,3,1,08.856,8856,-4.4900,11.0500,0.3700,11.9331,-0.0305,-0.0884,-0.4178,23.63,85.25,15.81,-2.3488,9.7509,0.4610,10.0404
3,3,1,3,1,08.977,8977,-4.5600,9.6000,0.7300,10.6530,0.0273,-0.0905,0.0327,24.75,85.50,15.94,-2.6402,9.7310,0.4964,10.0951
3,3,1,3,1,09.139,9139,-4.2900,8.6200,0.7000,9.6539,0.1353,0.0044,0.3349,23.19,84.69,18.63,-2.8576,9.5846,0.5233,10.0152
3,3,1,3,1,09.266,9266,-3.8100,10.5700,1.4100,11.3238,0.0567,0.1167,0.5301,20.31,83.94,21.50,-2.9831,9.7145,0.6401,10.1823
3,3,1,3,1,09.387,9387,-3.5200,12.6200,1.2800,13.1641,0.0316,0.0796,0.0425,17.50,83.56,23.81,-3.0539,10.0974,0.7244,10.5739
3,3,1,3,1,09.508,9508,-3.8200,10.1000,1.0200,10.8463,-0.0098,0.0240,-0.2476,18.00,83.31,23.13,-3.1548,10.0977,0.7634,10.6066
3,3,1,3,1,09.629,9629,-3.3600,9.2300,0.8000,9.8551,-0.0905,0.0142,-0.0262,18.81,83.44,22.06,-3.1819,9.9834,0.7682,10.5063
3,3,1,3,1,09.750,9750,-3.0800,9.6600,0.8600,10.1755,-0.1080,-0.0796,0.0305,17.75,84.19,23.06,-3.1684,9.9407,0.7803,10.4626
3,3,1,3,1,09.872,9872,-3.3000,8.7600,0.5900,9.3795,-0.0840,-0.1331,0.1244,17.69,85.06,23.81,-3.1858,9.7852,0.7552,10.3184
3,3,1,3,1,09.998,9998,-2.2900,7.9200,0.2700,8.2488,-0.1265,-0.1113,0.4920,16.00,86.13,25.88,-3.0677,9.5394,0.6913,10.0443
3,3,1,3,1,10.162,10162,-2.2600,8.4500,0.3400,8.7536,-0.0720,-0.0338,0.2531,13.25,87.38,29.00,-2.9613,9.3958,0.6450,9.8725
3,3,1,3,1,10.283,10283,-1.8100,8.5700,0.3500,8.7660,-0.0295,0.0415,0.5258,10.56,87.75,31.63,-2.8096,9.2870,0.6061,9.7216
3,3,1,3,1,10.408,10408,-1.1700,9.3100,0.3700,9.3905,-0.0164,0.0284,0.4647,8.00,87.88,33.94,-2.5935,9.2900,0.5750,9.6624
3,3,1,3,1,10.529,10529,-0.3200,9.5400,0.3700,9.5525,0.0262,-0.0153,-0.1462,6.00,87.81,35.13,-2.2939,9.3230,0.5480,9.6167
3,3,1,3,1,10.651,10651,-1.1300,9.3900,0.2100,9.4601,0.0131,0.0196,0.4658,5.88,87.63,34.38,-2.1406,9.3318,0.5035,9.5874
3,3,1,3,1,10.772,10772,-0.5000,9.9100,0.7000,9.9473,0.0098,0.0153,0.0731,3.56,87.56,36.38,-1.9244,9.4080,0.5294,9.6174
3,3,1,3,1,10.893,10893,-0.5600,9.8000,0.3200,9.8212,0.0284,0.0436,-0.0164,3.25,87.44,36.00,-1.7446,9.4597,0.5018,9.6323
3,3,1,3,1,11.014,11014,-0.8500,9.8300,0.4700,9.8779,0.0076,0.0382,0.1265,3.75,87.38,35.19,-1.6267,9.5085,0.4976,9.6594
3,3,1,3,1,11.177,11177,-0.0500,9.5500,0.5700,9.5671,0.0469,0.0676,-0.0502,2.75,87.13,35.44,-1.4189,9.5139,0.5071,9.6325
3,3,1,3,1,11.303,11303,-0.8500,9.7600,0.4000,9.8051,0.0131,0.0654,0.1811,3.31,86.81,34.38,-1.3440,9.5464,0.4930,9.6531
3,3,1,3,1,11.425,11425,0.2400,9.5200,0.6700,9.5466,-0.0327,0.0622,0.1702,1.88,86.81,35.13,-1.1352,9.5429,0.5163,9.6240
3,3,1,3,1,11.545,11545,-0.9300,8.3200,0.5500,8.3899,-0.0011,0.0589,-0.1222,3.19,86.94,33.31,-1.1082,9.3817,0.5208,9.4613
3,3,1,3,1,11.666,11666,0.4400,8.4900,0.3800,8.5099,0.0327,0.0185,-0.0240,2.75,86.88,33.44,-0.9042,9.2642,0.5022,9.3218
3,4,1,3,1,11.787,11787,0.7800,10.1800,0.8600,10.2460,0.0698,-0.0611,-0.2291,2.31,86.63,34.00,-0.6822,9.3849,0.5494,9.4257
3,4,1,3,1,11.908,11908,-1.4600,10.3800,0.4500,10.4918,0.1134,-0.0916,-0.3054,6.13,86.00,30.38,-0.7847,9.5160,0.5363,9.5634
3,4,1,3,1,12.046,12046,-0.5700,8.2200,0.8800,8.2866,0.1276,-0.1309,-0.1953,8.06,85.13,29.63,-0.7564,9.3452,0.5816,9.3938
3,4,1,3,1,12.209,12209,-2.2400,8.4200,0.7800,8.7477,0.0316,-0.1014,-0.6392,12.44,84.44,26.63,-0.9519,9.2233,0.6077,9.2922
3,4,1,3,1,12.330,12330,-2.5700,9.6500,1.1300,10.0501,-0.0502,-0.1047,-0.0742,14.25,84.69,25.81,-1.1652,9.2795,0.6765,9.3769
3,4,1,3,1,12.451,12451,-2.5400,10.4200,0.5300,10.7382,-0.0960,-0.0927,-0.0153,14.13,85.38,26.69,-1.3463,9.4298,0.6572,9.5481
3,4,1,3,1,12.577,12577,-3.9600,10.9600,0.3500,11.6587,-0.1571,-0.0764,-0.2214,16.25,86.38,25.06,-1.6907,9.6315,0.6167,9.7982
3,4,1,3,1,12.698,12698,-3.2800,10.5600,0.4700,11.0677,-0.1178,0.0415,0.0469,16.88,87.25,24.63,-1.9002,9.7538,0.5974,9.9551
3,4,1,3,1,12.819,12819,-3.2300,9.5500,0.5200,10.0948,-0.0055,0.1331,-0.2640,18.19,87.44,23.00,-2.0754,9.7270,0.5872,9.9632
3,4,1,3,1,12.940,12940,-3.5800,10.2500,0.5000,10.8687,0.0611,0.1767,-0.0818,19.38,87.00,21.06,-2.2737,9.7959,0.5757,10.0728
3,4,1,3,1,13.061,13061,-3.3700,9.3400,0.5700,9.9457,0.1200,0.1353,-0.2422,20.38,85.94,19.56,-2.4181,9.7358,0.5750,10.0481
3,4,1,3,1,13.230,13230,-2.9100,10.0900,1.0000,10.5488,0.0851,0.1025,0.1200,19.38,84.56,19.94,-2.4830,9.7825,0.6310,10.1124
3,4,1,3,1,13.351,13351,-3.0600,10.7900,1.0400,11.2636,0.1353,0.0644,-0.1145,19.63,83.75,19.56,-2.5590,9.9153,0.6849,10.2630
3,4,1,3,1,13.471,13471,-2.7200,9.7000,0.8100,10.1067,0.5061,-0.0905,0.0916,19.63,81.31,20.38,-2.5802,9.8869,0.7014,10.2421
3,4,1,3,1,13.592,13592,-3.6800,9.5600,2.1000,10.4569,0.1789,-0.0949,0.3054,18.31,79.06,23.19,-2.7251,9.8438,0.8857,10.2524
3,4,1,3,1,13.713,13713,-2.4000,10.6900,2.0700,11.1499,-0.1331,-0.0851,-0.1156,16.88,79.44,25.06,-2.6823,9.9553,1.0417,10.3628
3,4,1,3,1,13.834,13834,-3.5100,7.3400,0.5900,8.1574,-0.4734,-0.0044,0.1582,17.50,81.25,24.31,-2.7914,9.6107,0.9822,10.0559
3,4,1,3,1,13.955,13955,-1.3800,11.8200,1.1400,11.9548,-0.2923,-0.0818,0.4265,16.88,84.31,24.38,-2.6054,9.9018,1.0030,10.2879
3,4,1,3,1,14.077,14077,-2.8200,10.9100,0.3200,11.2731,0.1233,-0.1396,0.3065,17.00,85.00,25.00,-2.6337,10.0347,0.9130,10.4146
3,4,1,3,1,14.240,14240,-3.3900,9.2400,1.2200,9.9176,0.3458,-0.0578,0.2083,15.00,83.13,28.56,-2.7333,9.9300,0.9535,10.3433
3,4,1,3,1,14.364,14364,-1.8100,7.1900,0.8800,7.4664,-0.0513,0.0840,-0.1244,12.94,82.31,30.63,-2.6117,9.5689,0.9438,9.9637
3,4,1,3,1,14.485,14485,-2.8400,8.9300,0.5000,9.3841,-0.2400,0.0807,0.3927,12.31,83.63,30.38,-2.6417,9.4847,0.8853,9.8855
3,4,1,3,1,14.605,14605,1.1600,7.5200,1.0400,7.6797,-0.0360,0.0218,0.5356,7.81,84.50,34.31,-2.1408,9.2258,0.9057,9.5141
3,4,1,3,1,14.726,14726,-3.6600,7.8100,0.6700,8.6510,-0.1625,0.0349,-0.1549,10.50,85.19,31.44,-2.3410,9.0392,0.8746,9.3783
3,5,1,3,1,14.847,14847,0.0800,10.2400,0.5000,10.2525,-0.1320,0.1462,0.2978,5.25,86.06,35.50,-2.0219,9.1975,0.8253,9.4532
3,5,1,3,1,14.968,14968,-1.2200,10.0000,0.5700,10.0903,-0.0720,0.1331,-0.1113,5.69,86.63,33.81,-1.9163,9.3032,0.7916,9.5315
3,5,1,3,1,15.089,15089,-0.2800,9.7100,0.5000,9.7269,-0.0513,0.1069,-0.0415,5.00,86.94,33.38,-1.7007,9.3568,0.7532,9.5399
3,5,1,3,1,15.251,15251,-1.1000,10.0100,0.4900,10.0822,-0.0578,0.0709,-0.1604,6.13,87.38,30.94,-1.6215,9.4429,0.7185,9.6080
3,5,1,3,1,15.377,15377,-0.5600,9.8900,0.3800,9.9131,-0.0327,0.0502,0.2007,5.63,87.63,30.88,-1.4816,9.5018,0.6739,9.6402
3,5,1,3,1,15.498,15498,-0.8500,9.9900,0.3000,10.0306,0.0098,-0.0076,0.0098,5.44,87.69,30.56,-1.3984,9.5661,0.6246,9.6880
3,5,1,3,1,15.619,15619,-0.8100,9.7600,0.3700,9.8005,0.0175,-0.0262,0.0142,5.50,87.63,30.56,-1.3209,9.5917,0.5911,9.7002
3,5,1,3,1,15.739,15739,-0.7300,9.5800,0.5900,9.6259,0.0087,-0.0251,-0.1309,5.69,87.56,30.56,-1.2430,9.5901,0.5909,9.6884
3,5,1,3,1,15.860,15860,-1.4700,7.9700,0.5000,8.1198,0.0153,-0.0098,0.0458,6.00,87.56,30.13,-1.2729,9.3767,0.5790,9.4804
3,5,1,3,1,15.981,15981,1.2300,8.8100,0.5200,8.9106,0.0393,0.0109,0.4440,2.38,87.31,33.50,-0.9431,9.3020,0.5712,9.3671
3,5,1,3,1,16.103,16103,-2.0700,9.2500,0.7100,9.5053,0.0033,-0.0120,-0.3174,5.25,87.13,30.50,-1.0916,9.2951,0.5895,9.3776
3,5,1,3,1,16.270,16270,-1.2600,10.1300,0.4700,10.2189,0.0153,-0.0087,-0.4691,6.69,87.13,29.00,-1.1138,9.4051,0.5737,9.4882
3,5,1,3,1,16.391,16391,-2.3600,9.0000,0.4000,9.3129,0.0644,-0.0491,-0.3523,10.25,86.81,25.69,-1.2780,9.3518,0.5508,9.4547
3,5,1,3,1,16.512,16512,-1.2000,9.7600,0.6600,9.8556,0.1036,-0.0927,-0.3185,11.00,86.38,25.56,-1.2677,9.4056,0.5652,9.5074
3,5,1,3,1,16.633,16633,-3.3400,9.8800,0.8000,10.4599,0.0796,-0.0076,0.1734,11.94,85.81,25.38,-1.5408,9.4681,0.5962,9.6111
3,5,1,3,1,16.754,16754,-2.8800,9.4500,0.8000,9.9115,-0.1058,0.1658,-0.2934,12.94,85.81,24.25,-1.7173,9.4657,0.6230,9.6404
3,5,1,3,1,16.875,16875,-2.5900,11.2200,0.4000,11.5220,-0.1309,0.3185,0.3840,14.25,86.31,21.19,-1.8323,9.6969,0.5936,9.8863
3,5,1,3,1,16.997,16997,-2.9500,10.5600,0.5900,10.9802,0.2334,0.1047,-0.5945,15.31,85.31,18.88,-1.9796,9.8106,0.5932,10.0259
3,5,1,3,1,17.123,17123,-1.3500,8.5500,1.0100,8.7146,0.1494,-0.0447,-0.2662,15.06,83.69,19.69,-1.8966,9.6445,0.6481,9.8505
3,5,1,3,1,17.285,17285,-2.8000,9.9900,1.4700,10.4786,-0.1025,-0.1287,0.0076,17.56,84.06,18.50,-2.0156,9.6900,0.7564,9.9263
3,5,1,3,1,17.406,17406,-3.1800,11.4900,0.8000,11.9487,-0.0316,-0.1505,0.2989,17.13,84.94,20.06,-2.1691,9.9272,0.7621,10.1900
3,5,1,3,1,17.527,17527,-1.5500,9.8900,0.6100,10.0293,-0.0251,-0.1669,-0.0905,16.31,85.38,22.06,-2.0875,9.9223,0.7421,10.1666
3,5,1,3,1,17.665,17665,-3.0700,7.8100,0.6700,8.4184,-0.0098,-0.1647,-0.2149,18.56,85.81,21.13,-2.2170,9.6440,0.7326,9.9226
3,5,1,3,1,17.786,17786,-3.7800,11.2200,0.6900,11.8597,-0.0349,-0.1593,0.4440,17.94,86.44,23.00,-2.4229,9.8516,0.7270,10.1712
3,5,1,3,1,17.907,17907,-3.7100,13.7700,0.6200,14.2745,-0.0567,-0.1505,-0.3469,15.94,87.13,26.06,-2.5925,10.3680,0.7129,10.7110
3,5,1,3,1,18.028,18028,-3.5500,10.0000,0.1000,10.6119,0.0196,-0.0415,-0.2007,18.19,87.38,24.38,-2.7187,10.3195,0.6321,10.6903
3,5,1,3,1,18.149,18149,-3.2300,8.2000,0.5200,8.8286,0.0055,-0.0644,-0.1178,18.56,87.38,24.31,-2.7861,10.0402,0.6173,10.4379
3,5,1,3,1,18.312,18312,-2.7800,8.0600,0.1300,8.5270,-0.0087,-0.0382,0.0753,17.19,87.63,26.00,-2.7853,9.7793,0.5531,10.1832
3,5,1,3,1,18.437,18437,-2.7500,7.7100,-0.0300,8.1858,-0.1898,0.0316,0.3480,15.31,88.31,27.75,-2.7806,9.5066,0.4763,9.9163
3,5,1,3,1,18.559,18559,-1.8700,10.4200,0.4400,10.5956,-0.0251,0.1844,0.1145,13.06,89.13,28.81,-2.6606,9.6269,0.4715,9.9990
3,5,1,3,1,18.679,18679,-1.8300,9.4200,0.1300,9.5970,0.1658,0.0764,0.3349,11.75,88.31,29.50,-2.5512,9.5997,0.4265,9.9420
3,5,1,3,1,18.800,18800,-1.4100,7.6500,0.5200,7.7962,0.1484,0.0949,0.2814,10.88,87.06,30.13,-2.4008,9.3428,0.4388,9.6563
3,5,1,3,1,18.921,18921,-1.1300,7.7900,0.7100,7.9035,-0.0033,0.0927,0.3087,9.50,86.50,30.88,-2.2333,9.1381,0.4746,9.4191
3,5,1,3,1,19.042,19042,-1.1100,8.0700,0.6300,8.1703,-0.0709,0.0796,0.5236,8.31,86.69,31.56,-2.0853,8.9974,0.4950,9.2491
3,6,1,3,1,19.163,19163,-0.0800,10.8500,0.7000,10.8729,-0.1025,0.0807,0.5291,4.13,87.25,34.63,-1.8211,9.2415,0.5220,9.4337
3,6,1,3,1,19.330,19330,-1.6800,9.5700,0.2100,9.7186,-0.0687,0.0087,-0.4560,5.06,88.06,32.94,-1.8025,9.2848,0.4809,9.4704
3,6,1,3,1,19.452,19452,-0.2100,10.0900,0.4900,10.1041,-0.0251,-0.0284,0.0327,4.38,88.44,33.06,-1.5926,9.3909,0.4821,9.5372
3,6,1,3,1,19.572,19572,-0.4700,9.8700,0.1900,9.8830,0.0207,-0.0578,-0.0273,3.94,88.38,33.38,-1.4447,9.4540,0.4436,9.5741
3,6,1,3,1,19.693,19693,-0.4900,9.8300,0.3700,9.8492,0.0535,-0.0524,-0.0142,3.94,88.13,33.75,-1.3189,9.5036,0.4339,9.6045
3,6,1,3,1,19.814,19814,-0.5400,9.7800,0.3700,9.8019,0.0218,-0.0578,-0.0022,3.69,87.88,34.13,-1.2163,9.5400,0.4255,9.6266
3,6,1,3,1,19.935,19935,-1.0400,9.8400,0.3600,9.9014,0.0295,-0.0065,-0.1342,4.56,87.75,33.31,-1.1930,9.5795,0.4169,9.6625
3,6,1,3,1,20.056,20056,-0.6700,9.7600,0.5700,9.7996,0.0327,0.0196,-0.1745,4.69,87.56,33.06,-1.1241,9.6033,0.4370,9.6788
3,6,1,3,1,20.177,20177,-1.3800,9.0400,0.5100,9.1589,0.0011,0.0382,-0.1756,5.81,87.50,31.69,-1.1578,9.5291,0.4467,9.6096
3,6,1,3,1,20.344,20344,-0.5900,8.0300,0.7400,8.0856,-0.0327,0.0316,-0.4756,6.56,87.63,30.38,-1.0830,9.3315,0.4853,9.4067
3,6,1,3,1,20.465,20465,-1.2900,10.0100,-0.0900,10.0932,-0.0120,0.0295,0.1091,6.75,87.69,29.75,-1.1103,9.4209,0.4095,9.4950
3,6,1,3,1,20.585,20585,-2.1800,9.6000,0.4000,9.8525,0.0284,-0.0785,-0.4734,9.06,87.56,27.81,-1.2512,9.4445,0.4083,9.5358
3,6,1,3,1,20.706,20706,-3.0800,9.1600,0.6000,9.6826,-0.0098,-0.0185,-0.4647,10.94,87.50,26.25,-1.4922,9.4070,0.4335,9.5345
3,6,1,3,1,20.827,20827,-1.6000,10.2400,0.6400,10.3840,-0.0109,0.0360,-0.0480,11.69,87.88,25.56,-1.5064,9.5168,0.4607,9.6463
3,6,1,3,1,20.948,20948,-1.5700,9.4200,0.3700,9.5571,0.1287,-0.0131,0.4527,11.75,87.38,26.00,-1.5148,9.5041,0.4488,9.6345
3,6,1,3,1,21.070,21070,-2.8700,9.2800,0.5300,9.7281,0.0458,-0.0284,-0.5411,11.06,86.81,27.06,-1.6934,9.4745,0.4595,9.6356
3,6,1,3,1,21.196,21196,-1.9900,9.1900,0.7700,9.4345,-0.0142,-0.0829,-0.3229,11.88,86.75,26.56,-1.7325,9.4370,0.5004,9.6078
3,6,1,3,1,21.358,21358,-1.9100,8.7600,0.6500,8.9893,0.0065,-0.1265,-0.2225,12.88,87.00,26.69,-1.7559,9.3478,0.5201,9.5255
3,6,1,3,1,21.479,21479,-3.4000,9.6800,0.5400,10.2739,-0.0240,-0.1124,-0.2923,13.94,87.25,26.69,-1.9725,9.3916,0.5227,9.6107
3,6,1,3,1,21.600,21600,-2.4400,10.2300,0.1600,10.5182,0.0109,-0.0175,0.0240,14.00,87.44,27.06,-2.0341,9.5021,0.4749,9.7290
3,6,1,3,1,21.721,21721,-2.4000,10.3500,0.4800,10.6355,0.1080,0.0698,0.0371,13.63,87.00,27.44,-2.0823,9.6138,0.4756,9.8482
3,6,1,3,1,21.842,21842,-3.4400,10.5600,0.7100,11.1289,0.1571,0.1396,0.0175,13.63,85.81,26.94,-2.2612,9.7385,0.5065,10.0104
3,7,1,3,1,21.980,21980,-1.0100,9.4400,1.1100,9.5585,0.1604,0.1593,-0.3611,12.81,84.25,26.63,-2.0964,9.6992,0.5860,9.9404
3,7,1,3,1,22.100,22100,-2.2400,9.4800,0.5900,9.7589,-0.0709,0.0033,-0.2563,15.31,83.94,23.63,-2.1153,9.6703,0.5865,9.9163
3,7,1,3,1,22.221,22221,-3.7700,9.9100,0.9600,10.6462,-0.1440,-0.0327,-0.0295,17.19,84.88,22.31,-2.3333,9.7019,0.6358,9.9987
3,7,1,3,1,22.384,22384,-3.5400,9.4000,0.5200,10.0579,-0.0578,0.0436,-0.0469,17.31,85.56,22.25,-2.4923,9.6621,0.6205,9.9976
3,7,1,3,1,22.510,22510,-2.0000,9.7700,0.4500,9.9828,-0.0862,0.0415,-0.0382,16.00,86.00,23.13,-2.4275,9.6763,0.5980,9.9941
3,7,1,3,1,22.632,22632,-3.8800,10.2700,0.6900,11.0002,-0.0382,0.0218,0.2651,16.94,86.44,22.38,-2.6189,9.7545,0.6102,10.1184
3,7,1,3,1,22.752,22752,-2.2800,13.2900,0.9000,13.5142,-0.0055,0.1014,0.6054,12.63,86.69,26.25,-2.5742,10.2204,0.6483,10.5595
3,7,1,3,1,22.873,22873,-2.0200,9.3100,0.5500,9.5425,-0.0044,0.0349,-0.3153,11.50,86.44,26.81,-2.5012,10.1005,0.6354,10.4249
3,7,1,3,1,22.994,22994,-0.9600,10.5900,1.7600,10.7781,0.0578,0.0240,0.3240,9.06,86.31,28.88,-2.2981,10.1650,0.7836,10.4509
3,7,1,3,1,23.115,23115,0.0100,10.2300,1.3800,10.3227,0.0731,0.0120,0.1800,7.75,85.88,30.25,-1.9939,10.1735,0.8622,10.4029
3,7,1,3,1,23.236,23236,-3.7600,11.0900,0.5100,11.7212,0.0894,-0.0295,0.3065,8.75,85.31,29.31,-2.2267,10.2943,0.8158,10.5639
3,7,1,3,1,23.404,23404,-2.0200,7.9000,0.4100,8.1645,-0.0687,-0.0502,-0.1571,9.31,85.19,28.94,-2.1994,9.9788,0.7623,10.2467
3,7,1,3,1,23.525,23525,-1.8100,7.0200,0.2500,7.2539,-0.1167,-0.1560,-0.5345,8.88,86.00,29.63,-2.1481,9.5889,0.6948,9.8511
3,7,1,3,1,23.645,23645,-2.6800,8.1100,0.4600,8.5537,-0.1571,-0.0665,0.1374,8.38,87.06,30.63,-2.2182,9.3940,0.6639,9.6752
3,7,1,3,1,23.766,23766,0.7700,9.0100,0.2500,9.0463,-0.0393,-0.0185,1.0407,4.00,87.94,35.06,-1.8244,9.3434,0.6093,9.5394
3,7,1,3,1,23.887,23887,0.6800,10.1000,0.9000,10.1628,0.0087,-0.0665,0.5171,0.31,88.06,38.56,-1.4944,9.4431,0.6476,9.5825
3,7,1,3,1,24.008,24008,0.5900,9.8200,0.5700,9.8542,0.0338,0.0044,-0.0567,-0.44,88.00,39.44,-1.2197,9.4928,0.6374,9.5920
3,7,1,3,1,24.130,24130,-0.6900,10.0300,0.3400,10.0595,0.0436,-0.0338,-0.3185,1.13,87.69,37.31,-1.1499,9.5636,0.5982,9.6510
3,7,1,3,1,24.251,24251,-0.4100,10.0700,0.5400,10.0928,0.0535,-0.0065,-0.1080,1.63,87.38,36.63,-1.0524,9.6303,0.5905,9.7056
3,7,1,3,1,24.418,24418,0.1600,9.6700,0.5300,9.6858,0.0087,-0.0338,-0.0022,1.31,87.00,37.06,-0.8927,9.6355,0.5826,9.6943
3,7,1,3,1,24.538,24538,-0.1000,9.4200,0.5400,9.4360,-0.0545,-0.0153,0.1091,1.50,87.19,37.00,-0.7882,9.6071,0.5769,9.6567
3,7,1,3,1,24.659,24659,-0.2200,9.6200,0.6200,9.6425,-0.0807,-0.0087,-0.1189,1.63,87.69,36.94,-0.7133,9.6088,0.5826,9.6529
3,7,1,3,1,24.780,24780,-0.5700,9.3700,0.4800,9.3996,-0.0480,-0.0153,-0.1647,2.38,88.06,36.13,-0.6944,9.5774,0.5691,9.6194
3,7,1,3,1,24.901,24901,-0.3200,8.2900,0.2400,8.2996,-0.0033,-0.0218,-0.2313,3.25,88.19,35.25,-0.6451,9.4077,0.5257,9.4445
3,7,1,3,1,25.023,25023,-0.8900,9.1500,-0.2600,9.1969,-0.0862,-0.0447,-0.2062,3.88,88.50,34.81,-0.6774,9.3738,0.4222,9.4077
3,7,1,3,1,25.149,25149,-1.2300,9.5400,0.1100,9.6196,-0.0862,-0.0502,-0.3523,5.19,89.13,33.75,-0.7502,9.3957,0.3811,9.4333
3,7,1,3,1,25.271,25271,-0.0700,9.2400,0.2600,9.2439,0.0011,-0.0873,0.0633,6.06,89.44,33.31,-0.6606,9.3752,0.3651,9.4055
3,7,1,3,1,25.434,25434,-0.9800,9.5600,0.4000,9.6184,0.0382,-0.0698,-0.0185,8.50,89.38,31.75,-0.7027,9.3995,0.3697,9.4330
3,7,1,3,1,25.558,25558,-2.7800,9.6200,-0.1000,10.0141,0.0709,-0.0196,-0.2727,9.94,88.94,30.69,-0.9764,9.4286,0.3078,9.4840
3,7,1,3,1,25.679,25679,-2.2900,10.7100,-0.2900,10.9559,0.0644,0.0720,0.1200,8.25,88.56,32.13,-1.1495,9.5974,0.2290,9.6687
3,7,1,3,1,25.802,25802,-1.6200,10.1800,0.9400,10.3509,0.1636,-0.0022,-0.2585,9.06,87.38,31.13,-1.2115,9.6742,0.3227,9.7551
3,7,1,3,1,25.923,25923,-1.5600,9.4400,0.3000,9.5727,0.1014,-0.0916,-1.1454,10.38,86.63,30.25,-1.2574,9.6433,0.3197,9.7302
3,7,1,3,1,26.044,26044,-2.7600,10.2000,0.3600,10.5729,0.0153,-0.0153,0.6120,11.25,86.31,30.50,-1.4554,9.7167,0.3250,9.8305
3,7,1,3,1,26.165,26165,-1.1300,10.3700,0.7800,10.4605,-0.0480,-0.0011,-0.2749,9.50,86.50,32.75,-1.4125,9.8028,0.3850,9.9115
3,7,1,3,1,26.286,26286,-2.4500,10.8800,0.7900,11.1804,-0.0207,0.0644,-0.3316,11.69,86.69,30.63,-1.5493,9.9447,0.4384,10.0742
3,7,1,3,1,26.452,26452,-2.7600,9.6100,0.5500,10.0136,0.0327,0.0742,-0.0622,12.50,86.31,29.31,-1.7088,9.9006,0.4531,10.0572
3,7,1,3,1,26.575,26575,-2.3900,9.5400,0.6900,9.8590,-0.0284,0.1145,-0.1844,11.69,86.19,29.56,-1.7986,9.8531,0.4843,10.0276
3,7,1,3,1,26.696,26696,-1.6200,10.4900,0.7100,10.6381,-0.1560,0.0676,0.1047,11.50,86.69,29.00,-1.7750,9.9370,0.5140,10.1074
3,7,1,3,1,26.817,26817,-1.8700,12.3500,0.2400,12.4931,-0.0262,-0.1396,0.1124,10.75,87.31,29.94,-1.7875,10.2550,0.4779,10.4206
3,7,1,3,1,26.938,26938,-0.4100,11.2000,0.7500,11.2326,0.0393,-0.1669,0.4658,7.69,87.25,34.38,-1.6060,10.3795,0.5138,10.5156
3,7,1,3,1,27.059,27059,-3.0900,9.7700,0.1500,10.2481,-0.0785,-0.0862,-0.3545,9.44,87.44,33.56,-1.8016,10.2992,0.4658,10.4660
3,7,1,3,1,27.180,27180,-1.8900,9.3900,-0.6200,9.5984,-0.3534,0.0905,-0.3534,9.38,89.19,33.06,-1.8132,10.1794,0.3228,10.3447
3,7,1,3,1,27.301,27301,-2.0900,12.8800,-0.7600,13.0706,0.2182,-0.1538,-0.4047,9.06,89.75,33.44,-1.8497,10.5353,0.1801,10.6979
3,8,1,3,1,27.468,27468,-2.7800,9.4900,0.5800,9.9058,0.0284,0.1113,-0.0284,10.13,87.50,32.69,-1.9723,10.3975,0.2328,10.5855
3,8,1,3,1,27.589,27589,-0.5300,11.0500,0.2200,11.0649,0.0229,0.0698,0.0065,8.56,87.50,33.38,-1.7822,10.4835,0.2311,10.6364
3,8,1,3,1,27.709,27709,-0.2300,8.4300,0.3300,8.4396,-0.0055,0.0011,0.4527,7.00,87.38,34.94,-1.5777,10.2129,0.2441,10.3369
3,8,1,3,1,27.830,27830,-0.7300,5.9700,-0.0300,6.0145,-0.2443,0.2880,-0.6763,6.06,88.25,34.81,-1.4660,9.6538,0.2080,9.7667
3,8,1,3,1,27.951,27951,0.5800,9.7100,0.5400,9.7423,-0.0262,0.1276,0.7167,6.19,89.06,32.56,-1.1964,9.6612,0.2518,9.7383
3,8,1,3,1,28.072,28072,0.0000,9.5900,0.7400,9.6185,0.1560,-0.0840,0.2553,2.25,88.44,36.69,-1.0387,9.6518,0.3161,9.7127
3,8,1,3,1,28.194,28194,-0.5200,8.6100,0.4800,8.6390,0.0905,-0.0284,0.0175,2.56,87.56,36.31,-0.9704,9.5145,0.3377,9.5699
3,8,1,3,1,28.320,28320,0.0000,10.5000,0.4000,10.5076,0.0109,-0.0447,0.3000,1.25,87.25,37.88,-0.8425,9.6444,0.3459,9.6873
3,8,1,3,1,28.483,28483,-1.1300,10.5000,0.2800,10.5643,-0.0033,0.0109,0.3414,1.00,87.25,37.94,-0.8804,9.7571,0.3372,9.8026
3,8,1,3,1,28.603,28603,1.1800,10.0800,0.1700,10.1503,0.0185,-0.0207,0.0993,-2.38,87.13,41.13,-0.6089,9.7997,0.3152,9.8236
3,8,1,3,1,28.724,28724,-0.3200,9.8300,0.5900,9.8529,0.0316,0.0185,0.0654,-1.50,87.00,40.38,-0.5708,9.8037,0.3514,9.8266
3,8,1,3,1,28.845,28845,0.8600,10.1700,0.7300,10.2324,-0.0087,0.0840,0.0153,-1.88,86.94,40.19,-0.3823,9.8520,0.4013,9.8675
3,8,1,3,1,28.966,28966,1.0600,8.2100,0.6600,8.3044,-0.0109,0.0687,0.2574,-2.75,87.06,40.44,-0.1922,9.6356,0.4354,9.6473
3,8,1,3,1,29.088,29088,1.1200,12.3700,0.3700,12.4261,-0.0720,0.0687,0.7614,-4.31,87.38,41.75,-0.0193,9.9959,0.4268,10.0050
3,8,1,3,1,29.213,29213,-3.3800,8.9700,-0.1500,9.5869,-0.0284,-0.0556,-1.7431,-2.00,87.50,39.31,-0.4622,9.8607,0.3508,9.8778
3,8,1,3,1,29.335,29335,1.9200,9.2300,-0.2700,9.4314,0.0087,-0.0109,-0.2214,-4.06,87.63,41.38,-0.1482,9.7776,0.2690,9.7824
3,8,1,3,1,29.497,29497,-0.4900,4.1500,0.2500,4.1863,0.1527,-0.1113,-2.7653,-3.88,86.81,40.88,-0.1933,9.0360,0.2665,9.0420
3,8,1,3,1,29.618,29618,1.7400,7.6700,0.8800,7.9140,-0.0458,0.0153,0.6043,0.06,86.50,36.88,0.0615,8.8560,0.3473,8.8630
3,8,1,3,1,29.740,29740,8.2700,7.1400,1.1600,10.9872,0.0022,-0.0742,-1.1497,-5.75,86.75,42.56,1.1432,8.6299,0.4544,8.7171
3,8,1,3,1,29.865,29865,-0.8400,7.0300,0.3500,7.0887,0.0905,-0.0556,2.0933,5.63,86.44,32.06,0.8818,8.4191,0.4406,8.4766
3,8,1,3,1,29.987,29987,4.9200,6.5500,0.3000,8.1975,-0.0480,-0.1342,0.3174,-1.00,86.44,39.63,1.4140,8.1728,0.4221,8.3049
3,8,1,3,1,30.107,30107,-2.8900,9.5000,0.9300,9.9733,0.0371,-0.0393,0.8039,8.00,86.50,31.56,0.8468,8.3477,0.4890,8.4047
3,8,1,3,1,30.228,30228,-1.8700,9.4700,1.4200,9.7568,0.1385,-0.1320,0.2236,7.31,85.88,33.13,0.4888,8.4956,0.6117,8.5316
3,8,1,3,1,30.349,30349,-2.6600,10.6300,0.7400,10.9827,0.0513,-0.0502,-0.3371,8.00,85.19,33.19,0.0739,8.7768,0.6286,8.7996
3,8,1,3,1,30.512,30512,-1.4200,11.1200,0.8900,11.2456,-0.1254,0.0742,-0.0076,8.06,85.75,33.00,-0.1230,9.0856,0.6631,9.1106
3,8,1,3,1,30.638,30638,-1.9100,10.6100,0.7800,10.8087,-0.0796,0.1309,0.3163,10.38,86.31,30.00,-0.3585,9.2865,0.6785,9.3181
3,8,1,3,1,30.759,30759,-3.7800,11.4500,0.6800,12.0770,-0.0316,0.2443,0.1680,9.94,86.50,29.19,-0.8093,9.5716,0.6787,9.6297
3,8,1,3,1,30.880,30880,-0.3400,10.6300,0.8100,10.6662,-0.1145,0.2553,-0.5389,8.38,86.75,28.69,-0.7475,9.7110,0.6960,9.7646
3,8,1,3,1,31.001,31001,-2.1600,11.1200,0.4900,11.3384,-0.0633,0.1800,0.0251,11.25,87.25,24.44,-0.9336,9.8967,0.6688,9.9631
3,8,1,3,1,31.122,31122,-0.9100,9.7900,-0.1300,9.8331,0.0044,0.1134,0.9043,7.88,87.00,27.00,-0.9305,9.8826,0.5636,9.9423
3,8,1,3,1,31.259,31259,-1.7200,11.8400,1.0200,12.0077,-0.0164,-0.0338,-0.3512,6.94,86.75,28.00,-1.0345,10.1406,0.6237,10.2123
3,8,1,3,1,31.381,31381,-1.4900,13.0000,1.1600,13.1364,-0.1014,0.0164,0.4156,5.56,87.38,29.50,-1.0946,10.5174,0.6944,10.5970
3,8,1,3,1,31.543,31543,-2.8600,9.5000,0.3800,9.9284,-0.0033,-0.2258,-0.8574,5.50,87.75,30.19,-1.3272,10.3833,0.6530,10.4881
3,8,1,3,1,31.664,31664,-0.0100,11.0300,0.1300,11.0308,0.0698,-0.0720,-0.1080,5.25,87.69,31.31,-1.1536,10.4685,0.5840,10.5481
3,8,1,3,1,31.791,31791,-0.6800,11.6600,0.7400,11.7032,-0.0087,-0.0633,0.5116,5.06,87.44,32.06,-1.0912,10.6255,0.6046,10.6985
3,9,1,3,1,31.913,31913,0.9000,9.7000,0.1900,9.7435,0.0360,-0.0851,0.1833,3.94,87.25,33.81,-0.8288,10.5036,0.5500,10.5506
3,9,1,3,1,32.033,32033,-2.7000,9.3800,0.5800,9.7781,-0.0098,-0.0622,-0.1778,4.75,87.06,33.69,-1.0754,10.3555,0.5539,10.4259
3,9,1,3,1,32.154,32154,-1.7800,8.9700,0.1400,9.1460,-0.0382,-0.0753,0.0055,3.06,87.13,35.44,-1.1682,10.1729,0.4994,10.2520
3,9,1,3,1,32.275,32275,0.2900,7.8600,0.6600,7.8930,-0.0109,-0.0327,0.6229,0.25,87.31,38.44,-0.9761,9.8682,0.5205,9.9300
3,9,1,3,1,32.396,32396,1.3200,7.7400,0.6200,7.8762,-0.0327,-0.0371,0.1538,-1.88,87.56,40.75,-0.6735,9.5877,0.5336,9.6261
3,9,1,3,1,32.559,32559,1.3100,10.0400,0.3900,10.1326,0.0000,-0.0404,0.3229,-4.00,87.81,43.06,-0.4121,9.6473,0.5147,9.6698
3,9,1,3,1,32.683,32683,1.9800,9.9600,1.0400,10.2080,0.0011,-0.0120,-0.0175,-5.56,87.75,44.81,-0.0969,9.6885,0.5839,9.7066
3,9,1,3,1,32.804,32804,-0.2200,9.8100,0.3300,9.8180,0.0076,0.0589,0.3785,-4.13,87.69,43.25,-0.1131,9.7045,0.5505,9.7208
3,9,1,3,1,32.926,32926,1.9100,9.9700,0.5000,10.1636,0.0076,0.0622,0.1396,-7.00,87.69,45.63,0.1535,9.7395,0.5438,9.7559
3,9,1,3,1,33.047,33047,1.1600,9.7200,0.3700,9.7960,0.0327,0.1047,-0.2007,-6.19,87.56,44.25,0.2861,9.7369,0.5209,9.7551
3,9,1,3,1,33.168,33168,0.5100,9.8400,0.5300,9.8675,0.0044,0.1276,0.1407,-4.75,87.50,42.06,0.3156,9.7505,0.5221,9.7696
3,9,1,3,1,33.289,33289,2.4100,7.3400,0.4700,7.7398,0.0044,0.0982,-0.4549,-4.94,87.56,41.44,0.5916,9.4329,0.5152,9.4654
3,9,1,3,1,33.410,33410,-0.9700,9.4800,1.0200,9.5839,-0.0382,0.0644,0.1320,-2.06,87.75,38.06,0.3858,9.4391,0.5818,9.4649
3,9,1,3,1,33.577,33577,-0.8100,10.3100,-0.4700,10.3524,-0.0327,-0.0251,-0.2847,-3.75,87.81,39.50,0.2282,9.5538,0.4432,9.5668
3,9,1,3,1,33.699,33699,0.1200,8.8400,0.0200,8.8408,0.0382,-0.1014,-0.7559,-3.69,87.94,39.69,0.2140,9.4598,0.3874,9.4701
3,9,1,3,1,33.820,33820,1.5400,9.0900,0.5400,9.2353,-0.0065,-0.0425,-0.3425,-3.25,88.00,39.69,0.3887,9.4111,0.4075,9.4279
3,9,1,3,1,33.941,33941,-0.4000,9.7600,0.7900,9.8001,0.0633,-0.0469,-0.3578,-1.19,87.94,37.81,0.2848,9.4570,0.4579,9.4724
3,9,1,3,1,34.062,34062,0.7800,9.6200,0.7100,9.6776,0.1429,0.0022,0.1462,-2.19,87.25,38.88,0.3500,9.4785,0.4911,9.4977
3,9,1,3,1,34.183,34183,2.0500,9.2900,0.2600,9.5170,0.1909,0.0087,0.0185,-1.75,86.00,38.44,0.5740,9.4537,0.4607,9.4823
3,9,1,3,1,34.305,34305,-1.0400,10.2300,0.5600,10.2980,0.1789,0.0229,-0.2389,0.94,84.75,35.63,0.3614,9.5560,0.4738,9.5745
3,9,1,3,1,34.431,34431,-0.1700,10.2300,1.0600,10.2862,0.1113,0.0764,-0.0164,2.25,83.81,34.00,0.2913,9.6448,0.5510,9.6649
3,9,1,3,1,34.594,34594,0.2300,10.8400,1.4900,10.9443,0.0633,0.0251,-0.1604,2.56,83.06,33.13,0.2833,9.8023,0.6747,9.8296
3,9,1,3,1,34.715,34715,-0.3700,10.8200,1.6700,10.9544,-0.0229,-0.0011,0.0251,3.38,82.94,32.31,0.1972,9.9364,0.8059,9.9710
3,9,1,3,1,34.841,34841,-2.5000,11.4800,1.2000,11.8102,-0.1025,-0.0153,-0.1025,4.94,83.31,30.81,-0.1582,10.1398,0.8578,10.1773
3,9,1,3,1,34.963,34963,0.6600,10.8000,1.3800,10.9078,-0.0993,-0.0229,-0.6687,3.19,84.19,32.44,-0.0504,10.2268,0.9266,10.2688
3,9,1,3,1,35.083,35083,-1.9100,7.3200,0.6800,7.5956,-0.0349,-0.0425,-0.1614,7.38,84.50,28.50,-0.2955,9.8438,0.8941,9.8887
3,9,1,3,1,35.204,35204,-1.4400,10.5300,0.9500,10.6704,-0.0284,0.0218,0.3523,6.69,84.69,29.25,-0.4463,9.9342,0.9015,9.9850
3,9,1,3,1,35.325,35325,0.2200,19.2600,1.2000,19.2986,-0.0884,0.0884,0.5247,3.56,85.13,31.94,-0.3585,11.1631,0.9408,11.2084
3,10,1,3,1,35.446,35446,-3.8800,10.9700,0.9900,11.6780,0.0251,0.0131,-1.0188,7.19,85.00,28.06,-0.8225,11.1376,0.9473,11.2081
3,10,1,3,1,35.609,35609,-0.8500,9.0100,0.8000,9.0853,0.0284,-0.0131,-0.1789,7.50,84.75,27.38,-0.8262,10.8573,0.9279,10.9281
3,10,1,3,1,35.734,35734,-1.2400,8.8700,0.1400,8.9573,-0.0076,-0.0698,-0.0851,7.56,84.75,27.69,-0.8807,10.5954,0.8241,10.6638
3,10,1,3,1,35.856,35856,-1.4600,7.7200,0.2600,7.8611,-0.0022,-0.0382,0.1724,8.94,84.81,26.75,-0.9570,10.2165,0.7497,10.2886
3,10,1,3,1,35.976,35976,-0.2400,7.5400,0.5700,7.5653,-0.0087,-0.0447,-0.0153,7.56,84.94,28.38,-0.8625,9.8638,0.7261,9.9280
3,10,1,3,1,36.097,36097,-1.8400,9.4200,1.1200,9.6631,-0.0491,-0.0436,0.1244,7.56,85.25,28.63,-0.9913,9.8053,0.7780,9.8860
3,10,1,3,1,36.218,36218,-1.2500,9.2600,0.8800,9.3853,-0.0055,-0.0480,0.0273,7.25,85.38,29.25,-1.0254,9.7335,0.7914,9.8193
3,10,1,3,1,36.339,36339,-0.5300,8.4600,0.2900,8.4815,-0.0393,-0.0753,0.0753,5.38,85.25,31.56,-0.9601,9.5657,0.7253,9.6410
3,10,1,3,1,36.461,36461,-2.7800,9.2600,0.9000,9.7101,-0.1156,-0.0044,-0.0905,5.81,85.81,31.25,-1.2000,9.5254,0.7484,9.6298
3,10,1,3,1,36.624,36624,0.7300,10.2200,0.7100,10.2706,-0.0665,-0.0436,0.0338,0.63,86.81,36.38,-0.9456,9.6169,0.7433,9.6918
3,10,1,3,1,36.748,36748,-1.3100,10.1400,0.5400,10.2385,0.0229,0.0491,-0.0982,2.00,86.88,35.06,-0.9936,9.6858,0.7165,9.7630
3,10,1,3,1,36.869,36869,0.2700,9.7800,0.7100,9.8095,0.0218,0.0884,0.0916,0.56,86.63,35.88,-0.8271,9.6982,0.7157,9.7597
3,10,1,3,1,36.990,36990,-0.2900,9.7600,0.7600,9.7938,-0.0120,0.0644,-0.0436,0.75,86.50,35.25,-0.7564,9.7064,0.7215,9.7625
3,10,1,3,1,37.111,37111,0.7700,9.4900,0.7600,9.5515,-0.0513,0.0676,0.2367,-0.19,86.75,35.75,-0.5552,9.6779,0.7266,9.7210
3,10,1,3,1,37.232,37232,0.4100,10.0600,0.7800,10.0985,-0.0785,0.0545,-0.0589,-0.50,87.06,35.69,-0.4280,9.7282,0.7336,9.7652
3,10,1,3,1,37.353,37353,-0.1200,9.8500,0.4900,9.8629,-0.0371,0.0447,-0.0622,-0.06,87.38,34.88,-0.3874,9.7443,0.7015,9.7772
3,10,1,3,1,37.475,37475,0.4200,8.7100,0.3100,8.7256,0.0109,-0.0153,-0.2149,-0.25,87.38,34.94,-0.2810,9.6080,0.6499,9.6340
3,10,1,3,1,37.641,37641,0.6800,8.3200,0.4700,8.3610,0.0164,-0.0098,0.2422,-0.88,87.31,35.69,-0.1544,9.4383,0.6262,9.4603
3,10,1,3,1,37.762,37762,-0.0400,8.8500,0.2700,8.8542,-0.0218,-0.0764,-0.4309,-0.13,87.38,35.25,-0.1393,9.3607,0.5793,9.3797
3,10,1,3,1,37.883,37883,-0.4900,8.5100,0.4800,8.5376,0.0120,-0.0447,0.0076,1.69,87.44,33.88,-0.1855,9.2486,0.5662,9.2678
3,10,1,3,1,38.004,38004,-0.1600,9.6300,0.3500,9.6377,0.0262,-0.0578,-0.4985,1.44,87.31,34.31,-0.1822,9.2989,0.5377,9.3162
3,10,1,3,1,38.125,38125,-2.0300,10.6900,-0.0300,10.8811,-0.0065,-0.0349,0.4058,3.25,87.25,32.88,-0.4257,9.4822,0.4629,9.5030
3,10,1,3,1,38.246,38246,1.0600,10.8600,0.9500,10.9529,0.0916,0.0087,0.3982,-0.25,87.06,36.50,-0.2299,9.6638,0.5271,9.6809
3,10,1,3,1,38.368,38368,-1.2900,10.7800,0.2500,10.8598,0.1854,0.0709,-0.1014,0.19,86.00,35.81,-0.3696,9.8109,0.4906,9.8301
3,10,1,3,1,38.494,38494,0.1100,10.5800,1.5800,10.6979,0.1200,0.0774,-0.0382,-0.38,84.88,35.69,-0.3064,9.9122,0.6341,9.9372
3,10,1,3,1,38.657,38657,-0.7900,10.3900,1.0600,10.4738,-0.0382,0.0338,-0.6741,1.19,84.56,33.63,-0.3701,9.9752,0.6902,10.0059
3,10,1,3,1,38.777,38777,-0.2200,9.9200,1.1600,9.9900,-0.0960,0.0218,-0.3862,3.31,85.13,31.19,-0.3503,9.9679,0.7521,10.0024
3,10,1,3,1,38.898,38898,-1.0600,11.3800,0.8000,11.4572,-0.1200,0.0065,0.0753,4.50,85.88,29.94,-0.4439,10.1540,0.7585,10.1919
3,10,1,3,1,39.020,39020,0.1100,10.3800,0.6800,10.4028,-0.0982,-0.0447,0.0065,3.94,86.56,30.56,-0.3709,10.1838,0.7481,10.2179
3,10,1,3,1,39.146,39146,-0.3800,9.4000,0.5800,9.4255,-0.0425,-0.1145,-0.4352,5.25,87.06,29.81,-0.3721,10.0805,0.7260,10.1134
3,10,1,3,1,39.268,39268,-1.3900,9.8800,0.3000,9.9818,0.0076,-0.1167,0.2007,6.25,87.25,29.75,-0.5062,10.0541,0.6698,10.0891
3,10,1,3,1,39.388,39388,-0.7100,11.3800,0.2900,11.4058,0.0305,-0.0840,-0.1342,6.13,87.19,30.50,-0.5331,10.2288,0.6198,10.2614
3,10,1,3,1,39.509,39509,-2.5900,10.0700,0.2700,10.4012,0.0251,-0.0622,-0.6829,9.50,87.00,27.75,-0.8041,10.2079,0.5737,10.2555
3,10,1,3,1,39.671,39671,-1.1300,10.3400,0.5400,10.4156,0.0654,0.0480,0.3338,8.63,86.69,28.50,-0.8471,10.2253,0.5692,10.2761
3,10,1,3,1,39.794,39794,-1.7000,10.1500,0.5000,10.3035,0.0164,0.0447,-0.0796,7.50,86.25,29.44,-0.9595,10.2154,0.5601,10.2756
3,10,1,3,1,39.919,39919,-2.1700,7.4600,0.8000,7.8103,-0.1484,0.1593,0.3731,7.63,86.69,28.50,-1.1190,9.8523,0.5917,9.9333
3,10,1,3,1,40.040,40040,0.9900,10.4200,0.5600,10.4819,-0.2814,0.0927,0.2443,5.00,88.31,29.88,-0.8411,9.9271,0.5876,9.9800
3,10,1,3,1,40.161,40161,-1.0900,12.6700,0.5700,12.7296,-0.0764,0.0327,-0.0949,6.06,89.63,28.31,-0.8739,10.2885,0.5852,10.3421
3,10,1,3,1,40.282,40282,-2.2900,9.9900,-0.2800,10.2529,0.0033,-0.0480,-0.0807,7.44,89.56,27.13,-1.0605,10.2492,0.4712,10.3147
3,10,1,3,1,40.403,40403,-1.6700,10.9900,-0.0600,11.1163,-0.1669,0.0142,0.1276,6.38,90.25,28.19,-1.1408,10.3468,0.4012,10.4172
3,10,1,3,1,40.525,40525,-0.9500,10.9000,-0.3600,10.9472,-0.0753,-0.0633,0.0240,6.00,91.06,28.63,-1.1157,10.4197,0.3009,10.4836
