participant,rep,equipment_code,exercise_code,quality_code,timestamp,timestamp_ms,accelX,accelY,accelZ,accelMag,gyroX,gyroY,gyroZ,roll,pitch,yaw,filteredX,filteredY,filteredZ,filteredMag
11,1,1,3,1,00.000,0,-1.6900,9.4500,0.3800,9.6074,0.0207,-0.0251,0.0382,8.75,87.75,62.44,-1.6893,9.5288,0.3196,9.6827
11,1,1,3,1,00.131,131,-1.5900,9.2600,0.4200,9.4049,-0.0022,0.0109,0.0295,8.88,87.69,62.31,-1.6763,9.4934,0.3328,9.6460
11,1,1,3,1,00.261,261,-1.5300,9.4700,0.2900,9.5972,-0.0175,0.0164,0.0098,9.19,87.75,61.88,-1.6570,9.4903,0.3272,9.6394
11,1,1,3,1,00.434,434,-1.5800,9.4300,0.2600,9.5650,-0.0349,-0.0120,-0.1178,9.25,88.13,61.81,-1.6468,9.4823,0.3183,9.6296
11,1,1,3,1,00.564,564,-1.7200,9.4600,0.3200,9.6204,-0.0142,-0.0055,0.0153,9.56,88.25,61.56,-1.6565,9.4794,0.3185,9.6283
11,1,1,3,1,00.694,694,-0.9400,9.2500,0.1800,9.2994,-0.0284,-0.0055,0.1014,8.75,88.44,62.31,-1.5621,9.4492,0.3003,9.5821
11,1,1,3,1,00.824,824,-1.7900,9.6800,0.4000,9.8522,-0.0033,-0.0185,-0.1800,9.44,88.63,61.63,-1.5921,9.4796,0.3134,9.6175
11,1,1,3,1,00.954,954,-1.3600,7.9700,-0.1000,8.0858,0.0000,-0.0436,-0.2978,10.38,88.56,60.88,-1.5615,9.2807,0.2590,9.4147
11,1,1,3,1,01.084,1084,-2.5000,9.3600,0.2600,9.6916,0.0011,-0.0447,0.3360,11.81,88.69,59.94,-1.6852,9.2911,0.2591,9.4463
11,1,1,3,1,01.215,1215,-1.6800,9.5000,0.2700,9.6512,0.0087,0.0087,-0.1833,10.88,88.69,60.94,-1.6845,9.3186,0.2605,9.4733
11,1,1,3,1,01.345,1345,-1.3000,9.1300,0.0300,9.2221,0.0382,0.0218,-0.3447,11.81,88.50,59.88,-1.6338,9.2938,0.2301,9.4391
11,1,1,3,1,01.518,1518,-2.7700,9.9100,0.1100,10.2904,0.0022,0.0153,-0.2716,14.94,88.31,56.63,-1.7836,9.3750,0.2143,9.5455
11,1,1,3,1,01.648,1648,-2.5400,9.3200,0.1000,9.6604,0.0229,-0.0076,-0.2651,16.44,88.06,55.13,-1.8832,9.3677,0.1993,9.5572
11,1,1,3,1,01.778,1778,-3.1100,9.1600,0.1200,9.6743,-0.0076,-0.0109,-0.3458,18.81,88.00,52.81,-2.0449,9.3404,0.1888,9.5635
11,1,1,3,1,01.908,1908,-3.4800,9.0000,0.2800,9.6534,0.0185,-0.0022,-0.3229,21.13,87.94,50.50,-2.2340,9.2955,0.2008,9.5623
11,1,1,3,1,02.038,2038,-3.8700,8.6100,0.1800,9.4415,0.0153,0.0011,-0.2913,23.56,87.81,48.06,-2.4496,9.2052,0.1981,9.5276
11,1,1,3,1,02.168,2168,-4.4100,8.7400,0.3500,9.7958,0.0524,0.0382,-0.1778,25.13,87.63,46.50,-2.7079,9.1439,0.2181,9.5389
11,1,1,3,1,02.298,2298,-4.4700,8.7700,0.4200,9.8524,0.0753,0.0589,-0.0709,26.06,87.00,45.44,-2.9401,9.0946,0.2447,9.5612
11,1,1,3,1,02.429,2429,-4.2000,8.4000,0.5000,9.4048,0.0469,0.0185,-0.0916,26.69,86.44,44.75,-3.1061,9.0031,0.2783,9.5279
11,1,1,3,1,02.602,2602,-4.4200,8.7200,0.2600,9.7797,0.0360,-0.0425,0.0862,26.81,86.13,44.88,-3.2793,8.9658,0.2759,9.5507
11,1,1,3,1,02.732,2732,-4.6200,8.7900,0.8000,9.9624,0.0458,-0.0425,-0.0764,26.75,85.94,45.38,-3.4559,8.9426,0.3450,9.5934
11,1,1,3,1,02.862,2862,-4.4500,8.5600,0.5600,9.6638,-0.0033,-0.0622,-0.1396,27.63,85.88,44.94,-3.5869,8.8922,0.3733,9.5957
11,1,1,3,1,02.992,2992,-5.4100,9.4300,0.4300,10.8802,-0.0098,-0.1069,-0.1429,28.56,86.25,44.50,-3.8272,8.9631,0.3808,9.7534
11,1,1,3,1,03.122,3122,-4.9800,8.6100,0.3500,9.9526,0.0207,-0.0404,-0.0556,28.81,86.44,44.75,-3.9791,8.9165,0.3767,9.7714
11,1,1,3,1,03.252,3252,-4.9000,8.0400,0.5500,9.4315,0.0153,-0.0207,-0.0633,30.00,86.44,43.88,-4.1004,8.8010,0.3996,9.7176
11,1,1,3,1,03.382,3382,-4.9200,9.0200,0.3900,10.2820,-0.0273,0.0098,0.1113,29.25,86.50,44.63,-4.2084,8.8299,0.3983,9.7896
11,1,1,3,1,03.513,3513,-4.7600,8.0200,0.4100,9.3352,0.0033,0.0360,-0.3796,30.31,86.50,43.38,-4.2811,8.7232,0.3998,9.7253
11,1,1,3,1,03.686,3686,-4.7900,8.5300,0.5400,9.7978,0.0305,0.0240,0.1134,31.25,86.06,42.25,-4.3482,8.6977,0.4183,9.7330
11,1,1,3,1,03.816,3816,-5.0300,7.9300,0.6000,9.4099,0.0185,-0.0273,-0.2422,32.06,85.88,41.56,-4.4380,8.5965,0.4423,9.6846
11,1,1,3,1,03.946,3946,-5.2600,7.6700,0.3600,9.3073,-0.0262,-0.0567,0.0916,32.63,86.06,41.25,-4.5463,8.4745,0.4314,9.6266
11,1,1,3,1,04.076,4076,-5.5000,8.5100,0.4400,10.1422,-0.0185,-0.0436,0.0338,32.25,86.63,41.88,-4.6720,8.4791,0.4325,9.6907
11,1,1,3,1,04.206,4206,-5.5100,8.6300,0.2200,10.2414,0.0262,-0.0153,-0.0295,32.06,86.81,42.25,-4.7824,8.4990,0.4045,9.7606
11,1,1,3,1,04.336,4336,-5.6800,7.8000,0.3900,9.6568,0.0545,0.0535,-0.0971,32.56,86.44,41.81,-4.9007,8.4069,0.4026,9.7394
11,1,1,3,1,04.466,4466,-4.8400,7.6600,0.5700,9.0789,0.0142,0.0753,0.1713,32.25,85.94,41.81,-4.8927,8.3085,0.4247,9.6514
11,1,1,3,1,04.597,4597,-5.4000,8.1100,0.6500,9.7650,0.0022,0.0153,0.0207,31.88,85.69,41.94,-4.9596,8.2823,0.4544,9.6644
11,1,1,3,1,04.770,4770,-4.3000,8.3900,0.5200,9.4421,-0.0305,-0.0196,0.0316,29.44,86.00,44.25,-4.8726,8.2965,0.4630,9.6327
11,1,1,3,1,04.901,4901,-4.5200,8.3800,0.5400,9.5366,0.0229,-0.0436,0.1920,28.94,86.25,45.00,-4.8262,8.3075,0.4732,9.6193
11,1,1,3,1,05.031,5031,-4.2000,7.5500,0.5200,8.6552,0.0371,-0.0556,0.0687,27.88,86.25,46.50,-4.7437,8.2077,0.4793,9.4920
11,1,1,3,1,05.162,5162,-4.9300,9.7200,0.5800,10.9142,0.0022,-0.0338,0.7298,25.75,86.38,49.00,-4.7682,8.4070,0.4926,9.6776
11,1,1,3,1,05.292,5292,-3.5000,9.1500,0.0700,9.7968,-0.0415,0.0196,-0.0774,22.25,86.56,52.50,-4.6011,8.5049,0.4369,9.6796
11,1,1,3,1,05.423,5423,-3.9400,8.9900,0.5000,9.8282,0.0098,0.0851,0.3065,22.25,86.50,52.13,-4.5140,8.5688,0.4452,9.6953
11,1,1,3,1,05.554,5554,-3.0100,7.7000,0.7100,8.2978,0.0164,0.0807,0.3600,19.44,86.19,54.38,-4.3158,8.4543,0.4801,9.5043
11,1,1,3,1,05.687,5687,-2.5900,8.2300,0.6800,8.6547,-0.0513,0.0600,0.6305,16.38,86.19,56.94,-4.0884,8.4248,0.5065,9.3781
11,1,1,3,1,05.860,5860,-0.7900,9.1800,0.3900,9.2222,-0.0469,0.0131,0.1396,10.75,86.75,62.06,-3.6537,8.5243,0.4911,9.2873
11,2,1,3,1,05.992,5992,-0.6300,10.1900,0.4300,10.2185,0.0404,-0.0229,0.1691,9.25,86.81,63.56,-3.2553,8.7438,0.4831,9.3426
11,2,1,3,1,06.122,6122,-1.4800,9.3900,0.3900,9.5139,0.0873,-0.0578,-0.1516,9.88,86.31,63.38,-3.0213,8.8289,0.4708,9.3435
11,2,1,3,1,06.253,6253,-1.7100,9.2100,0.6100,9.3872,0.0567,-0.0611,-0.0447,10.44,85.88,63.38,-2.8485,8.8792,0.4891,9.3377
11,2,1,3,1,06.383,6383,-1.8600,9.5100,0.6800,9.7140,-0.0109,-0.0447,0.0927,10.38,85.81,63.81,-2.7183,8.9623,0.5143,9.3796
11,2,1,3,1,06.513,6513,-1.4100,9.4500,0.9500,9.6017,-0.0131,-0.0295,-0.0175,9.56,85.94,64.88,-2.5459,9.0266,0.5717,9.3961
11,2,1,3,1,06.644,6644,-1.6700,9.3700,0.7500,9.5472,-0.0207,-0.0196,0.0764,10.00,86.00,64.56,-2.4305,9.0718,0.5952,9.4106
11,2,1,3,1,06.774,6774,-1.4900,9.5000,0.6300,9.6368,-0.0469,0.0087,0.1451,9.44,86.25,65.19,-2.3065,9.1282,0.5998,9.4342
11,2,1,3,1,06.947,6947,-1.2300,9.5000,0.5300,9.5939,-0.0415,0.0196,-0.0851,9.13,86.63,65.25,-2.1647,9.1772,0.5906,9.4475
11,2,1,3,1,07.077,7077,-1.7100,9.6100,0.3600,9.7676,-0.0360,0.0044,-0.1800,10.25,86.88,64.00,-2.1048,9.2343,0.5602,9.4876
11,2,1,3,1,07.207,7207,-1.8300,9.5000,0.4500,9.6851,-0.0175,0.0033,-0.1854,11.25,87.06,63.00,-2.0686,9.2693,0.5457,9.5129
11,2,1,3,1,07.337,7337,-1.4400,9.6600,0.3400,9.7727,-0.0011,-0.0175,0.0076,11.38,87.13,62.88,-1.9857,9.3208,0.5186,9.5440
11,2,1,3,1,07.467,7467,-1.7000,9.2100,0.4400,9.3759,0.0284,-0.0491,-0.1985,12.31,87.06,62.19,-1.9481,9.3062,0.5082,9.5214
11,2,1,3,1,07.598,7598,-2.5400,9.8600,0.3700,10.1886,0.0262,-0.0644,-0.0916,13.69,86.94,61.31,-2.0261,9.3791,0.4900,9.6080
11,2,1,3,1,07.728,7728,-1.7200,8.0300,0.6500,8.2378,0.0316,-0.0862,-0.5291,14.94,86.94,60.63,-1.9857,9.2014,0.5111,9.4271
11,2,1,3,1,07.859,7859,-3.4100,9.5200,0.3700,10.1191,0.0404,-0.0567,0.0611,17.50,86.94,58.63,-2.1734,9.2434,0.4925,9.5082
11,2,1,3,1,08.031,8031,-3.3800,8.5500,0.4300,9.2039,0.0175,-0.0327,-0.3120,19.06,86.88,57.50,-2.3324,9.1520,0.4843,9.4569
11,2,1,3,1,08.161,8161,-3.2900,8.1400,0.5000,8.7940,0.0295,0.0240,-0.0633,20.19,86.69,56.50,-2.4586,9.0186,0.4863,9.3604
11,2,1,3,1,08.291,8291,-3.7100,9.0000,0.6500,9.7564,0.0055,0.0425,0.0229,20.94,86.50,55.56,-2.6235,9.0162,0.5079,9.4038
11,2,1,3,1,08.421,8421,-2.9300,9.0100,0.4600,9.4856,0.0011,0.0273,-0.1865,21.00,86.31,55.19,-2.6639,9.0154,0.5016,9.4141
11,2,1,3,1,08.551,8551,-3.5900,7.7600,0.3800,8.5586,-0.0098,-0.0218,-0.3469,23.50,86.31,52.69,-2.7859,8.8499,0.4856,9.2908
11,2,1,3,1,08.682,8682,-4.3000,9.4700,0.5400,10.4145,-0.0175,0.0000,0.0567,24.25,86.44,52.00,-2.9854,8.9316,0.4927,9.4303
11,2,1,3,1,08.812,8812,-4.2600,7.7500,0.3900,8.8522,-0.0022,-0.0065,-0.5574,26.81,86.38,49.44,-3.1534,8.7759,0.4792,9.3376
11,2,1,3,1,08.943,8943,-4.3900,8.2600,0.4700,9.3659,-0.0055,-0.0251,0.1942,27.75,86.44,48.63,-3.3164,8.7079,0.4780,9.3303
11,2,1,3,1,09.116,9116,-4.9600,8.2400,0.4600,9.6286,-0.0458,-0.0087,-0.1331,28.50,86.81,47.94,-3.5329,8.6463,0.4756,9.3523
11,2,1,3,1,09.246,9246,-4.4300,8.6300,0.1200,9.7014,-0.0589,0.0469,0.0764,28.44,87.19,47.75,-3.6512,8.6441,0.4288,9.3934
11,2,1,3,1,09.377,9377,-4.4200,8.3700,0.3100,9.4704,-0.0142,0.0971,-0.1724,28.81,87.25,46.75,-3.7525,8.6080,0.4131,9.3994
11,2,1,3,1,09.507,9507,-4.9400,8.7700,0.1800,10.0672,-0.0055,0.0676,-0.0949,29.81,87.00,45.13,-3.9090,8.6294,0.3824,9.4811
11,2,1,3,1,09.638,9638,-4.6300,8.5000,0.4500,9.6897,0.0175,0.0109,-0.2247,30.31,86.81,44.38,-4.0040,8.6123,0.3913,9.5056
11,2,1,3,1,09.769,9769,-5.3300,7.9300,0.2200,9.5573,0.0338,-0.0153,-0.0447,31.81,86.69,43.00,-4.1787,8.5224,0.3687,9.4989
11,2,1,3,1,09.899,9899,-5.4200,8.5900,0.3800,10.1641,0.0360,-0.0022,0.0316,31.69,86.56,43.31,-4.3423,8.5313,0.3702,9.5800
11,2,1,3,1,10.030,10030,-6.1000,9.2800,0.7400,11.1300,0.0415,0.0076,0.0905,31.44,86.19,43.81,-4.5739,8.6300,0.4189,9.7761
11,3,1,3,1,10.207,10207,-5.5400,7.2100,0.4800,9.1053,0.0065,-0.0425,-0.4440,32.56,85.94,42.75,-4.7012,8.4429,0.4270,9.6729
11,3,1,3,1,10.338,10338,-4.8100,8.2300,0.3800,9.5401,-0.0175,-0.0295,0.0633,31.44,86.31,44.19,-4.7155,8.4148,0.4208,9.6552
11,3,1,3,1,10.469,10469,-5.5300,8.5700,0.3600,10.2057,-0.0415,-0.0393,-0.1156,32.06,86.75,43.63,-4.8229,8.4353,0.4128,9.7254
11,3,1,3,1,10.599,10599,-4.7100,7.1100,0.3000,8.5338,0.0022,-0.0142,-0.1320,32.69,86.88,43.06,-4.8080,8.2606,0.3979,9.5662
11,3,1,3,1,10.729,10729,-5.4500,8.7100,0.2600,10.2778,0.0076,-0.0022,0.4265,31.94,86.94,43.88,-4.8926,8.3198,0.3797,9.6593
11,3,1,3,1,10.860,10860,-4.4900,9.0700,0.5300,10.1344,0.0164,0.0065,-0.3982,30.94,86.88,44.81,-4.8395,8.4187,0.3995,9.7188
11,3,1,3,1,10.990,10990,-5.5000,7.8000,0.2900,9.5485,0.0185,-0.0295,-0.1614,33.69,86.69,42.19,-4.9266,8.3372,0.3851,9.6916
11,3,1,3,1,11.121,11121,-5.5100,8.4200,0.4300,10.0718,-0.0207,-0.0131,0.1484,33.31,86.88,42.69,-5.0035,8.3481,0.3910,9.7405
11,3,1,3,1,11.294,11294,-6.1000,7.6400,0.3200,9.7817,-0.0284,-0.0065,-0.1145,35.00,87.00,40.94,-5.1480,8.2548,0.3817,9.7359
11,3,1,3,1,11.425,11425,-5.4200,8.7700,0.3000,10.3140,-0.0316,0.0229,0.0502,33.88,87.06,41.88,-5.1838,8.3227,0.3709,9.8120
11,3,1,3,1,11.555,11555,-5.3500,7.3700,0.1700,9.1087,0.0033,-0.0284,-0.3414,34.94,87.06,40.75,-5.2057,8.1971,0.3444,9.7165
11,3,1,3,1,11.686,11686,-5.2600,7.5600,0.3600,9.2169,0.0371,-0.0065,0.3131,34.63,87.06,41.31,-5.2129,8.1132,0.3465,9.6497
11,3,1,3,1,11.816,11816,-5.7500,8.2600,0.3900,10.0719,-0.0251,0.0142,0.1985,33.94,87.13,41.94,-5.2836,8.1325,0.3522,9.7046
11,3,1,3,1,11.947,11947,-5.2900,7.5200,0.1500,9.1955,-0.0076,0.0415,-0.2694,33.56,87.06,42.00,-5.2845,8.0518,0.3256,9.6366
11,3,1,3,1,12.078,12078,-5.5800,8.9600,0.3600,10.5616,-0.0262,-0.0011,0.2694,33.06,87.06,42.31,-5.3234,8.1715,0.3301,9.7581
11,3,1,3,1,12.208,12208,-5.4400,9.0900,0.2100,10.5956,0.0120,-0.0175,0.0949,31.88,87.19,43.56,-5.3388,8.2925,0.3143,9.8675
11,3,1,3,1,12.381,12381,-4.6300,7.0800,0.2700,8.4638,-0.0022,-0.0164,0.1734,31.06,87.13,44.69,-5.2454,8.1327,0.3084,9.6825
11,3,1,3,1,12.515,12515,-4.9100,8.9700,0.3800,10.2330,-0.0185,-0.0065,0.3305,29.50,87.31,46.19,-5.2012,8.2431,0.3179,9.7520
11,3,1,3,1,12.646,12646,-4.6900,8.4800,0.4200,9.6996,0.0305,-0.0436,-0.0098,27.63,87.38,48.25,-5.1338,8.2743,0.3313,9.7432
11,3,1,3,1,12.777,12777,-4.8800,8.1500,0.3900,9.5073,-0.0305,0.0196,0.4134,26.50,87.44,49.50,-5.1004,8.2579,0.3391,9.7119
11,3,1,3,1,12.908,12908,-3.8100,7.4800,0.4000,8.4040,-0.0371,0.0393,0.2574,24.13,87.63,51.56,-4.9303,8.1554,0.3471,9.5362
11,3,1,3,1,13.038,13038,-2.3700,8.7500,0.2200,9.0680,0.0000,0.0502,0.7330,19.75,87.69,55.56,-4.5930,8.2338,0.3303,9.4339
11,4,1,3,1,13.169,13169,-3.6100,9.1800,0.2900,9.8686,0.0087,0.0251,-0.0295,18.00,87.56,57.00,-4.4634,8.3584,0.3250,9.4811
11,4,1,3,1,13.299,13299,-2.0200,9.2600,0.2700,9.4816,0.0131,0.0349,0.3120,16.31,87.31,58.50,-4.1414,8.4772,0.3178,9.4401
11,4,1,3,1,13.472,13472,-2.3400,9.2900,0.5500,9.5959,0.0185,0.0098,0.1025,15.19,87.19,59.56,-3.9041,8.5843,0.3484,9.4368
11,4,1,3,1,13.602,13602,-1.8200,9.6400,0.4900,9.8225,0.0425,-0.0153,0.1778,13.69,87.06,61.13,-3.6294,8.7235,0.3670,9.4555
11,4,1,3,1,13.732,13732,-2.2200,9.0600,0.6200,9.3486,0.0556,-0.0109,-0.2149,14.06,86.75,60.94,-3.4437,8.7678,0.4004,9.4284
11,4,1,3,1,13.862,13862,-2.3400,9.0400,0.6700,9.3619,0.0098,-0.0262,0.0142,14.56,86.56,60.56,-3.2983,8.8037,0.4359,9.4113
11,4,1,3,1,13.992,13992,-2.4800,9.2900,0.5800,9.6328,-0.0305,-0.0240,0.0229,14.50,86.69,60.81,-3.1904,8.8678,0.4549,9.4352
11,4,1,3,1,14.122,14122,-2.1700,9.4100,0.4300,9.6665,-0.0338,-0.0164,0.0709,14.13,86.94,61.25,-3.0560,8.9392,0.4516,9.4579
11,4,1,3,1,14.252,14252,-1.9200,9.5600,0.3600,9.7575,-0.0196,-0.0327,0.0436,13.44,87.25,62.06,-2.9063,9.0210,0.4395,9.4878
11,4,1,3,1,14.383,14383,-1.7500,9.2900,0.3400,9.4595,0.0033,-0.0273,-0.1593,13.50,87.38,62.25,-2.7539,9.0565,0.4264,9.4755
11,4,1,3,1,14.556,14556,-2.8300,8.0800,0.3900,8.5701,0.0600,-0.0142,-0.6360,16.44,87.00,59.50,-2.7639,8.9278,0.4216,9.3553
11,4,1,3,1,14.687,14687,-2.7400,9.9000,0.7900,10.3025,0.0971,0.0164,0.3371,18.31,86.44,57.81,-2.7608,9.0559,0.4702,9.4790
11,4,1,3,1,14.817,14817,-4.2400,9.0700,-1.3000,10.0962,0.1865,-0.0240,-0.7723,21.06,85.88,55.31,-2.9557,9.0578,0.2369,9.5308
11,4,1,3,1,14.948,14948,-3.6600,8.7700,0.5200,9.5173,0.0687,-0.0131,-0.0971,23.19,85.88,53.44,-3.0485,9.0198,0.2742,9.5250
11,4,1,3,1,15.078,15078,-3.9800,9.0100,0.3300,9.8554,-0.0164,-0.0229,-0.2149,24.44,85.75,52.38,-3.1713,9.0185,0.2816,9.5640
11,4,1,3,1,15.209,15209,-4.4600,8.4500,0.6400,9.5762,-0.0447,-0.0502,-0.3742,26.75,86.00,50.19,-3.3411,8.9436,0.3288,9.5530
11,4,1,3,1,15.340,15340,-4.7300,7.9600,0.3800,9.2671,-0.0185,-0.0415,-0.3142,29.13,86.31,48.00,-3.5241,8.8140,0.3355,9.4983
11,4,1,3,1,15.470,15470,-4.9600,8.4800,0.5100,9.8373,0.0349,-0.0196,-0.0284,30.00,86.38,47.38,-3.7133,8.7700,0.3585,9.5305
11,4,1,3,1,15.643,15643,-5.5400,7.3900,0.4900,9.2490,-0.0415,0.0044,-0.2640,32.69,86.31,44.75,-3.9540,8.5881,0.3759,9.4621
11,4,1,3,1,15.778,15778,-5.5500,7.7500,0.3000,9.5370,-0.0774,0.0404,0.0000,33.75,86.69,43.38,-4.1643,8.4777,0.3659,9.4524
11,4,1,3,1,15.909,15909,-5.2500,8.2700,-0.0100,9.7957,-0.0796,0.0076,-0.0938,34.19,87.19,42.38,-4.3074,8.4503,0.3163,9.4901
11,4,1,3,1,16.040,16040,-5.7800,8.3000,0.2900,10.1184,-0.0131,0.0055,0.0011,34.81,87.44,41.63,-4.5015,8.4305,0.3129,9.5621
11,4,1,3,1,16.170,16170,-5.2100,7.5500,0.3400,9.1794,-0.0087,0.0153,-0.1516,35.25,87.31,41.06,-4.5948,8.3145,0.3164,9.5049
11,4,1,3,1,16.300,16300,-6.0500,7.7100,0.4000,9.8085,-0.0109,0.0044,-0.2280,36.75,87.38,39.56,-4.7866,8.2348,0.3274,9.5305
11,4,1,3,1,16.431,16431,-5.9900,7.8000,0.4300,9.8440,0.0469,0.0131,-0.0676,37.56,87.13,38.75,-4.9452,8.1775,0.3410,9.5626
11,4,1,3,1,16.562,16562,-5.6200,7.5800,0.1800,9.4379,0.0262,0.0011,0.1407,37.38,86.81,39.13,-5.0341,8.0988,0.3198,9.5412
11,4,1,3,1,16.734,16734,-6.4300,8.0200,0.2400,10.2822,-0.0371,-0.0120,-0.0764,37.88,87.06,38.56,-5.2180,8.0884,0.3092,9.6305
11,4,1,3,1,16.864,16864,-5.7200,7.2900,0.2200,9.2688,-0.0109,-0.0022,-0.1396,38.19,87.25,38.19,-5.2842,7.9832,0.2975,9.5782
11,4,1,3,1,16.994,16994,-6.0000,7.6300,0.2400,9.7095,-0.0087,-0.0447,0.1091,38.94,87.44,37.56,-5.3785,7.9367,0.2899,9.5918
11,4,1,3,1,17.124,17124,-5.8900,6.9800,0.2200,9.1357,0.0011,-0.0284,-0.1898,39.00,87.69,37.69,-5.4459,7.8106,0.2807,9.5259
11,4,1,3,1,17.254,17254,-6.6700,7.3500,0.2400,9.9282,0.0109,-0.0175,0.0142,40.38,87.81,36.56,-5.6072,7.7499,0.2753,9.5696
11,4,1,3,1,17.385,17385,-6.7300,8.0200,0.2300,10.4722,0.0087,0.0142,0.0284,39.75,87.81,37.25,-5.7552,7.7855,0.2694,9.6855
11,4,1,3,1,17.515,17515,-6.2800,6.8600,0.2400,9.3035,0.0218,0.0305,-0.2476,40.31,87.50,36.63,-5.8243,7.6635,0.2655,9.6293
11,4,1,3,1,17.646,17646,-6.3500,7.2500,0.3100,9.6427,-0.0120,0.0447,0.1353,40.50,87.19,36.31,-5.8936,7.6090,0.2714,9.6284
11,4,1,3,1,17.818,17818,-6.5500,7.4600,0.4000,9.9355,-0.0120,0.0251,-0.0240,40.88,87.00,35.56,-5.9801,7.5894,0.2883,9.6666
11,4,1,3,1,17.949,17949,-6.3700,7.6900,0.0000,9.9856,-0.0491,-0.0044,-0.0065,40.63,87.25,35.69,-6.0315,7.6027,0.2503,9.7078
11,4,1,3,1,18.079,18079,-7.0100,6.6800,0.0600,9.6833,-0.0622,-0.0349,-0.3305,42.31,87.75,33.75,-6.1604,7.4811,0.2252,9.6937
11,4,1,3,1,18.209,18209,-6.8400,8.3900,0.1000,10.8253,-0.0022,-0.0164,0.3829,40.94,88.19,35.13,-6.2500,7.6008,0.2087,9.8427
11,4,1,3,1,18.339,18339,-6.1700,7.2700,-0.1100,9.5359,0.0164,0.0065,-0.2356,39.88,88.13,36.25,-6.2394,7.5573,0.1667,9.8015
11,4,1,3,1,18.469,18469,-7.3900,7.5200,0.3400,10.5488,0.0382,0.0654,0.2596,40.63,87.75,35.44,-6.3910,7.5523,0.1896,9.8954
11,4,1,3,1,18.600,18600,-6.0300,7.4400,0.6200,9.5968,0.0120,0.1047,0.1778,38.38,87.00,37.31,-6.3435,7.5375,0.2463,9.8547
11,4,1,3,1,18.730,18730,-6.1200,8.0200,0.4000,10.0963,-0.0175,0.0589,0.0185,37.69,86.56,37.56,-6.3140,7.6011,0.2665,9.8851
11,4,1,3,1,18.903,18903,-6.0100,6.9300,0.3200,9.1786,-0.0371,-0.0251,0.0164,37.75,86.69,37.19,-6.2740,7.5127,0.2736,9.7917
11,4,1,3,1,19.033,19033,-5.0200,7.2100,0.3800,8.7937,-0.0011,-0.0513,0.3098,35.69,87.19,39.44,-6.1087,7.4728,0.2876,9.6562
11,4,1,3,1,19.164,19164,-5.3600,8.9000,0.4100,10.3975,0.0425,-0.0567,0.7418,32.75,87.44,42.88,-6.0101,7.6609,0.3037,9.7418
11,4,1,3,1,19.294,19294,-4.8500,7.7300,0.4200,9.1352,0.0000,-0.0142,0.0796,29.56,87.50,46.31,-5.8572,7.6700,0.3191,9.6559
11,4,1,3,1,19.425,19425,-3.9300,7.5400,0.5400,8.5199,-0.0076,-0.0055,0.3153,28.50,87.69,47.38,-5.6032,7.6528,0.3482,9.4912
11,4,1,3,1,19.556,19556,-3.9600,8.5800,0.3300,9.4555,0.0022,-0.0175,0.6436,25.13,87.81,50.81,-5.3867,7.7750,0.3458,9.4650
11,4,1,3,1,19.686,19686,-3.2300,8.8200,0.4200,9.4022,-0.0033,-0.0142,0.3709,21.25,87.94,54.81,-5.1025,7.9127,0.3556,9.4219
11,4,1,3,1,19.816,19816,-3.3300,8.8300,0.3900,9.4451,-0.0131,-0.0142,0.3349,19.38,87.94,56.75,-4.8689,8.0336,0.3601,9.4008
11,4,1,3,1,19.994,19994,-2.0200,9.6500,0.0000,9.8592,-0.0327,-0.0044,0.3338,15.50,88.19,60.63,-4.4935,8.2466,0.3126,9.3966
11,4,1,3,1,20.125,20125,-2.4000,9.1600,0.3400,9.4753,-0.0131,-0.0109,-0.1920,15.38,88.38,60.75,-4.2176,8.3670,0.3162,9.3752
11,5,1,3,1,20.256,20256,-2.2000,9.5700,0.0000,9.8196,-0.0011,0.0000,0.1374,14.63,88.44,61.50,-3.9518,8.5255,0.2746,9.4008
11,5,1,3,1,20.386,20386,-2.8700,9.4000,0.1600,9.8297,0.0011,0.0033,-0.1658,15.13,88.44,61.00,-3.8092,8.6407,0.2595,9.4467
11,5,1,3,1,20.516,20516,-2.5400,9.5200,0.3200,9.8582,0.0316,0.0305,0.1145,15.31,88.25,60.69,-3.6420,8.7566,0.2675,9.4875
11,5,1,3,1,20.647,20647,-2.4100,9.3000,0.2400,9.6102,0.0371,0.0109,-0.0720,15.25,88.00,60.69,-3.4796,8.8282,0.2638,9.4929
11,5,1,3,1,20.777,20777,-2.5700,9.4200,0.4000,9.7725,0.0480,0.0360,0.0556,15.38,87.63,60.44,-3.3598,8.9062,0.2818,9.5230
11,5,1,3,1,20.908,20908,-2.5900,9.3200,0.6200,9.6930,0.0393,0.0567,-0.2476,15.94,87.19,59.63,-3.2583,8.9607,0.3263,9.5403
11,5,1,3,1,21.081,21081,-2.9600,8.5900,0.2800,9.0900,0.0044,0.0055,-0.2083,18.81,86.75,56.50,-3.2190,8.9119,0.3202,9.4808
11,5,1,3,1,21.211,21211,-3.2000,9.4900,0.8000,10.0469,0.0131,0.0218,-0.0676,19.50,86.69,55.75,-3.2165,8.9880,0.3835,9.5540
11,5,1,3,1,21.341,21341,-3.0000,8.3100,0.1300,8.8359,-0.0502,-0.0316,-0.5225,21.56,86.63,53.75,-3.1880,8.8987,0.3501,9.4590
11,5,1,3,1,21.471,21471,-4.8200,9.2400,0.6500,10.4419,-0.0196,-0.0305,-0.3022,24.88,87.00,50.69,-3.4030,8.9437,0.3896,9.5771
11,5,1,3,1,21.601,21601,-4.5300,8.3000,0.3500,9.4622,-0.0087,0.0033,-0.2760,26.50,87.00,49.13,-3.5515,8.8589,0.3844,9.5520
11,5,1,3,1,21.731,21731,-4.2700,8.1000,0.3200,9.1622,-0.0338,0.0000,-0.3349,28.63,87.25,46.88,-3.6462,8.7589,0.3759,9.4949
11,5,1,3,1,21.862,21862,-4.9300,8.2400,0.3200,9.6075,0.0218,-0.0207,-0.1058,30.56,87.31,45.00,-3.8154,8.6905,0.3685,9.4983
11,5,1,3,1,21.992,21992,-5.5700,8.1200,0.1700,9.8483,-0.0305,-0.0175,-0.2323,31.38,87.38,44.31,-4.0466,8.6153,0.3424,9.5245
11,5,1,3,1,22.165,22165,-5.1900,8.2700,0.3100,9.7686,-0.0305,0.0196,-0.0447,32.31,87.75,43.19,-4.1973,8.5698,0.3381,9.5485
11,5,1,3,1,22.295,22295,-5.6300,8.1800,0.3000,9.9348,0.0000,0.0338,-0.1385,33.06,87.75,42.19,-4.3861,8.5184,0.3331,9.5871
11,5,1,3,1,22.426,22426,-5.3400,8.1200,0.2300,9.7213,-0.0175,0.0535,0.0000,33.75,87.56,41.25,-4.5118,8.4659,0.3195,9.5984
11,5,1,3,1,22.556,22556,-4.8300,8.6800,0.3700,9.9402,0.0295,0.0251,-0.0698,33.69,87.38,41.00,-4.5537,8.4941,0.3261,9.6433
11,5,1,3,1,22.686,22686,-6.1300,8.0400,0.2300,10.1129,0.0360,0.0065,0.0022,34.88,87.00,40.00,-4.7614,8.4343,0.3135,9.6906
11,5,1,3,1,22.816,22816,-5.0700,8.0100,0.6800,9.5041,0.0316,0.0665,-0.0654,34.06,86.56,40.63,-4.8021,8.3784,0.3618,9.6638
11,5,1,3,1,22.946,22946,-5.4700,7.7200,0.4600,9.4726,-0.0098,-0.0055,-0.2585,35.38,86.19,39.19,-4.8901,8.2916,0.3747,9.6335
11,5,1,3,1,23.076,23076,-5.9200,7.6400,0.6000,9.6838,-0.0109,-0.0338,-0.0578,36.50,86.38,38.19,-5.0258,8.2058,0.4044,9.6310
11,5,1,3,1,23.249,23249,-6.1100,7.9600,0.3600,10.0411,-0.0480,-0.0447,0.0665,36.94,87.06,37.88,-5.1687,8.1734,0.3986,9.6787
11,5,1,3,1,23.379,23379,-6.1300,7.9000,0.1300,10.0002,-0.0153,-0.0142,-0.1833,37.19,87.50,37.63,-5.2954,8.1374,0.3632,9.7154
11,5,1,3,1,23.509,23509,-6.7400,8.0100,0.2100,10.4705,-0.0338,0.0153,0.0742,37.81,87.81,36.94,-5.4857,8.1206,0.3430,9.8058
11,5,1,3,1,23.639,23639,-5.9200,7.7700,0.2300,9.7710,0.0109,0.0425,-0.0022,37.56,87.75,36.94,-5.5430,8.0744,0.3281,9.7994
11,5,1,3,1,23.769,23769,-5.4600,7.4300,0.3600,9.2275,0.0218,0.0251,0.0011,37.31,87.44,37.00,-5.5320,7.9895,0.3323,9.7234
11,5,1,3,1,23.899,23899,-6.0200,8.0700,0.2900,10.0722,0.0109,-0.0316,0.1516,37.38,87.38,37.06,-5.5963,8.0001,0.3267,9.7687
11,5,1,3,1,24.029,24029,-5.6000,8.3900,0.2200,10.0896,-0.0098,-0.0600,0.0229,36.81,87.63,37.94,-5.5968,8.0515,0.3127,9.8106
11,5,1,3,1,24.160,24160,-5.9600,6.8700,0.1200,9.0958,0.0415,-0.0709,-0.0862,38.75,87.88,36.44,-5.6447,7.8958,0.2873,9.7102
11,5,1,3,1,24.333,24333,-6.4300,8.1500,0.1600,10.3823,0.0393,-0.0404,0.0535,38.31,87.94,37.56,-5.7482,7.9293,0.2705,9.7973
11,5,1,3,1,24.463,24463,-7.0200,8.6000,0.1900,11.1030,0.0415,0.0065,-0.0764,38.44,87.75,37.75,-5.9158,8.0177,0.2599,9.9673
11,5,1,3,1,24.594,24594,-5.9200,6.4800,0.2300,8.7801,0.0524,0.0491,-0.1462,39.06,87.13,37.19,-5.9163,7.8150,0.2560,9.8053
11,5,1,3,1,24.725,24725,-5.5400,7.7500,0.4500,9.5371,-0.0251,0.0600,0.1669,38.50,86.81,37.44,-5.8667,7.8065,0.2815,9.7693
11,5,1,3,1,24.855,24855,-6.3800,7.7300,0.3200,10.0279,-0.0240,0.0044,-0.2531,39.25,86.75,36.38,-5.9344,7.7964,0.2866,9.8022
11,5,1,3,1,24.986,24986,-6.0200,8.5400,0.6000,10.4658,0.0229,-0.0065,0.0098,38.81,86.88,36.81,-5.9456,7.8944,0.3279,9.8883
11,5,1,3,1,25.116,25116,-6.6800,6.8600,0.1100,9.5757,-0.0011,-0.0011,-0.2105,40.75,86.69,34.94,-6.0424,7.7581,0.2992,9.8381
11,5,1,3,1,25.247,25247,-7.8400,8.2700,0.1300,11.3963,-0.0262,0.0251,0.0949,40.38,86.69,35.25,-6.2793,7.8255,0.2769,10.0372
11,5,1,3,1,25.424,25424,-5.5100,6.9400,0.1400,8.8625,0.0338,0.0644,0.1549,38.63,86.38,36.56,-6.1779,7.7088,0.2588,9.8823
11,5,1,3,1,25.555,25555,-5.9200,8.4700,0.6700,10.3555,0.0065,0.0447,0.0916,36.44,86.00,38.50,-6.1439,7.8091,0.3130,9.9413
11,5,1,3,1,25.685,25685,-5.0200,6.3400,0.4900,8.1016,-0.0316,-0.0185,-0.0698,36.38,86.00,38.50,-5.9958,7.6155,0.3363,9.6984
11,5,1,3,1,25.816,25816,-6.2000,8.8300,0.4400,10.7983,-0.1004,-0.0644,0.2378,34.81,86.81,40.06,-6.0227,7.7756,0.3500,9.8415
11,5,1,3,1,25.947,25947,-5.7700,8.6600,0.3300,10.4114,-0.0927,-0.0316,-0.0633,33.50,87.81,41.31,-5.9894,7.8921,0.3474,9.9136
11,5,1,3,1,26.077,26077,-5.5400,8.6600,0.0400,10.2805,-0.0055,0.0480,0.3131,32.63,88.19,41.94,-5.9302,7.9933,0.3069,9.9576
11,5,1,3,1,26.208,26208,-5.0500,6.7900,0.4600,8.4746,0.0382,0.0578,0.3698,30.81,87.69,43.50,-5.8142,7.8347,0.3270,9.7619
11,5,1,3,1,26.338,26338,-3.8700,8.4000,0.2300,9.2515,0.0295,0.0087,0.9676,26.00,87.50,48.25,-5.5580,7.9092,0.3143,9.6719
11,5,1,3,1,26.511,26511,-2.7600,8.8900,0.4200,9.3181,0.0164,-0.0382,0.0654,20.00,87.38,54.50,-5.1893,8.0385,0.3282,9.5736
11,5,1,3,1,26.642,26642,-3.2500,8.9200,0.4400,9.5038,0.0076,-0.0207,0.0578,19.56,87.38,55.19,-4.9338,8.1546,0.3429,9.5372
11,5,1,3,1,26.772,26772,-3.2000,8.9600,0.0400,9.5144,-0.0305,-0.0622,0.1418,18.88,87.69,56.06,-4.7053,8.2608,0.3030,9.5117
11,5,1,3,1,26.903,26903,-2.3700,9.5000,0.4200,9.8002,-0.0393,-0.0349,-0.0044,17.38,88.19,57.94,-4.3976,8.4241,0.3184,9.5081
11,6,1,3,1,27.034,27034,-3.1600,9.3100,0.5100,9.8449,0.0687,-0.0284,0.1647,17.63,88.13,58.06,-4.2345,8.5408,0.3437,9.5391
11,6,1,3,1,27.164,27164,-2.3000,9.6100,0.0000,9.8814,0.0524,-0.0425,0.1833,15.88,87.94,60.13,-3.9796,8.6817,0.2984,9.5550
11,6,1,3,1,27.295,27295,-2.7900,9.2900,0.1400,9.7009,0.0273,-0.0153,-0.1767,16.19,87.63,60.19,-3.8228,8.7619,0.2775,9.5635
11,6,1,3,1,27.425,27425,-2.7500,9.1400,0.4000,9.5531,-0.0436,0.0000,-0.0360,16.69,87.69,59.63,-3.6814,8.8117,0.2937,9.5543
11,6,1,3,1,27.598,27598,-2.6700,9.4000,0.3700,9.7788,-0.0502,0.0185,-0.2018,18.44,88.25,57.69,-3.5482,8.8892,0.3037,9.5760
11,6,1,3,1,27.733,27733,-2.9600,8.0600,0.4100,8.5961,0.0044,0.0055,-0.5476,20.69,88.31,55.31,-3.4707,8.7799,0.3177,9.4464
11,6,1,3,1,27.864,27864,-4.4300,9.7700,0.4100,10.7353,-0.0109,0.0120,0.0415,23.88,88.38,52.06,-3.5971,8.9104,0.3299,9.6147
11,6,1,3,1,27.994,27994,-4.1500,8.8100,0.0000,9.7385,-0.0044,0.0371,-0.2291,26.19,88.19,49.63,-3.6699,8.8972,0.2864,9.6286
11,6,1,3,1,28.124,28124,-4.1700,7.8300,0.4500,8.8826,0.0513,-0.0284,-0.2171,27.63,87.88,48.19,-3.7358,8.7565,0.3080,9.5251
11,6,1,3,1,28.255,28255,-4.7600,9.0600,0.2800,10.2381,0.0240,-0.0011,0.1178,28.63,87.88,47.44,-3.8708,8.7965,0.3043,9.6153
11,6,1,3,1,28.386,28386,-5.7700,7.6200,-0.0200,9.5581,-0.0207,-0.0273,-0.6981,32.06,87.88,44.00,-4.1211,8.6415,0.2615,9.5774
11,6,1,3,1,28.516,28516,-5.5500,8.9000,-0.4700,10.4992,0.0589,-0.0545,-0.1494,33.13,87.94,43.19,-4.3094,8.6756,0.1651,9.6883
11,6,1,3,1,28.689,28689,-6.2700,7.7600,0.3500,9.9826,0.0087,-0.0164,-0.2105,34.63,87.88,42.06,-4.5677,8.5549,0.1895,9.6998
11,6,1,3,1,28.819,28819,-6.0800,8.3200,0.1400,10.3057,-0.0240,0.0076,-0.2160,35.50,87.81,41.19,-4.7670,8.5240,0.1830,9.7681
11,6,1,3,1,28.949,28949,-5.7900,7.9000,0.2200,9.7971,-0.0295,-0.0131,-0.2400,36.63,87.94,39.94,-4.9018,8.4417,0.1879,9.7635
11,6,1,3,1,29.079,29079,-6.5400,8.3500,0.2300,10.6088,-0.0295,-0.0065,-0.0109,37.50,88.13,39.00,-5.1177,8.4296,0.1934,9.8634
11,6,1,3,1,29.209,29209,-6.7000,7.9000,0.2200,10.3609,-0.0087,0.0164,-0.3109,38.75,88.25,37.63,-5.3262,8.3599,0.1969,9.9143
11,6,1,3,1,29.339,29339,-6.4700,6.9600,0.1900,9.5047,0.0284,0.0360,-0.1734,40.69,88.00,35.56,-5.4769,8.1754,0.1960,9.8424
11,6,1,3,1,29.471,29471,-6.2300,7.2000,0.1500,9.5224,0.0153,0.0305,0.0229,40.94,87.63,35.25,-5.5761,8.0469,0.1899,9.7919
11,6,1,3,1,29.601,29601,-6.5900,7.6100,0.4000,10.0747,0.0316,0.0480,-0.0916,40.94,87.31,35.13,-5.7097,7.9893,0.2176,9.8223
11,6,1,3,1,29.774,29774,-6.7500,7.1900,0.2600,9.8654,-0.0764,-0.0142,-0.0131,42.06,87.38,33.75,-5.8468,7.8840,0.2232,9.8179
11,6,1,3,1,29.905,29905,-6.8800,7.2400,-0.1300,9.9884,-0.0436,-0.0589,0.0087,42.44,88.00,33.31,-5.9830,7.7991,0.1767,9.8312
11,6,1,3,1,30.038,30038,-6.1000,7.7600,0.2600,9.8740,-0.0164,-0.0251,0.0131,40.38,88.56,35.50,-5.9984,7.7940,0.1876,9.8368
11,6,1,3,1,30.172,30172,-6.4500,7.9900,0.2600,10.2718,0.0185,-0.0098,0.3218,39.69,88.63,36.25,-6.0579,7.8198,0.1972,9.8937
11,6,1,3,1,30.302,30302,-6.7600,6.6100,0.1300,9.4555,0.0360,-0.0131,-0.5400,40.81,88.44,35.25,-6.1504,7.6604,0.1883,9.8257
11,6,1,3,1,30.433,30433,-6.1600,8.0700,0.0300,10.1524,-0.0131,0.0000,0.2236,39.75,88.38,36.44,-6.1517,7.7143,0.1675,9.8683
11,6,1,3,1,30.564,30564,-6.4900,6.8800,0.2000,9.4602,0.0000,0.0153,-0.0098,40.00,88.25,36.13,-6.1963,7.6044,0.1718,9.8107
11,6,1,3,1,30.694,30694,-6.3900,8.2800,0.2600,10.4622,-0.0033,0.0120,0.1974,38.88,88.19,37.06,-6.2218,7.6934,0.1834,9.8961
11,6,1,3,1,30.867,30867,-5.9200,6.4000,-0.0100,8.7182,-0.0044,-0.0044,-0.5661,40.06,88.25,35.88,-6.1820,7.5230,0.1579,9.7385
11,6,1,3,1,30.998,30998,-5.9500,7.8400,-0.2500,9.8453,-0.0087,0.0076,0.5203,39.63,88.19,36.38,-6.1515,7.5648,0.1041,9.7507
11,6,1,3,1,31.128,31128,-6.4100,8.3800,0.0100,10.5505,-0.0218,0.0120,-0.0949,39.19,88.38,36.56,-6.1855,7.6722,0.0917,9.8555
11,6,1,3,1,31.258,31258,-6.5900,8.7100,0.0200,10.9221,0.0229,-0.0076,0.0360,39.50,88.38,36.25,-6.2388,7.8089,0.0823,9.9955
11,6,1,3,1,31.388,31388,-5.8500,6.6200,0.2700,8.8385,0.0807,0.0240,-0.1364,40.13,88.06,35.81,-6.1876,7.6523,0.1070,9.8415
11,6,1,3,1,31.518,31518,-5.7000,6.7900,0.6500,8.8891,-0.0076,0.0360,0.0764,40.81,87.63,35.06,-6.1233,7.5386,0.1786,9.7138
11,6,1,3,1,31.648,31648,-6.4600,8.2300,0.0900,10.4629,0.0044,-0.0011,-0.0404,40.88,87.50,34.88,-6.1677,7.6298,0.1669,9.8123
11,6,1,3,1,31.778,31778,-6.6400,6.5100,0.0200,9.2989,0.0153,0.0011,-0.2651,42.69,87.44,33.19,-6.2299,7.4822,0.1475,9.7374
11,6,1,3,1,31.951,31951,-6.4400,8.3900,0.7800,10.6054,0.0033,0.1593,0.6578,41.19,86.56,34.13,-6.2576,7.6018,0.2309,9.8488
11,6,1,3,1,32.081,32081,-6.5900,6.8700,0.6700,9.5433,-0.0022,0.0131,-0.2214,40.94,86.13,33.75,-6.3014,7.5054,0.2887,9.8042
11,6,1,3,1,32.211,32211,-5.5300,7.7100,0.5300,9.5029,-0.0425,-0.0458,0.2891,38.50,86.56,36.31,-6.1998,7.5323,0.3205,9.7609
11,6,1,3,1,32.341,32341,-5.4900,7.6000,0.1800,9.3772,-0.1036,-0.0731,0.3120,36.75,87.56,38.06,-6.1062,7.5413,0.3020,9.7081
11,6,1,3,1,32.471,32471,-5.8300,7.5700,0.1200,9.5555,-0.0218,-0.0545,0.2585,35.31,88.50,39.56,-6.0698,7.5451,0.2780,9.6875
11,6,1,3,1,32.601,32601,-6.2400,8.4400,0.2000,10.4982,0.0535,0.0065,0.5825,32.56,88.56,42.63,-6.0923,7.6630,0.2678,9.7933
11,6,1,3,1,32.732,32732,-2.8200,5.9400,-0.1400,6.5769,0.0458,0.0153,0.2629,28.69,88.13,46.56,-5.6611,7.4359,0.2140,9.3481
11,6,1,3,1,32.862,32862,-4.2500,9.1900,0.0600,10.1253,0.0393,0.0229,0.8956,25.88,87.81,49.44,-5.4751,7.6671,0.1937,9.4233
11,6,1,3,1,33.035,33035,-4.4000,7.6600,1.8500,9.0254,0.1844,0.0131,-0.6752,22.31,87.31,53.00,-5.3334,7.6661,0.4120,9.3480
11,7,1,3,1,33.166,33166,-3.2400,9.5000,0.0000,10.0373,-0.0044,0.0229,0.1756,21.88,87.06,53.38,-5.0576,7.9078,0.3577,9.3936
11,7,1,3,1,33.296,33296,-3.7500,9.0300,0.5600,9.7937,0.0240,0.0065,-0.0764,21.88,86.75,53.38,-4.8853,8.0557,0.3844,9.4291
11,7,1,3,1,33.426,33426,-3.4200,9.0600,0.5000,9.6969,0.0251,-0.0185,0.1887,21.44,86.63,53.88,-4.6922,8.1880,0.3996,9.4456
11,7,1,3,1,33.556,33556,-3.2800,9.3800,0.6100,9.9556,0.0284,-0.0295,0.1898,20.06,86.56,55.56,-4.5061,8.3451,0.4273,9.4936
11,7,1,3,1,33.686,33686,-3.0200,8.9800,0.6800,9.4986,0.0164,-0.0240,-0.0556,19.38,86.44,56.44,-4.3103,8.4288,0.4606,9.4781
11,7,1,3,1,33.816,33816,-3.2800,9.0900,0.5900,9.6817,-0.0175,-0.0382,0.0055,19.75,86.50,56.25,-4.1745,8.5159,0.4777,9.4961
11,7,1,3,1,33.946,33946,-2.9600,9.3300,0.5100,9.8016,-0.0229,-0.0436,-0.0142,19.50,86.75,56.75,-4.0145,8.6232,0.4819,9.5240
11,7,1,3,1,34.119,34119,-3.1500,8.9500,0.5200,9.5024,-0.0218,-0.0316,-0.1647,20.06,86.94,56.56,-3.9006,8.6662,0.4869,9.5160
11,7,1,3,1,34.249,34249,-3.5000,8.6800,0.4000,9.3676,-0.0415,-0.0033,-0.3251,22.06,87.19,54.63,-3.8478,8.6681,0.4755,9.4956
11,7,1,3,1,34.379,34379,-4.6800,7.9300,0.1800,9.2098,-0.0218,0.0196,-0.7156,25.69,87.25,50.75,-3.9574,8.5708,0.4365,9.4504
11,7,1,3,1,34.509,34509,-4.2700,9.2900,0.4600,10.2347,-0.0284,0.0109,0.0458,27.25,87.38,49.00,-3.9986,8.6656,0.4396,9.5538
11,7,1,3,1,34.639,34639,-4.7900,7.7800,0.0500,9.1365,-0.0458,-0.0055,-0.4342,29.88,87.56,46.25,-4.1029,8.5489,0.3883,9.4904
11,7,1,3,1,34.769,34769,-5.0800,7.2900,0.1300,8.8864,-0.0382,0.0175,-0.2793,32.81,87.81,43.19,-4.2317,8.3830,0.3543,9.3972
11,7,1,3,1,34.899,34899,-6.0700,9.7900,0.1900,11.5206,0.0349,0.0251,0.1614,33.06,87.63,42.75,-4.4739,8.5684,0.3326,9.6718
11,7,1,3,1,35.029,35029,-6.4100,7.8800,0.2900,10.1620,0.0164,0.0065,-0.5258,35.06,87.19,40.88,-4.7290,8.4777,0.3270,9.7130
11,7,1,3,1,35.202,35202,-5.2800,7.4400,0.5700,9.1409,-0.0022,0.0371,-0.1636,37.13,87.19,38.56,-4.8016,8.3409,0.3590,9.6310
11,7,1,3,1,35.333,35333,-5.3500,7.3900,0.1500,9.1245,0.0164,-0.0109,-0.0611,37.94,87.06,37.75,-4.8739,8.2156,0.3315,9.5583
11,7,1,3,1,35.464,35464,-5.8800,6.6100,0.3700,8.8546,-0.0076,-0.0131,-0.1767,39.38,87.06,36.38,-5.0065,8.0041,0.3366,9.4468
11,7,1,3,1,35.594,35594,-7.1300,7.2400,0.4300,10.1705,-0.0491,-0.0120,0.1484,40.75,87.50,34.88,-5.2863,7.9034,0.3489,9.5147
11,7,1,3,1,35.725,35725,-6.3600,7.6700,0.2200,9.9663,-0.0142,0.0360,-0.0535,39.88,87.75,35.44,-5.4278,7.8726,0.3319,9.5681
11,7,1,3,1,35.855,35855,-6.4000,7.3500,0.2200,9.7484,0.0316,0.0415,-0.0982,39.75,87.38,35.38,-5.5559,7.8037,0.3171,9.5847
11,7,1,3,1,35.986,35986,-6.3300,7.4700,0.2300,9.7940,0.0175,0.0131,0.3720,39.69,87.19,35.50,-5.6579,7.7598,0.3057,9.6083
11,7,1,3,1,36.117,36117,-6.5300,8.0300,0.3600,10.3562,0.0251,-0.0033,0.1047,38.00,87.13,37.13,-5.7728,7.7954,0.3128,9.7052
11,7,1,3,1,36.293,36293,-6.2800,7.6600,0.4400,9.9150,0.0087,0.0142,-0.2847,38.06,86.75,37.06,-5.8397,7.7775,0.3296,9.7314
11,7,1,3,1,36.425,36425,-6.5100,8.2400,0.5200,10.5142,-0.0196,-0.0175,0.0164,38.31,86.88,36.81,-5.9280,7.8385,0.3547,9.8341
11,7,1,3,1,36.555,36555,-7.0400,7.1400,-0.0300,10.0271,-0.0447,-0.0164,-0.2116,39.19,87.13,36.00,-6.0745,7.7464,0.3040,9.8488
11,7,1,3,1,36.686,36686,-5.9400,8.3300,0.3900,10.2384,-0.0185,0.0207,-0.1538,38.31,87.38,36.63,-6.0568,7.8233,0.3153,9.8989
11,7,1,3,1,36.816,36816,-6.4200,7.6900,0.2700,10.0212,0.0065,0.0109,-0.0600,39.56,87.31,35.31,-6.1047,7.8058,0.3093,9.9143
11,7,1,3,1,36.947,36947,-6.4500,7.6300,0.3800,9.9982,0.0087,0.0142,-0.0884,40.13,87.19,34.69,-6.1502,7.7826,0.3187,9.9245
11,8,1,3,1,37.077,37077,-5.8500,7.1400,0.4700,9.2425,0.0305,-0.0196,-0.2553,40.63,87.13,34.25,-6.1106,7.6979,0.3386,9.8342
11,8,1,3,1,37.208,37208,-6.3700,7.1100,0.3300,9.5519,0.0011,-0.0371,0.1865,40.94,87.19,34.25,-6.1448,7.6205,0.3375,9.7951
11,8,1,3,1,37.380,37380,-6.6200,7.5000,0.1500,10.0048,0.0055,-0.0120,0.0764,41.88,87.25,33.44,-6.2074,7.6046,0.3128,9.8214
11,8,1,3,1,37.510,37510,-7.2100,6.5800,0.1000,9.7617,0.0229,-0.0098,-0.2411,43.06,87.06,32.31,-6.3395,7.4696,0.2847,9.8013
11,8,1,3,1,37.640,37640,-6.8500,7.8800,0.2900,10.4451,-0.0207,0.0131,0.0873,41.88,87.06,33.50,-6.4068,7.5237,0.2854,9.8860
11,8,1,3,1,37.770,37770,-7.1500,7.5400,0.2100,10.3932,-0.0218,-0.0262,-0.0305,42.44,87.25,32.88,-6.5047,7.5258,0.2755,9.9511
11,8,1,3,1,37.900,37900,-7.9700,8.0700,0.1100,11.3427,-0.0120,-0.0055,0.2018,42.00,87.50,33.31,-6.6978,7.5975,0.2537,10.1315
11,8,1,3,1,38.030,38030,-6.7500,7.6000,0.3900,10.1722,-0.0164,0.0447,0.0131,40.88,87.44,34.31,-6.7047,7.5978,0.2716,10.1368
11,8,1,3,1,38.161,38161,-7.5800,7.9600,0.2000,10.9935,0.0142,0.0491,0.0644,41.44,87.06,33.44,-6.8200,7.6456,0.2622,10.2487
11,8,1,3,1,38.291,38291,-7.1900,8.3100,0.6200,11.0062,0.0196,-0.0164,0.1920,39.31,86.88,35.63,-6.8688,7.7331,0.3093,10.3478
11,8,1,3,1,38.464,38464,-5.4500,7.4700,0.2700,9.2507,-0.0109,-0.0567,0.4298,36.13,87.38,39.06,-6.6818,7.6984,0.3042,10.1983
11,8,1,3,1,38.595,38595,-5.7400,7.1000,0.3100,9.1353,-0.0120,-0.0338,0.5672,33.75,87.75,41.75,-6.5577,7.6196,0.3049,10.0576
11,8,1,3,1,38.725,38725,-3.9100,7.0000,0.3500,8.0256,-0.0131,0.0000,0.5149,29.44,88.00,46.06,-6.2088,7.5379,0.3109,9.7707
11,8,1,3,1,38.855,38855,-3.1900,8.1200,0.2800,8.7286,0.0404,-0.0284,0.5934,25.94,88.00,49.69,-5.8110,7.6146,0.3068,9.5836
11,8,1,3,1,38.985,38985,-3.1300,8.7300,0.2100,9.2765,0.0175,-0.0567,0.2214,22.63,87.94,53.50,-5.4577,7.7616,0.2940,9.4929
11,8,1,3,1,39.115,39115,-3.0400,9.1400,0.3700,9.6394,-0.0240,-0.0207,-0.1069,21.69,88.19,54.63,-5.1391,7.9433,0.3041,9.4656
11,8,1,3,1,39.245,39245,-4.3900,8.9600,0.2100,9.9799,0.0185,0.0425,-0.0284,23.44,88.13,52.81,-5.0404,8.0772,0.2917,9.5254
11,8,1,3,1,39.375,39375,-3.4800,9.2600,0.2600,9.8957,0.0251,0.0098,0.0644,22.63,87.88,53.44,-4.8348,8.2331,0.2875,9.5521
11,8,1,3,1,39.548,39548,-3.6400,9.0800,0.3200,9.7877,0.0284,0.0175,0.1767,22.31,87.56,53.88,-4.6773,8.3447,0.2918,9.5706
11,8,1,3,1,39.679,39679,-3.1000,9.2200,0.4300,9.7367,0.0262,-0.0305,0.0065,21.31,87.38,54.94,-4.4695,8.4600,0.3100,9.5731
11,8,1,3,1,39.809,39809,-3.2500,9.0300,0.3100,9.6021,0.0065,-0.0415,-0.0109,21.38,87.38,55.25,-4.3088,8.5351,0.3100,9.5661
11,8,1,3,1,39.939,39939,-3.3000,8.7500,0.5300,9.3666,-0.0273,-0.0153,-0.1909,21.81,87.50,54.94,-4.1759,8.5635,0.3390,9.5334
11,8,1,3,1,40.069,40069,-4.8800,8.9600,0.2700,10.2063,-0.0327,0.0087,-0.3458,24.38,87.63,52.31,-4.2686,8.6157,0.3299,9.6208
11,8,1,3,1,40.199,40199,-3.6100,8.4500,0.6200,9.2097,-0.0011,0.0251,-0.2171,25.06,87.69,51.44,-4.1819,8.5939,0.3681,9.5644
11,8,1,3,1,40.329,40329,-4.3600,8.3400,0.1000,9.4114,-0.0087,0.0185,-0.2487,27.38,87.56,49.00,-4.2053,8.5604,0.3328,9.5434
11,8,1,3,1,40.459,40459,-4.4100,7.2900,0.1600,8.5216,-0.0098,0.0044,-0.3676,29.81,87.56,46.44,-4.2323,8.3930,0.3100,9.4048
11,8,1,3,1,40.632,40632,-5.2400,9.3500,0.4500,10.7277,0.0327,-0.0207,0.1222,30.94,87.50,45.50,-4.3651,8.5191,0.3285,9.5780
11,8,1,3,1,40.762,40762,-4.2800,6.9400,0.0800,8.1540,0.0055,-0.0676,-0.7712,32.56,87.50,44.19,-4.3539,8.3110,0.2957,9.3871
11,8,1,3,1,40.892,40892,-4.3200,7.8800,-0.1300,8.9874,-0.0098,-0.0349,0.1734,35.38,87.75,41.75,-4.3494,8.2542,0.2396,9.3331
11,8,1,3,1,41.022,41022,-5.5800,7.2100,0.0900,9.1175,0.0175,0.0055,-0.3043,37.19,87.50,40.19,-4.5116,8.1166,0.2199,9.2888
11,8,1,3,1,41.152,41152,-6.5300,7.3400,0.0800,9.8246,-0.0175,0.0382,-0.4265,40.13,87.25,37.13,-4.7776,8.0143,0.2015,9.3324
11,8,1,3,1,41.283,41283,-7.3800,7.1600,0.0900,10.2829,-0.0578,0.0316,-0.2291,42.81,87.19,34.06,-5.1205,7.9017,0.1868,9.4176
11,8,1,3,1,41.413,41413,-6.8400,7.0100,0.0500,9.7943,-0.0415,0.0185,-0.1625,44.06,87.50,32.38,-5.3471,7.7842,0.1688,9.4453
11,8,1,3,1,41.543,41543,-7.4800,7.1200,0.1000,10.3274,0.0425,0.0196,0.0044,44.69,87.44,31.69,-5.6281,7.6967,0.1597,9.5363
11,8,1,3,1,41.716,41716,-6.8300,6.8100,0.2300,9.6477,-0.0120,0.0491,-0.1549,44.06,87.00,32.19,-5.7865,7.5798,0.1690,9.5376
11,8,1,3,1,41.846,41846,-7.1500,7.1700,0.1800,10.1274,0.0033,0.0513,0.1614,44.06,86.69,31.88,-5.9662,7.5258,0.1704,9.6053
11,8,1,3,1,41.976,41976,-7.0800,7.9200,0.4700,10.6336,-0.0175,0.0676,0.1756,43.13,86.44,32.44,-6.1130,7.5778,0.2099,9.7383
11,8,1,3,1,42.106,42106,-6.9200,7.3300,0.5900,10.0977,0.0153,-0.0022,-0.2193,43.19,86.13,32.19,-6.2193,7.5451,0.2600,9.7814
11,8,1,3,1,42.236,42236,-6.6800,7.1600,0.4200,9.8012,0.0142,-0.0567,0.0491,43.19,86.13,32.50,-6.2800,7.4944,0.2811,9.7818
11,8,1,3,1,42.366,42366,-6.9100,7.0400,0.1900,9.8664,-0.0218,-0.0654,-0.0807,43.56,86.63,32.38,-6.3630,7.4345,0.2691,9.7894
11,8,1,3,1,42.497,42497,-6.9700,7.0900,0.1800,9.9439,-0.0055,-0.0284,0.0611,43.94,87.06,32.31,-6.4430,7.3891,0.2573,9.8070
11,8,1,3,1,42.627,42627,-6.9300,7.0300,0.3200,9.8766,-0.0022,-0.0022,-0.0654,43.81,87.19,32.50,-6.5072,7.3418,0.2656,9.8141
11,8,1,3,1,42.800,42800,-6.6300,7.0500,0.3500,9.6841,0.0011,0.0153,0.0175,43.81,87.19,32.50,-6.5234,7.3033,0.2767,9.7964
11,8,1,3,1,42.931,42931,-7.1400,7.1700,0.2900,10.1229,-0.0109,0.0524,-0.1080,44.31,86.94,31.75,-6.6046,7.2858,0.2785,9.8377
11,8,1,3,1,43.062,43062,-6.7900,7.3300,0.2900,9.9959,-0.0273,0.0349,-0.0862,44.69,86.75,31.00,-6.6291,7.2916,0.2800,9.8585
11,9,1,3,1,43.193,43193,-6.6100,6.6500,0.4900,9.3891,0.0065,0.0022,-0.1418,45.50,86.69,30.13,-6.6265,7.2070,0.3077,9.7953
11,9,1,3,1,43.323,43323,-7.0800,6.9800,0.3500,9.9483,0.0109,-0.0316,0.0295,46.00,86.75,29.75,-6.6863,7.1771,0.3132,9.8141
11,9,1,3,1,43.454,43454,-7.1900,6.8200,0.3400,9.9159,0.0109,-0.0425,-0.1374,46.25,86.94,29.75,-6.7527,7.1301,0.3168,9.8253
11,9,1,3,1,43.586,43586,-7.2900,6.4900,0.1000,9.7609,-0.0196,-0.0349,-0.0709,47.19,87.19,29.06,-6.8235,7.0457,0.2882,9.8125
11,9,1,3,1,43.721,43721,-7.7600,7.3300,0.2800,10.6782,-0.0327,-0.0120,0.1953,46.94,87.50,29.31,-6.9469,7.0832,0.2871,9.9254
11,9,1,3,1,43.893,43893,-7.1000,6.9700,0.0800,9.9497,-0.0240,-0.0240,-0.1353,46.94,87.88,29.19,-6.9671,7.0683,0.2598,9.9281
11,9,1,3,1,44.023,44023,-7.3600,6.6600,-0.0100,9.9260,0.0284,0.0044,-0.0044,47.50,87.94,28.69,-7.0188,7.0145,0.2243,9.9256
11,9,1,3,1,44.153,44153,-7.6600,6.5400,0.3900,10.0796,0.0371,0.0513,0.0458,47.31,87.50,29.00,-7.1033,6.9519,0.2461,9.9422
11,9,1,3,1,44.283,44283,-6.8100,6.3700,0.2500,9.3282,-0.0262,0.0295,0.0753,46.44,87.00,29.63,-7.0647,6.8753,0.2466,9.8610
11,9,1,3,1,44.414,44414,-8.1000,7.4200,0.3900,10.9917,-0.0425,-0.0142,0.1974,45.81,87.44,30.00,-7.2011,6.9470,0.2655,10.0094
11,9,1,3,1,44.544,44544,-6.9800,7.1200,0.1400,9.9717,-0.0338,-0.0491,0.3240,43.31,87.88,32.50,-7.1720,6.9698,0.2490,10.0039
11,9,1,3,1,44.675,44675,-6.6300,7.6400,0.4200,10.1244,-0.0371,-0.0273,0.3752,41.00,88.63,34.81,-7.1006,7.0581,0.2715,10.0154
11,9,1,3,1,44.805,44805,-6.6300,7.3700,0.0600,9.9135,-0.0175,0.0044,0.3392,38.94,88.81,36.88,-7.0385,7.0992,0.2436,10.0000
11,9,1,3,1,44.978,44978,-4.4100,6.3800,0.0400,7.7559,-0.0131,0.0349,0.6447,33.56,88.75,42.00,-6.6922,7.0045,0.2168,9.6899
11,9,1,3,1,45.109,45109,-4.4300,7.0800,0.1800,8.3537,-0.0425,0.0076,0.5367,30.44,89.00,44.88,-6.3941,7.0144,0.2120,9.4937
11,9,1,3,1,45.239,45239,-2.3600,9.9000,0.2400,10.1802,0.0622,-0.0120,0.6840,22.88,88.94,52.38,-5.8625,7.3947,0.2157,9.4391
11,9,1,3,1,45.370,45370,-4.1100,7.8400,0.8500,8.8927,0.2040,-0.0175,0.0644,23.31,88.38,52.38,-5.6316,7.4533,0.2992,9.3465
11,9,1,3,1,45.501,45501,-3.1900,8.7000,0.7400,9.2959,0.0076,0.0229,0.2923,21.06,87.88,54.63,-5.3098,7.6176,0.3573,9.2925
11,9,1,3,1,45.631,45631,-3.4600,8.8600,0.4300,9.5213,-0.0229,-0.0033,-0.1724,21.13,87.75,54.56,-5.0661,7.7813,0.3669,9.2924
11,9,1,3,1,45.762,45762,-3.3600,9.2200,0.4400,9.8230,-0.0218,-0.0109,0.0415,21.00,87.94,54.63,-4.8412,7.9709,0.3765,9.3335
11,9,1,3,1,45.892,45892,-3.6800,9.1700,0.3400,9.8867,0.0240,-0.0131,-0.0327,21.50,87.88,54.19,-4.6882,8.1289,0.3717,9.3913
11,9,1,3,1,46.065,46065,-3.1800,9.0200,0.3500,9.5705,0.0218,-0.0295,0.0305,20.63,87.69,55.31,-4.4895,8.2463,0.3689,9.3965
11,9,1,3,1,46.199,46199,-3.2000,9.0400,0.3400,9.5957,0.0000,-0.0480,0.1036,19.81,87.81,56.38,-4.3196,8.3509,0.3651,9.4090
11,9,1,3,1,46.331,46331,-3.1300,9.3600,0.5000,9.8821,-0.0196,-0.0240,0.1822,19.69,87.94,56.81,-4.1628,8.4839,0.3828,9.4579
11,9,1,3,1,46.461,46461,-3.1200,9.2100,0.1100,9.7247,-0.0338,-0.0425,-0.2520,20.00,88.13,56.63,-4.0254,8.5796,0.3469,9.4833
11,9,1,3,1,46.592,46592,-3.3500,9.1600,0.3300,9.7589,-0.0229,-0.0164,-0.1451,21.31,88.38,55.50,-3.9364,8.6561,0.3447,9.5153
11,9,1,3,1,46.722,46722,-3.8300,8.6900,0.3800,9.5042,0.0087,0.0022,-0.6000,24.00,88.31,52.81,-3.9224,8.6605,0.3493,9.5138
11,9,1,3,1,46.853,46853,-4.7600,8.1300,0.3900,9.4290,0.0153,-0.0109,-0.4342,28.25,88.19,48.63,-4.0327,8.5906,0.3547,9.4967
11,9,1,3,1,46.983,46983,-4.8600,7.9300,0.1100,9.3014,-0.0153,-0.0153,-0.2247,30.44,88.19,46.44,-4.1418,8.5036,0.3224,9.4641
11,9,1,3,1,47.156,47156,-5.7200,7.7200,0.1600,9.6095,-0.0109,-0.0033,-0.1614,33.69,88.38,43.31,-4.3497,8.4003,0.3010,9.4645
11,9,1,3,1,47.286,47286,-5.4100,7.4600,0.1000,9.2157,-0.0120,0.0589,-0.2400,34.56,88.25,42.13,-4.4894,8.2764,0.2745,9.4196
11,9,1,3,1,47.416,47416,-6.3000,8.2000,0.1100,10.3413,-0.0153,0.0327,-0.3512,35.94,88.13,40.44,-4.7280,8.2663,0.2529,9.5263
11,9,1,3,1,47.546,47546,-6.6800,8.0000,0.0000,10.4222,-0.0360,0.0709,-0.2978,37.63,87.94,38.31,-4.9853,8.2312,0.2195,9.6257
11,9,1,3,1,47.676,47676,-5.8400,7.2100,0.0900,9.2789,0.0076,0.0491,-0.5749,39.75,87.56,35.75,-5.0979,8.0967,0.2025,9.5700
11,9,1,3,1,47.806,47806,-6.7300,7.3500,0.5100,9.9788,0.0196,0.0196,0.0120,41.94,87.13,33.44,-5.3130,7.9983,0.2430,9.6052
11,9,1,3,1,47.936,47936,-6.5200,6.9400,0.1100,9.5229,-0.0076,-0.0447,-0.1516,42.75,87.13,32.81,-5.4720,7.8588,0.2255,9.5789
11,9,1,3,1,48.067,48067,-6.2100,6.8800,0.1600,9.2695,-0.0371,-0.0622,-0.0862,43.56,87.69,32.13,-5.5693,7.7298,0.2168,9.5296
11,9,1,3,1,48.240,48240,-7.1400,6.8000,0.0500,9.8601,-0.0164,-0.0545,-0.1385,45.38,88.56,30.56,-5.7762,7.6073,0.1949,9.5538
11,9,1,3,1,48.370,48370,-7.4200,6.8700,0.0200,10.1121,-0.0044,-0.0415,-0.0207,45.75,89.13,30.38,-5.9928,7.5102,0.1718,9.6097
11,9,1,3,1,48.500,48500,-7.1700,6.8300,-0.0500,9.9025,0.0131,0.0164,0.0273,45.56,89.25,30.69,-6.1480,7.4205,0.1426,9.6375
11,9,1,3,1,48.630,48630,-7.4500,6.6100,-0.0800,9.9600,-0.0131,0.0687,0.0589,45.75,89.13,30.25,-6.3195,7.3137,0.1133,9.6664
11,9,1,3,1,48.760,48760,-7.3200,7.3300,0.0000,10.3591,-0.0316,0.0676,-0.0131,45.94,88.81,29.56,-6.4514,7.3159,0.0983,9.7546
11,9,1,3,1,48.890,48890,-7.0000,6.9000,0.2600,9.8325,0.0207,0.0229,-0.0065,45.44,88.50,29.81,-6.5237,7.2611,0.1196,9.7619
11,9,1,3,1,49.020,49020,-6.9400,6.9100,0.3200,9.7987,0.0273,-0.0098,0.1429,44.94,88.25,30.38,-6.5785,7.2148,0.1460,9.7648
11,9,1,3,1,49.151,49151,-7.1200,7.5400,0.2300,10.3730,0.0109,-0.0251,-0.0469,44.25,88.25,31.31,-6.6499,7.2577,0.1571,9.8448
11,10,1,3,1,49.324,49324,-6.9600,6.3300,-0.0300,9.4080,-0.0033,-0.0207,-0.2411,45.81,88.38,29.88,-6.6908,7.1354,0.1324,9.7825
11,10,1,3,1,49.454,49454,-6.6100,6.9700,0.1100,9.6065,-0.0022,0.0087,0.0905,45.88,88.63,29.88,-6.6801,7.1136,0.1295,9.7593
11,10,1,3,1,49.585,49585,-7.5400,5.8900,0.2600,9.5714,0.0120,0.0240,-0.2302,47.63,88.44,28.13,-6.7934,6.9524,0.1467,9.7215
11,10,1,3,1,49.716,49716,-6.8300,7.1600,0.2400,9.8981,-0.0087,0.0360,0.1614,46.88,88.13,28.75,-6.7982,6.9797,0.1590,9.7446
11,10,1,3,1,49.846,49846,-6.9100,7.2600,0.2400,10.0256,0.0196,-0.0087,0.0055,47.38,88.00,28.19,-6.8130,7.0167,0.1697,9.7816
11,10,1,3,1,49.977,49977,-7.5900,5.4600,-0.1900,9.3518,0.0251,-0.0338,-0.1549,49.56,87.88,26.25,-6.9154,6.8115,0.1223,9.7074
11,10,1,3,1,50.107,50107,-6.5700,6.3800,0.2600,9.1617,0.0000,0.0000,0.0098,48.00,87.94,27.94,-6.8699,6.7547,0.1404,9.6354
11,10,1,3,1,50.238,50238,-7.6100,6.7500,0.3000,10.1767,0.0240,0.0251,0.2574,48.38,87.81,27.63,-6.9674,6.7541,0.1614,9.7050
11,10,1,3,1,50.415,50415,-7.2900,6.7300,0.3000,9.9261,-0.0153,0.0415,-0.0022,47.56,87.44,28.19,-7.0099,6.7509,0.1797,9.7337
11,10,1,3,1,50.546,50546,-6.7100,5.0400,0.2800,8.3967,0.0240,0.0338,-0.7396,49.19,86.88,26.38,-6.9704,6.5254,0.1929,9.5501
11,10,1,3,1,50.676,50676,-6.9800,6.1600,0.5700,9.3269,0.0055,0.0229,0.7723,47.94,86.69,27.56,-6.9716,6.4773,0.2426,9.5193
11,10,1,3,1,50.807,50807,-7.0900,7.7500,0.5400,10.5177,-0.0153,0.0284,0.0873,45.44,86.75,29.81,-6.9872,6.6450,0.2818,9.6466
11,10,1,3,1,50.937,50937,-7.5400,7.6100,0.4100,10.7206,0.0065,-0.0076,-0.0971,45.31,86.69,29.94,-7.0601,6.7722,0.2987,9.7875
11,10,1,3,1,51.068,51068,-6.4200,6.4300,0.3100,9.0916,-0.0022,-0.0229,-0.2847,45.94,86.81,29.38,-6.9757,6.7271,0.3002,9.6956
11,10,1,3,1,51.198,51198,-7.3700,6.0900,0.1700,9.5621,-0.0011,-0.0295,-0.0295,47.88,86.94,27.63,-7.0277,6.6431,0.2830,9.6747
11,10,1,3,1,51.329,51329,-7.9100,7.1700,0.2700,10.6794,0.0044,-0.0524,0.1156,47.13,87.31,28.56,-7.1440,6.7125,0.2813,9.8068
11,10,1,3,1,51.502,51502,-6.7700,6.1400,0.1300,9.1405,0.0436,0.0076,-0.3469,47.44,87.56,28.50,-7.0947,6.6371,0.2614,9.7187
11,10,1,3,1,51.633,51633,-7.1200,5.9800,0.2900,9.3026,0.0251,0.0382,0.0644,47.75,86.88,28.31,-7.0980,6.5505,0.2651,9.6624
11,10,1,3,1,51.763,51763,-7.1200,6.4200,0.5200,9.6011,-0.0567,0.0164,-0.1745,47.56,86.88,28.25,-7.1009,6.5333,0.2987,9.6538
11,10,1,3,1,51.894,51894,-8.2500,7.1200,0.2400,10.9002,-0.0164,0.0000,0.1222,47.25,86.88,28.38,-7.2523,6.6106,0.2910,9.8174
11,10,1,3,1,52.025,52025,-7.9500,7.9400,0.2000,11.2377,-0.0764,-0.0142,0.2269,45.88,87.56,29.56,-7.3443,6.7858,0.2790,10.0032
11,10,1,3,1,52.155,52155,-7.4300,7.6700,0.1800,10.6802,0.0535,-0.0153,0.1756,44.50,87.75,30.94,-7.3556,6.9023,0.2660,10.0904
11,10,1,3,1,52.286,52286,-6.9700,6.4100,0.3900,9.4774,0.0175,-0.0458,0.3949,42.38,87.69,33.50,-7.3048,6.8374,0.2823,10.0095
11,10,1,3,1,52.416,52416,-5.8400,6.5000,0.2700,8.7423,-0.0229,-0.0240,0.5509,39.38,88.06,36.56,-7.1117,6.7930,0.2807,9.8387
11,10,1,3,1,52.589,52589,-5.2500,6.9100,0.3300,8.6844,0.0262,-0.0229,0.5770,34.13,88.25,42.00,-6.8664,6.8084,0.2872,9.6739
11,10,1,3,1,52.723,52723,-3.3200,7.6500,0.2300,8.3425,0.0415,-0.0578,0.6447,28.63,88.13,47.94,-6.3991,6.9193,0.2796,9.4288
11,10,1,3,1,52.855,52855,-4.0500,9.3400,-0.0400,10.1804,-0.0502,-0.0753,0.4145,25.06,88.50,52.06,-6.0895,7.2383,0.2375,9.4621
11,10,1,3,1,52.985,52985,-3.6300,8.5700,0.2300,9.3099,-0.0229,-0.0513,-0.1429,24.00,89.00,53.31,-5.7654,7.4138,0.2365,9.3947
