participant,rep,equipment_code,exercise_code,quality_code,timestamp,timestamp_ms,accelX,accelY,accelZ,accelMag,gyroX,gyroY,gyroZ,roll,pitch,yaw,filteredX,filteredY,filteredZ,filteredMag
11,1,1,3,1,00.000,0,-0.1400,9.7400,0.1700,9.7425,0.0065,0.0262,-0.1145,0.50,89.69,79.75,0.1781,9.7572,0.1310,9.7597
11,1,1,3,1,00.172,172,0.0100,9.9200,0.0400,9.9201,0.0305,0.0153,-0.0436,0.13,89.56,79.88,0.1560,9.7787,0.1190,9.7807
11,1,1,3,1,00.302,302,-0.0700,9.3100,0.1700,9.3118,0.0654,0.0207,0.0131,0.75,89.19,79.13,0.1262,9.7169,0.1258,9.7186
11,1,1,3,1,00.432,432,0.2300,9.7400,0.1600,9.7440,0.0240,0.0087,-0.0447,0.50,88.88,79.31,0.1399,9.7200,0.1303,9.7218
11,1,1,3,1,00.562,562,-0.6500,9.2200,0.3300,9.2488,0.0153,0.0055,-0.3207,2.06,88.75,77.75,0.0358,9.6541,0.1566,9.6554
11,1,1,3,1,00.692,692,0.2400,9.9400,0.4400,9.9526,0.0218,0.0251,0.2443,1.81,88.69,77.88,0.0627,9.6918,0.1939,9.6939
11,1,1,3,1,00.823,823,-0.6800,8.3100,0.3000,8.3432,-0.0436,0.0044,-0.8759,4.63,88.69,75.00,-0.0352,9.5097,0.2079,9.5120
11,1,1,3,1,00.953,953,-1.0400,8.6200,0.1700,8.6842,-0.1036,0.0633,0.0338,7.06,89.19,72.19,-0.1676,9.3924,0.2029,9.3961
11,1,1,3,1,01.084,1084,-1.8400,9.9500,0.2200,10.1211,-0.0894,0.0480,-0.4309,9.00,89.81,69.81,-0.3880,9.4659,0.2052,9.4761
11,1,1,3,1,01.257,1257,-1.9600,10.0600,0.0900,10.2496,-0.0469,0.1124,-0.2073,10.50,90.31,67.50,-0.5951,9.5442,0.1900,9.5646
11,1,1,3,1,01.387,1387,-2.3300,9.8400,-0.1200,10.1128,-0.0065,0.1364,-0.2956,13.13,90.31,63.88,-0.8237,9.5832,0.1491,9.6197
11,1,1,3,1,01.517,1517,-1.8500,8.2900,0.0200,8.4939,0.0109,0.0469,-0.2694,14.25,90.13,62.06,-0.9590,9.4128,0.1321,9.4624
11,1,1,3,1,01.647,1647,-3.1200,10.1400,0.1000,10.6096,-0.0044,-0.0218,0.2498,15.38,90.13,61.00,-1.2437,9.5086,0.1279,9.5904
11,1,1,3,1,01.777,1777,-1.9200,10.0300,-0.0400,10.2122,0.0218,0.0055,-0.0949,13.50,90.06,62.88,-1.3329,9.5773,0.1058,9.6702
11,1,1,3,1,01.907,1907,-2.9100,9.7000,-0.2800,10.1310,0.0185,-0.0131,-0.1614,15.63,89.88,60.88,-1.5407,9.5935,0.0549,9.7166
11,1,1,3,1,02.037,2037,-1.8200,9.6700,-0.1800,9.8414,0.0284,-0.0436,0.2007,13.81,89.69,62.94,-1.5775,9.6036,0.0240,9.7323
11,1,1,3,1,02.167,2167,-3.3500,9.7000,0.0800,10.2625,0.0196,-0.0055,-0.3600,15.75,89.56,61.25,-1.8111,9.6163,0.0314,9.7854
11,1,1,3,1,02.340,2340,-2.6500,9.8200,0.2300,10.1739,-0.0382,0.0349,-0.0458,16.56,89.63,60.13,-1.9216,9.6431,0.0575,9.8329
11,1,1,3,1,02.471,2471,-2.8800,9.3600,0.1900,9.7949,-0.0229,-0.0153,-0.0720,17.19,89.81,59.44,-2.0479,9.6058,0.0750,9.8220
11,1,1,3,1,02.601,2601,-3.0100,9.4600,-0.1100,9.9279,-0.0305,-0.0076,0.0175,17.38,89.94,59.25,-2.1747,9.5866,0.0506,9.8303
11,1,1,3,1,02.731,2731,-2.8100,9.7100,-0.1100,10.1090,-0.0087,-0.0098,0.0556,16.94,90.19,59.63,-2.2584,9.6029,0.0294,9.8649
11,1,1,3,1,02.861,2861,-2.9000,9.1900,-0.0800,9.6370,0.0218,-0.0076,-0.0349,17.06,90.13,59.56,-2.3429,9.5485,0.0150,9.8317
11,1,1,3,1,02.991,2991,-2.7500,9.3300,0.0000,9.7268,0.0349,-0.0065,0.0709,16.75,89.88,59.94,-2.3966,9.5197,0.0130,9.8167
11,1,1,3,1,03.121,3121,-2.8700,9.4200,0.1000,9.8480,-0.0055,-0.0131,-0.0404,16.81,89.81,59.94,-2.4590,9.5065,0.0245,9.8194
11,1,1,3,1,03.251,3251,-2.8800,9.3800,-0.0800,9.8125,-0.0273,-0.0207,0.0262,17.13,90.00,59.69,-2.5145,9.4899,0.0107,9.8173
11,1,1,3,1,03.424,3424,-2.9600,9.4300,0.1100,9.8843,0.0076,0.0033,-0.0524,17.44,90.13,59.44,-2.5732,9.4820,0.0238,9.8249
11,1,1,3,1,03.554,3554,-3.0800,9.6800,-0.0400,10.1583,0.0185,-0.0022,-0.1004,17.56,90.06,59.38,-2.6400,9.5081,0.0154,9.8678
11,1,1,3,1,03.684,3684,-3.0300,8.8600,0.0300,9.3638,0.0185,0.0044,0.0316,18.06,89.88,58.94,-2.6913,9.4227,0.0173,9.7995
11,1,1,3,1,03.814,3814,-3.0200,9.6000,0.0400,10.0639,-0.0175,0.0076,0.0731,17.56,89.88,59.44,-2.7347,9.4460,0.0203,9.8339
11,1,1,3,1,03.944,3944,-3.0500,9.9100,-0.0200,10.3688,-0.0295,0.0109,-0.0120,17.31,90.00,59.50,-2.7762,9.5072,0.0150,9.9042
11,1,1,3,1,04.074,4074,-3.2300,9.8200,-0.1300,10.3384,0.0087,-0.0044,0.1058,17.38,90.13,59.44,-2.8360,9.5484,-0.0041,9.9607
11,1,1,3,1,04.220,4220,-2.7200,9.4600,0.0100,9.8433,0.0753,0.0218,0.0185,16.38,89.75,60.50,-2.8207,9.5367,-0.0022,9.9452
11,1,1,3,1,04.355,4355,-3.1800,9.8000,0.1800,10.3046,0.0502,0.0196,-0.0185,16.94,89.31,59.88,-2.8681,9.5714,0.0218,9.9919
11,2,1,3,1,04.527,4527,-2.8700,9.0100,0.0300,9.4561,0.0022,0.0273,0.0633,16.38,88.75,60.31,-2.8683,9.4975,0.0229,9.9212
11,2,1,3,1,04.657,4657,-2.5600,9.2300,0.2500,9.5817,-0.0131,0.0065,0.2258,15.44,88.81,61.13,-2.8277,9.4622,0.0528,9.8758
11,2,1,3,1,04.787,4787,-2.2900,9.5300,0.1900,9.8031,0.0065,-0.0044,0.2214,13.50,88.81,63.13,-2.7568,9.4711,0.0709,9.8645
11,2,1,3,1,04.918,4918,-2.0900,9.6400,0.1800,9.8656,-0.0371,-0.0033,0.2705,12.31,89.00,64.25,-2.6690,9.4934,0.0852,9.8618
11,2,1,3,1,05.048,5048,-1.7100,8.8200,0.1400,8.9853,0.0109,-0.0142,0.2094,10.44,89.13,66.19,-2.5426,9.4047,0.0925,9.7427
11,2,1,3,1,05.178,5178,-1.5000,8.9400,0.0700,9.0652,0.0055,0.0458,0.3862,8.44,89.00,68.13,-2.4052,9.3434,0.0895,9.6485
11,2,1,3,1,05.309,5309,-1.3700,9.8600,0.3500,9.9609,-0.0033,0.0600,0.0589,6.81,88.94,69.25,-2.2688,9.4115,0.1238,9.6819
11,2,1,3,1,05.439,5439,-0.6800,9.1900,0.2600,9.2188,0.0240,0.0044,0.4745,4.69,88.81,71.19,-2.0594,9.3823,0.1418,9.6067
11,2,1,3,1,05.612,5612,-0.0300,9.9100,0.2600,9.9135,0.0404,-0.0076,0.5694,0.94,88.56,75.06,-1.7920,9.4518,0.1574,9.6215
11,2,1,3,1,05.743,5743,0.1500,9.7100,0.1100,9.7118,-0.0087,-0.0273,0.1429,-1.81,88.38,77.94,-1.5361,9.4859,0.1511,9.6106
11,2,1,3,1,05.874,5874,0.5700,9.4000,0.4600,9.4285,0.0109,-0.0284,0.3033,-3.63,88.38,79.88,-1.2586,9.4746,0.1918,9.5597
11,2,1,3,1,06.004,6004,1.4300,9.5100,-0.0200,9.6169,-0.0120,-0.0251,0.5334,-6.94,88.31,83.44,-0.9043,9.4792,0.1639,9.5237
11,2,1,3,1,06.135,6135,1.7600,9.8600,0.6600,10.0376,0.0022,-0.0545,-0.0676,-8.69,88.44,85.44,-0.5532,9.5294,0.2293,9.5482
11,2,1,3,1,06.265,6265,1.2700,9.7000,0.3700,9.7898,0.0305,-0.0491,0.0644,-8.19,88.19,85.38,-0.3129,9.5519,0.2478,9.5602
11,2,1,3,1,06.395,6395,1.6200,9.9100,0.5500,10.0566,0.0305,-0.0458,-0.0295,-8.88,87.88,86.31,-0.0582,9.5991,0.2876,9.6036
11,2,1,3,1,06.525,6525,1.0000,9.6300,0.4200,9.6909,0.0087,-0.0251,-0.1244,-7.88,87.63,85.63,0.0812,9.6031,0.3051,9.6083
11,2,1,3,1,06.698,6698,1.5300,9.7300,0.4800,9.8612,-0.0327,-0.0033,0.0436,-8.56,87.69,86.38,0.2721,9.6199,0.3281,9.6293
11,2,1,3,1,06.829,6829,0.8800,9.7000,0.4100,9.7485,-0.0382,0.0065,-0.0458,-7.81,87.94,85.69,0.3522,9.6304,0.3389,9.6428
11,2,1,3,1,06.964,6964,1.9700,9.5200,0.3200,9.7270,-0.0491,0.0185,0.3272,-9.56,88.25,87.31,0.5654,9.6159,0.3364,9.6384
11,2,1,3,1,07.094,7094,2.3300,9.7900,0.1800,10.0651,-0.0022,0.0044,0.2214,-11.06,88.50,88.81,0.7979,9.6388,0.3158,9.6769
11,2,1,3,1,07.226,7226,2.5500,9.9200,0.0900,10.2429,0.0262,-0.0469,-0.1822,-11.63,88.38,89.50,1.0288,9.6759,0.2861,9.7346
11,2,1,3,1,07.356,7356,1.6900,9.3100,0.2200,9.4647,-0.0044,-0.1058,-0.5520,-9.44,88.25,87.88,1.1159,9.6277,0.2774,9.6961
11,2,1,3,1,07.486,7486,1.0100,9.6600,0.5300,9.7271,0.0196,-0.0665,-0.1265,-6.81,88.06,85.94,1.1020,9.6319,0.3106,9.6997
11,2,1,3,1,07.617,7617,1.1900,9.9200,0.8300,10.0255,0.0447,0.0153,-0.5389,-4.94,87.81,84.06,1.1136,9.6699,0.3791,9.7412
11,2,1,3,1,07.789,7789,-0.7000,9.7300,0.4300,9.7646,-0.0011,-0.0305,-0.5487,1.81,87.50,77.19,0.8746,9.6778,0.3858,9.7249
11,2,1,3,1,07.919,7919,-0.4100,8.6900,0.4000,8.7089,-0.0295,-0.0709,-0.1516,3.25,87.69,76.25,0.7053,9.5476,0.3877,9.5815
11,2,1,3,1,08.049,8049,-2.6500,10.7100,0.5600,11.0472,-0.0022,-0.0196,-0.3425,6.50,87.88,73.31,0.2632,9.7008,0.4104,9.7130
11,2,1,3,1,08.179,8179,-0.6700,9.5900,0.2500,9.6166,-0.0240,0.0567,0.2563,4.75,87.81,74.88,0.1402,9.6862,0.3892,9.6950
11,2,1,3,1,08.310,8310,-1.6500,7.7700,0.3400,7.9505,-0.0229,0.1102,-0.6130,7.31,88.00,71.69,-0.0957,9.4337,0.3828,9.4419
11,2,1,3,1,08.440,8440,-1.6500,7.6900,0.0300,7.8651,-0.0207,0.1549,-0.0229,9.50,88.00,68.44,-0.3005,9.2039,0.3363,9.2150
11,2,1,3,1,08.571,8571,-1.5400,11.0600,0.5500,11.1802,-0.0251,0.0796,0.2411,8.38,88.06,68.69,-0.4638,9.4485,0.3644,9.4669
11,2,1,3,1,08.701,8701,-1.1200,10.9400,0.3300,11.0021,-0.0196,0.0338,-0.1571,7.56,88.06,69.13,-0.5503,9.6450,0.3599,9.6674
11,2,1,3,1,08.873,8873,-1.2500,9.3900,0.1200,9.4736,-0.0316,-0.0240,-0.2378,8.69,88.25,68.00,-0.6425,9.6114,0.3283,9.6385
11,2,1,3,1,09.003,9003,-1.9500,10.4600,0.2700,10.6436,-0.0295,-0.0425,-0.1233,10.38,88.56,66.50,-0.8148,9.7233,0.3206,9.7626
11,2,1,3,1,09.133,9133,-1.8900,8.9100,0.3900,9.1166,0.0480,-0.0862,-0.1996,11.44,88.56,65.94,-0.9565,9.6161,0.3297,9.6692
11,2,1,3,1,09.263,9263,-1.8500,8.2000,0.2700,8.4104,0.0513,-0.0709,-0.0502,12.13,88.25,65.88,-1.0742,9.4295,0.3219,9.4959
11,2,1,3,1,09.394,9394,-2.9200,10.0600,0.1300,10.4760,-0.0458,-0.0316,-0.0829,13.31,88.38,65.13,-1.3175,9.5126,0.2966,9.6079
11,2,1,3,1,09.524,9524,-2.6100,11.0800,0.4200,11.3910,-0.0044,0.0022,-0.0698,13.44,88.56,65.00,-1.4878,9.7191,0.3129,9.8373
11,2,1,3,1,09.655,9655,-3.2100,9.7200,0.0800,10.2366,-0.0491,-0.0022,-0.2367,15.44,88.75,62.94,-1.7147,9.7192,0.2822,9.8734
11,2,1,3,1,09.785,9785,-2.6100,9.6400,0.0500,9.9872,-0.0764,0.0164,0.1178,15.38,89.25,62.81,-1.8327,9.7088,0.2516,9.8835
11,2,1,3,1,09.958,9958,-2.8700,9.8400,-0.0500,10.2501,-0.0240,0.0044,-0.1996,15.63,89.69,62.38,-1.9694,9.7261,0.2118,9.9257
11,2,1,3,1,10.089,10089,-2.4000,10.0600,0.0200,10.3423,0.0153,0.0316,0.0862,15.69,89.69,62.19,-2.0261,9.7701,0.1866,9.9797
11,3,1,3,1,10.219,10219,-3.1800,8.0400,-0.2000,8.6484,0.0284,-0.0022,-0.5040,17.63,89.44,60.19,-2.1782,9.5421,0.1356,9.7885
11,3,1,3,1,10.350,10350,-2.8700,9.3000,0.0200,9.7328,0.0175,0.0273,0.6261,16.63,89.19,61.19,-2.2693,9.5102,0.1204,9.7780
11,3,1,3,1,10.480,10480,-2.4500,10.1500,0.2000,10.4434,0.0131,0.0371,-0.1298,14.81,89.06,62.75,-2.2932,9.5945,0.1309,9.8656
11,3,1,3,1,10.610,10610,-2.4100,9.5600,0.2000,9.8611,0.0164,0.0262,0.0185,15.38,88.88,61.94,-2.3085,9.5900,0.1400,9.8649
11,3,1,3,1,10.740,10740,-2.6400,8.7600,0.2200,9.1518,0.0153,0.0000,-0.2051,16.19,88.75,61.19,-2.3522,9.4806,0.1505,9.7692
11,3,1,3,1,10.870,10870,-2.8200,9.2600,0.2300,9.6826,0.0022,-0.0098,0.0862,16.38,88.75,61.00,-2.4139,9.4515,0.1610,9.7562
11,3,1,3,1,11.043,11043,-2.7700,9.9100,0.1100,10.2904,-0.0120,-0.0305,0.1254,15.81,88.88,61.69,-2.4608,9.5119,0.1543,9.8263
11,3,1,3,1,11.173,11173,-2.5900,9.9700,0.1800,10.3025,-0.0065,-0.0382,0.0360,15.25,88.94,62.44,-2.4778,9.5723,0.1577,9.8891
11,3,1,3,1,11.304,11304,-2.7800,10.6000,0.0900,10.9589,-0.0076,-0.0404,0.0360,14.94,89.13,63.00,-2.5176,9.7077,0.1488,10.0300
11,3,1,3,1,11.434,11434,-2.7500,9.5600,0.1300,9.9485,0.0382,-0.0535,0.0415,15.25,89.06,63.06,-2.5483,9.6883,0.1463,10.0189
11,3,1,3,1,11.565,11565,-2.1900,9.0700,0.0800,9.3310,0.0273,-0.0502,0.2378,13.63,88.94,65.19,-2.5011,9.6068,0.1375,9.9280
11,3,1,3,1,11.696,11696,-2.2600,9.3000,0.1800,9.5724,-0.0033,-0.0044,0.0916,12.88,89.00,66.06,-2.4693,9.5664,0.1431,9.8809
11,3,1,3,1,11.826,11826,-2.4300,9.9200,0.0900,10.2137,-0.0055,0.0196,-0.0480,12.44,89.00,66.44,-2.4641,9.6130,0.1361,9.9247
11,3,1,3,1,11.957,11957,-2.1500,9.4700,0.2500,9.7142,0.0273,0.0425,0.1407,12.13,88.88,66.50,-2.4227,9.5941,0.1511,9.8964
11,3,1,3,1,12.133,12133,-2.0700,9.5300,0.4200,9.7613,0.0207,0.0175,0.1582,10.75,88.50,67.69,-2.3762,9.5857,0.1866,9.8776
11,3,1,3,1,12.264,12264,-1.2000,8.7700,0.3900,8.8603,0.0338,-0.0120,0.0774,9.13,88.31,69.31,-2.2212,9.4782,0.2134,9.7373
11,3,1,3,1,12.395,12395,-2.0600,9.4500,0.2300,9.6747,-0.0164,-0.0458,0.2356,9.06,88.31,69.63,-2.2000,9.4745,0.2156,9.7289
11,3,1,3,1,12.525,12525,-0.8600,10.4400,0.1700,10.4767,-0.0371,0.0022,0.5378,5.19,88.56,73.69,-2.0234,9.6017,0.2096,9.8148
11,3,1,3,1,12.655,12655,-0.7800,9.2400,0.2200,9.2755,-0.0447,0.0556,-0.2531,4.81,88.88,73.75,-1.8596,9.5540,0.2109,9.7356
11,3,1,3,1,12.786,12786,-1.1300,10.0700,0.1100,10.1338,-0.0131,0.0611,0.2880,4.81,89.06,73.31,-1.7634,9.6220,0.1976,9.7843
11,3,1,3,1,12.916,12916,-0.4700,10.0300,0.2000,10.0430,0.0098,0.0524,-0.0229,3.63,89.00,74.06,-1.5930,9.6758,0.1979,9.8080
11,3,1,3,1,13.047,13047,-0.1300,9.4200,0.1600,9.4223,0.0251,0.0000,0.4091,2.63,88.81,74.88,-1.4002,9.6421,0.1929,9.7451
11,3,1,3,1,13.218,13218,-1.3400,9.2800,-0.0200,9.3763,-0.0131,-0.0524,0.0404,3.06,88.88,74.88,-1.3923,9.5944,0.1649,9.6963
11,3,1,3,1,13.348,13348,0.9800,9.8000,0.3800,9.8562,0.0458,-0.0185,0.6469,-2.19,88.69,80.31,-1.0797,9.6215,0.1932,9.6838
11,3,1,3,1,13.478,13478,-0.4100,9.5600,0.1700,9.5703,0.0644,-0.0742,-0.6414,-0.31,88.25,78.88,-0.9914,9.6134,0.1902,9.6662
11,3,1,3,1,13.608,13608,-0.7000,9.5500,0.2000,9.5777,0.0087,-0.0524,0.2487,1.56,88.06,77.38,-0.9530,9.6050,0.1915,9.6541
11,3,1,3,1,13.739,13739,0.5800,9.3500,0.7500,9.3979,0.0098,-0.0469,0.5989,-2.25,88.06,81.63,-0.7510,9.5714,0.2651,9.6045
11,3,1,3,1,13.869,13869,1.1400,9.9600,0.2900,10.0292,0.0109,-0.0153,0.4265,-5.69,88.00,85.31,-0.5018,9.6226,0.2684,9.6394
11,3,1,3,1,14.000,14000,1.3500,9.8700,0.5600,9.9776,0.0240,0.0600,0.5541,-9.25,87.75,88.69,-0.2578,9.6552,0.3068,9.6635
11,3,1,3,1,14.130,14130,1.9500,9.0800,0.3400,9.2933,0.0447,0.0971,0.0993,-12.19,87.50,90.94,0.0331,9.5794,0.3112,9.5845
11,3,1,3,1,14.303,14303,2.3300,8.8900,0.1900,9.1922,-0.1364,0.0545,-0.4276,-11.06,88.13,89.13,0.3358,9.4886,0.2952,9.4991
11,3,1,3,1,14.433,14433,0.6700,11.0800,0.7100,11.1229,-0.1200,0.0415,0.0262,-8.94,89.06,86.88,0.3798,9.6983,0.3499,9.7120
11,3,1,3,1,14.563,14563,2.3600,8.9900,0.2900,9.2991,-0.0185,0.1091,0.8116,-14.06,89.63,91.44,0.6408,9.6049,0.3420,9.6324
11,3,1,3,1,14.693,14693,3.1600,10.0900,-0.0500,10.5734,-0.0185,0.0698,-0.3458,-15.31,90.00,92.06,0.9727,9.6689,0.2903,9.7220
11,3,1,3,1,14.823,14823,2.4000,9.9900,-0.0400,10.2743,0.0742,-0.0196,-0.4418,-12.31,89.81,88.88,1.1608,9.7112,0.2468,9.7834
11,3,1,3,1,14.954,14954,1.3600,9.6000,-0.1000,9.6964,0.0938,-0.0262,-0.5203,-8.69,89.13,85.31,1.1871,9.6965,0.2011,9.7710
11,3,1,3,1,15.084,15084,0.5000,9.9600,0.2500,9.9757,0.0927,-0.0033,-0.1920,-6.06,88.44,82.75,1.0965,9.7312,0.2075,9.7950
11,3,1,3,1,15.214,15214,0.7800,9.1500,0.4700,9.1952,0.0764,0.0000,-0.1004,-5.19,87.81,81.75,1.0548,9.6547,0.2421,9.7151
11,3,1,3,1,15.387,15387,0.0800,10.3000,0.0300,10.3004,-0.1145,-0.0796,-0.0796,-2.88,87.88,79.88,0.9264,9.7397,0.2142,9.7860
11,3,1,3,1,15.518,15518,-0.0500,10.0000,0.9300,10.0433,-0.0665,-0.0491,-0.4669,-1.94,88.63,79.44,0.7977,9.7740,0.3085,9.8113
11,3,1,3,1,15.648,15648,-0.1000,10.0000,0.4800,10.0120,0.0415,-0.0131,0.2411,-0.69,88.63,78.38,0.6794,9.8038,0.3311,9.8329
11,3,1,3,1,15.779,15779,0.8100,9.4200,0.2700,9.4586,0.0262,-0.0753,0.0993,-2.38,88.38,80.38,0.6966,9.7532,0.3230,9.7834
11,3,1,3,1,15.910,15910,-0.2700,9.9500,0.1800,9.9553,0.0142,-0.0676,-0.0949,-0.94,88.31,79.56,0.5692,9.7791,0.3042,9.8004
11,3,1,3,1,16.040,16040,0.3400,9.4500,0.2500,9.4594,0.0076,-0.0240,0.2487,-2.94,88.31,81.81,0.5390,9.7358,0.2971,9.7552
11,3,1,3,1,16.170,16170,0.2500,10.3500,0.0800,10.3533,-0.0393,0.0164,-0.1691,-2.38,88.38,81.31,0.5009,9.8167,0.2685,9.8331
11,3,1,3,1,16.300,16300,-0.3400,9.9700,0.3600,9.9823,-0.0295,0.0207,-0.6218,0.56,88.63,78.19,0.3901,9.8369,0.2805,9.8486
11,3,1,3,1,16.473,16473,-0.0800,8.8300,0.3000,8.8355,-0.0360,0.0480,-0.1156,2.31,88.88,76.06,0.3282,9.7042,0.2831,9.7139
11,3,1,3,1,16.608,16608,-1.4300,9.1700,0.2500,9.2842,-0.0545,0.0676,-0.6294,5.06,89.13,72.81,0.0965,9.6338,0.2787,9.6383
11,3,1,3,1,16.739,16739,-2.0300,10.4400,-0.2300,10.6380,-0.0709,0.0818,0.2923,7.19,89.56,70.13,-0.1837,9.7401,0.2117,9.7441
11,3,1,3,1,16.869,16869,-0.7200,10.1200,0.2300,10.1482,-0.0393,0.1124,0.0044,5.44,89.94,71.13,-0.2544,9.7901,0.2141,9.7958
11,3,1,3,1,17.000,17000,-0.6200,9.4300,-0.1900,9.4523,0.0305,0.0578,-0.1145,6.44,89.88,69.44,-0.3026,9.7427,0.1609,9.7487
11,3,1,3,1,17.131,17131,-1.5700,9.7300,0.1800,9.8575,0.0720,-0.0295,-0.0371,7.06,89.50,68.88,-0.4696,9.7410,0.1634,9.7537
11,3,1,3,1,17.262,17262,-1.0900,9.7900,0.1200,9.8512,0.0927,-0.0665,0.0175,6.81,88.94,69.50,-0.5513,9.7475,0.1577,9.7643
11,3,1,3,1,17.392,17392,-1.4200,9.2400,0.3100,9.3536,0.0469,-0.0807,-0.1549,7.50,88.50,69.50,-0.6658,9.6806,0.1777,9.7051
11,3,1,3,1,17.565,17565,-1.6300,9.0300,0.3000,9.1808,-0.0065,-0.0458,-0.4167,9.75,88.38,67.69,-0.7929,9.5949,0.1938,9.6295
11,3,1,3,1,17.695,17695,-1.8900,9.3300,0.3700,9.5267,0.0022,-0.0425,0.0774,10.69,88.38,67.13,-0.9374,9.5600,0.2171,9.6083
11,3,1,3,1,17.825,17825,-2.1100,9.8100,0.0500,10.0345,-0.0556,-0.0262,-0.3414,11.69,88.75,66.31,-1.0920,9.5929,0.1950,9.6568
11,3,1,3,1,17.955,17955,-3.1900,9.7200,0.3800,10.2371,0.0251,-0.0654,-0.3076,14.31,89.00,63.94,-1.3684,9.6097,0.2194,9.7091
11,3,1,3,1,18.085,18085,-2.9800,9.2300,0.2700,9.7029,0.0284,0.0011,0.2203,14.50,88.81,64.13,-1.5808,9.5596,0.2261,9.6921
11,3,1,3,1,18.215,18215,-3.0500,10.7200,0.2100,11.1474,0.0273,0.0109,0.0218,13.50,88.75,65.06,-1.7744,9.7125,0.2240,9.8758
11,3,1,3,1,18.345,18345,-1.7600,8.9600,0.4000,9.1400,0.0556,0.0469,0.0295,13.50,88.31,64.88,-1.7725,9.6134,0.2472,9.7785
11,3,1,3,1,18.475,18475,-3.0700,8.8500,0.3200,9.3728,-0.0153,0.0011,-0.2793,15.63,88.19,62.69,-1.9435,9.5128,0.2568,9.7127
11,3,1,3,1,18.648,18648,-2.6600,9.9400,0.1500,10.2909,-0.1069,-0.0273,-0.2934,14.63,88.81,63.56,-2.0379,9.5691,0.2427,9.7867
11,3,1,3,1,18.778,18778,-2.8800,10.4800,0.0100,10.8685,-0.0545,-0.0196,0.0764,15.44,89.44,62.75,-2.1489,9.6891,0.2120,9.9268
11,3,1,3,1,18.908,18908,-2.9200,9.1800,0.1000,9.6337,-0.0338,-0.0262,-0.2313,16.56,89.81,61.75,-2.2505,9.6220,0.1973,9.8837
11,3,1,3,1,19.038,19038,-3.1200,9.1100,0.0000,9.6295,-0.0098,0.0000,-0.0469,17.38,90.00,61.00,-2.3651,9.5546,0.1713,9.8444
11,3,1,3,1,19.168,19168,-2.6200,9.8000,-0.1100,10.1448,0.0175,0.0087,-0.1222,17.63,90.00,60.75,-2.3987,9.5869,0.1342,9.8833
11,3,1,3,1,19.298,19298,-3.4400,9.1100,-0.0200,9.7379,0.0513,0.0055,-0.5018,20.25,89.69,58.19,-2.5359,9.5241,0.1139,9.8565
11,3,1,3,1,19.429,19429,-3.8500,9.0900,0.0700,9.8720,0.0295,0.0327,0.0960,21.69,89.31,56.75,-2.7090,9.4669,0.1081,9.8474
11,3,1,3,1,19.559,19559,-3.8700,9.1300,0.0900,9.9167,0.0229,0.0251,-0.0938,21.56,89.00,56.75,-2.8620,9.4225,0.1057,9.8481
11,3,1,3,1,19.732,19732,-3.3900,9.3300,0.1900,9.9286,-0.0262,0.0240,0.2116,21.13,88.88,56.94,-2.9316,9.4103,0.1168,9.8570
11,3,1,3,1,19.862,19862,-3.2900,9.4200,0.1800,9.9796,-0.0447,-0.0305,0.0425,20.19,89.19,57.81,-2.9788,9.4116,0.1251,9.8725
11,3,1,3,1,19.992,19992,-3.4500,9.5800,-0.0200,10.1823,-0.0338,-0.0633,0.0033,19.81,89.56,58.44,-3.0409,9.4338,0.1060,9.9123
11,3,1,3,1,20.122,20122,-3.8000,9.7900,-0.0300,10.5017,-0.0087,-0.0611,0.0556,19.63,89.94,59.06,-3.1409,9.4807,0.0881,9.9878
11,3,1,3,1,20.252,20252,-3.8200,9.4800,-0.0100,10.2207,0.0229,-0.0087,0.2182,19.13,90.06,59.81,-3.2304,9.4806,0.0752,10.0161
11,3,1,3,1,20.382,20382,-2.7400,9.4900,0.0900,9.8780,0.0229,0.0327,0.2411,17.06,89.81,61.88,-3.1658,9.4818,0.0771,9.9967
11,3,1,3,1,20.513,20513,-3.4900,9.8700,-0.1000,10.4693,0.0175,0.0545,-0.1473,17.38,89.63,61.25,-3.2085,9.5330,0.0538,10.0586
11,4,1,3,1,20.643,20643,-2.5300,8.7400,0.2000,9.1010,0.0851,0.0404,0.0175,17.31,89.25,61.00,-3.1191,9.4285,0.0731,9.9313
11,4,1,3,1,20.816,20816,-2.8400,9.3400,0.2200,9.7647,0.0218,0.0098,0.1844,16.25,88.50,62.13,-3.0823,9.4168,0.0924,9.9089
11,4,1,3,1,20.947,20947,-3.0200,10.4600,0.2500,10.8901,-0.0415,0.0120,0.0742,15.69,88.69,62.63,-3.0741,9.5543,0.1132,10.0373
11,4,1,3,1,21.078,21078,-2.3300,8.1700,0.2500,8.4994,0.0295,-0.0022,-0.1756,15.44,88.63,62.81,-2.9761,9.3719,0.1312,9.8339
11,4,1,3,1,21.208,21208,-3.4400,8.7500,0.1500,9.4031,0.0055,-0.0229,0.0982,16.31,88.44,62.06,-3.0372,9.2899,0.1337,9.7747
11,4,1,3,1,21.339,21339,-1.6600,9.9300,0.3300,10.0732,-0.0327,0.0305,0.5967,11.56,88.50,66.69,-2.8557,9.3743,0.1596,9.8009
11,4,1,3,1,21.469,21469,-2.7800,9.5100,0.1600,9.9093,-0.0513,0.0338,-0.0982,12.19,88.81,65.81,-2.8457,9.3922,0.1596,9.8151
11,4,1,3,1,21.604,21604,-0.9900,9.9000,0.2700,9.9530,0.0087,0.0349,0.7887,8.19,89.00,69.50,-2.6012,9.4591,0.1742,9.8118
11,4,1,3,1,21.734,21734,-0.8500,8.2400,0.3000,8.2892,0.0578,-0.0196,-0.1025,6.19,88.63,71.44,-2.3704,9.2984,0.1907,9.5977
11,4,1,3,1,21.907,21907,0.5100,9.5000,0.1900,9.5156,0.0436,0.0044,0.3720,2.00,88.00,75.75,-1.9909,9.3250,0.1906,9.5371
11,4,1,3,1,22.038,22038,-1.2300,9.6000,0.2600,9.6820,-0.0153,-0.0044,-0.1374,3.63,87.94,74.25,-1.8906,9.3612,0.1998,9.5523
11,4,1,3,1,22.168,22168,-0.0700,9.6800,0.5900,9.6982,-0.0774,0.0502,0.0818,2.00,88.25,75.63,-1.6507,9.4032,0.2512,9.5503
11,4,1,3,1,22.299,22299,-0.9300,9.9400,0.3500,9.9895,-0.0687,0.0491,-0.0862,3.44,88.81,73.81,-1.5557,9.4740,0.2642,9.6045
11,4,1,3,1,22.429,22429,-0.0500,9.9800,0.1700,9.9816,-0.0240,0.0360,0.1462,2.31,89.06,74.56,-1.3573,9.5407,0.2518,9.6400
11,4,1,3,1,22.560,22560,-0.2400,9.9100,0.0800,9.9132,0.0109,0.0065,0.0382,1.88,89.06,74.88,-1.2101,9.5893,0.2292,9.6681
11,4,1,3,1,22.690,22690,-0.0700,9.7700,0.1700,9.7717,0.0251,-0.0284,0.0371,1.56,89.00,75.25,-1.0598,9.6131,0.2214,9.6739
11,4,1,3,1,22.821,22821,-0.1400,9.8300,0.2100,9.8332,0.0393,-0.0611,0.0862,1.13,88.69,76.13,-0.9386,9.6417,0.2199,9.6898
11,4,1,3,1,22.993,22993,-0.1900,9.5100,0.2900,9.5163,0.0120,-0.0785,-0.1876,1.44,88.38,76.44,-0.8400,9.6244,0.2291,9.6637
11,4,1,3,1,23.123,23123,-0.3000,9.6200,0.5900,9.6427,-0.0142,-0.0436,0.0687,1.75,88.38,76.56,-0.7688,9.6238,0.2767,9.6584
11,4,1,3,1,23.253,23253,-0.7500,8.9900,-0.3100,9.0266,-0.0785,-0.0687,-0.8258,4.06,88.63,74.56,-0.7663,9.5403,0.1994,9.5731
11,4,1,3,1,23.383,23383,-1.9000,10.0900,0.5700,10.2831,-0.0764,-0.0600,0.0698,8.00,89.38,71.13,-0.9157,9.6127,0.2482,9.6594
11,4,1,3,1,23.513,23513,-1.4700,9.3000,-0.0200,9.4155,0.0611,0.0469,-0.3109,8.25,89.31,70.88,-0.9888,9.5715,0.2129,9.6248
11,4,1,3,1,23.643,23643,-1.8700,9.4700,0.3600,9.6596,0.0447,0.0687,-0.1713,10.38,88.81,68.31,-1.1049,9.5581,0.2322,9.6246
11,4,1,3,1,23.774,23774,-2.6300,9.8100,0.1800,10.1580,-0.0120,0.0295,-0.2727,12.38,88.69,66.00,-1.3059,9.5913,0.2254,9.6824
11,4,1,3,1,23.904,23904,-1.9100,9.9200,0.1200,10.1029,-0.0055,0.0218,0.2051,11.44,88.69,66.75,-1.3855,9.6346,0.2115,9.7360
11,4,1,3,1,24.077,24077,-2.7000,9.3200,-0.0100,9.7032,0.0436,0.0371,0.0371,13.50,88.50,64.50,-1.5587,9.5932,0.1823,9.7207
11,4,1,3,1,24.208,24208,-1.4800,9.0200,0.2900,9.1452,0.0229,-0.0436,0.0851,11.38,88.25,66.69,-1.5483,9.5176,0.1965,9.6448
11,4,1,3,1,24.338,24338,-2.6400,10.1100,0.5100,10.4614,0.0175,-0.0524,0.0611,11.44,88.19,67.06,-1.6922,9.5957,0.2378,9.7467
11,4,1,3,1,24.468,24468,-2.1200,10.6200,0.2500,10.8324,-0.0240,-0.0011,0.0065,11.00,88.31,67.69,-1.7486,9.7307,0.2394,9.8894
11,4,1,3,1,24.598,24598,-2.0300,8.8100,0.1300,9.0418,-0.0785,0.0447,-0.3960,12.44,88.63,65.94,-1.7856,9.6094,0.2250,9.7764
11,4,1,3,1,24.728,24728,-2.1800,9.1200,0.2300,9.3797,-0.0425,0.0065,-0.0731,14.25,89.06,63.88,-1.8376,9.5449,0.2257,9.7228
11,4,1,3,1,24.858,24858,-2.5100,8.9900,0.0500,9.3340,0.0076,0.0011,-0.1014,14.88,89.13,63.19,-1.9262,9.4718,0.2025,9.6677
11,4,1,3,1,24.989,24989,-2.5700,10.3700,0.2400,10.6864,0.0502,-0.0098,0.2454,14.75,88.94,63.31,-2.0110,9.5901,0.2074,9.8009
11,4,1,3,1,25.161,25161,-3.0100,9.4700,0.1600,9.9381,0.0251,-0.0338,-0.4767,15.31,88.50,63.06,-2.1427,9.5743,0.2012,9.8132
11,4,1,3,1,25.292,25292,-2.2700,8.4500,0.4500,8.7612,0.0131,0.0087,0.0218,16.56,88.31,62.00,-2.1595,9.4261,0.2340,9.6732
11,4,1,3,1,25.422,25422,-3.9500,9.7100,0.2600,10.4859,-0.0284,0.0109,-0.3098,18.00,88.31,60.50,-2.3954,9.4635,0.2374,9.7649
11,4,1,3,1,25.553,25553,-3.5900,10.2100,0.3800,10.8294,-0.0894,0.0251,0.0818,18.94,88.69,59.25,-2.5528,9.5619,0.2562,9.9001
11,4,1,3,1,25.683,25683,-3.2400,9.1700,0.1500,9.7267,-0.0622,0.0087,-0.0393,19.00,89.19,58.88,-2.6434,9.5103,0.2422,9.8738
11,4,1,3,1,25.813,25813,-2.8300,9.0100,-0.0500,9.4441,-0.0327,-0.0153,-0.0873,18.56,89.63,59.19,-2.6680,9.4443,0.2037,9.8161
11,4,1,3,1,25.943,25943,-3.8300,9.6800,0.0000,10.4102,-0.0065,-0.0065,-0.0044,19.31,89.81,58.56,-2.8211,9.4754,0.1769,9.8880
11,4,1,3,1,26.073,26073,-3.3200,9.3600,-0.0900,9.9318,0.0022,0.0316,-0.1113,19.31,89.75,58.44,-2.8868,9.4602,0.1417,9.8919
11,4,1,3,1,26.246,26246,-3.5700,9.3600,-0.2000,10.0197,0.0033,0.0120,0.0436,20.19,89.75,57.50,-2.9769,9.4470,0.0967,9.9054
11,4,1,3,1,26.376,26376,-3.2600,9.6100,0.1800,10.1495,0.0382,0.0295,-0.0033,19.38,89.56,58.19,-3.0142,9.4685,0.1076,9.9372
11,4,1,3,1,26.507,26507,-3.2500,9.6400,0.2400,10.1759,0.0207,0.0044,0.0011,19.88,89.25,57.63,-3.0452,9.4911,0.1251,9.9684
11,4,1,3,1,26.643,26643,-3.3800,8.3400,0.1800,9.0007,0.0000,-0.0415,-0.2258,20.75,89.25,56.88,-3.0894,9.3394,0.1323,9.8380
11,4,1,3,1,26.774,26774,-3.5500,9.6000,0.2600,10.2387,-0.0185,-0.0382,0.1691,20.44,89.50,57.50,-3.1501,9.3737,0.1491,9.8900
11,4,1,3,1,26.904,26904,-4.1400,9.6800,0.0000,10.5282,-0.0120,-0.0491,-0.1767,20.94,89.75,57.19,-3.2805,9.4141,0.1295,9.9701
11,4,1,3,1,27.036,27036,-3.7700,9.5500,-0.0700,10.2674,-0.0011,-0.0131,0.1014,20.94,89.88,57.50,-3.3450,9.4320,0.1032,10.0081
11,4,1,3,1,27.166,27166,-3.8900,9.1700,-0.1500,9.9621,-0.0185,0.0011,-0.0425,21.31,90.00,57.06,-3.4168,9.3975,0.0698,9.9996
11,4,1,3,1,27.339,27339,-3.5600,9.3100,-0.0400,9.9675,0.0076,0.0404,0.0164,21.00,90.06,57.13,-3.4357,9.3859,0.0554,9.9952
11,4,1,3,1,27.469,27469,-3.0100,8.5600,-0.0500,9.0739,0.0404,0.0545,0.0960,20.94,89.69,56.94,-3.3796,9.2771,0.0415,9.8736
11,4,1,3,1,27.600,27600,-3.9900,8.4600,0.2100,9.3561,0.0185,0.0044,-0.0938,21.13,89.31,56.63,-3.4600,9.1694,0.0637,9.8007
11,4,1,3,1,27.730,27730,-2.1300,9.7400,0.3500,9.9763,0.0262,-0.0142,0.6349,17.94,89.19,59.94,-3.2848,9.2446,0.1014,9.8114
11,4,1,3,1,27.861,27861,-3.5900,8.9000,0.0200,9.5968,0.0164,-0.0698,-0.2607,18.31,89.13,59.94,-3.3250,9.1992,0.0907,9.7821
11,4,1,3,1,27.991,27991,-2.6900,8.9200,0.0800,9.3171,0.0011,-0.0087,0.4396,16.13,89.13,62.44,-3.2413,9.1624,0.0893,9.7193
11,4,1,3,1,28.122,28122,-4.0300,11.1300,-0.2400,11.8396,-0.0327,0.0545,0.3403,14.88,89.13,63.50,-3.3452,9.4217,0.0459,9.9981
11,4,1,3,1,28.253,28253,-0.1000,8.4000,0.6000,8.4220,0.0349,-0.0185,0.3349,10.00,89.13,68.06,-2.9176,9.2871,0.1189,9.7353
11,4,1,3,1,28.430,28430,-2.3100,8.6000,0.4000,8.9138,0.0415,-0.0098,0.8705,9.50,88.63,69.06,-2.8375,9.1965,0.1559,9.6256
11,4,1,3,1,28.560,28560,-0.3900,9.2600,0.3400,9.2744,-0.0098,0.0153,0.2247,3.94,88.56,74.63,-2.5150,9.2049,0.1802,9.5440
11,4,1,3,1,28.691,28691,-0.5700,9.7200,0.3300,9.7423,-0.0185,0.0229,0.3796,3.25,88.63,75.06,-2.2587,9.2728,0.1999,9.5460
11,4,1,3,1,28.821,28821,0.5100,9.4400,-0.0300,9.4538,-0.0491,-0.0022,0.0884,0.75,88.81,77.56,-1.8939,9.2948,0.1696,9.4873
11,5,1,3,1,28.953,28953,0.0200,10.1300,0.2800,10.1339,-0.0251,-0.0382,0.1265,0.44,89.25,78.00,-1.6417,9.4049,0.1842,9.5488
11,5,1,3,1,29.083,29083,-0.4100,9.9400,0.1800,9.9501,0.0404,-0.0415,-0.1745,1.06,89.13,77.69,-1.4794,9.4754,0.1836,9.5919
11,5,1,3,1,29.213,29213,-0.2400,9.8400,0.3200,9.8481,0.0742,-0.0371,0.1462,0.75,88.69,78.25,-1.3160,9.5234,0.2016,9.6160
11,5,1,3,1,29.344,29344,-0.1400,9.7600,0.3100,9.7659,0.0458,-0.0360,0.0415,0.38,88.25,78.94,-1.1611,9.5546,0.2159,9.6273
11,5,1,3,1,29.517,29517,-0.6200,9.6900,0.4700,9.7212,0.0175,-0.0076,0.0862,0.13,87.88,79.44,-1.0898,9.5724,0.2494,9.6375
11,5,1,3,1,29.647,29647,0.4200,9.8000,0.5400,9.8238,0.0044,0.0284,0.2596,-1.56,87.75,81.06,-0.8908,9.6024,0.2877,9.6480
11,5,1,3,1,29.777,29777,0.4900,9.8100,0.5200,9.8360,-0.0175,0.0185,-0.0065,-2.06,87.75,81.44,-0.7089,9.6298,0.3183,9.6611
11,5,1,3,1,29.907,29907,0.6600,9.6400,0.4400,9.6726,-0.0240,0.0262,-0.0327,-2.31,87.81,81.56,-0.5285,9.6311,0.3343,9.6514
11,5,1,3,1,30.037,30037,0.2600,9.8700,0.4500,9.8837,-0.0273,0.0273,-0.2847,-1.06,88.00,80.13,-0.4246,9.6626,0.3496,9.6782
11,5,1,3,1,30.167,30167,-0.0700,9.9000,0.2700,9.9039,-0.0185,0.0524,-0.2563,0.69,88.19,78.00,-0.3779,9.6939,0.3391,9.7072
11,5,1,3,1,30.297,30297,-0.3000,9.3700,0.4400,9.3851,-0.0142,0.0556,-0.3971,3.38,88.25,74.88,-0.3676,9.6512,0.3524,9.6646
11,5,1,3,1,30.428,30428,-1.4200,9.7300,0.3700,9.8400,-0.0207,-0.0425,-0.3480,5.88,88.38,72.31,-0.5063,9.6616,0.3547,9.6813
11,5,1,3,1,30.601,30601,-1.0300,9.4900,0.1600,9.5471,-0.0131,0.0185,-0.0262,7.63,88.63,70.75,-0.5753,9.6390,0.3290,9.6617
11,5,1,3,1,30.733,30733,-0.6000,8.8900,0.3000,8.9153,0.0022,0.0098,-0.2640,8.25,88.56,70.06,-0.5785,9.5403,0.3252,9.5633
11,5,1,3,1,30.864,30864,-1.6700,8.3000,0.2300,8.4695,-0.0251,-0.0611,-0.5749,11.56,88.69,66.94,-0.7224,9.3768,0.3127,9.4098
11,5,1,3,1,30.999,30999,-2.7000,9.8100,0.2400,10.1776,-0.0295,-0.1189,0.0338,14.19,89.13,64.88,-0.9830,9.4339,0.3031,9.4898
11,5,1,3,1,31.130,31130,-2.9700,9.9700,-0.0400,10.4030,-0.0480,-0.0818,-0.3916,14.81,89.63,65.00,-1.2448,9.5046,0.2579,9.5892
11,5,1,3,1,31.261,31261,-3.1800,9.7600,-0.4600,10.2753,-0.0164,-0.0404,-0.0175,17.13,90.13,62.94,-1.4998,9.5382,0.1633,9.6568
11,5,1,3,1,31.391,31391,-2.5800,9.4200,0.2700,9.7707,0.0753,0.0087,-0.0436,16.31,90.00,64.00,-1.6422,9.5226,0.1773,9.6648
11,5,1,3,1,31.521,31521,-3.1800,8.1300,-0.0800,8.7302,0.0600,0.0622,-0.4014,18.88,89.38,61.25,-1.8448,9.3391,0.1434,9.5207
11,5,1,3,1,31.694,31694,-3.2600,9.3800,0.2800,9.9343,0.0295,0.0185,0.0687,19.38,89.13,60.50,-2.0313,9.3445,0.1614,9.5641
11,5,1,3,1,31.824,31824,-3.1900,9.1600,0.0800,9.6999,-0.0076,0.0251,-0.1069,19.88,88.94,59.94,-2.1840,9.3202,0.1507,9.5739
11,5,1,3,1,31.955,31955,-3.6100,9.5500,0.1100,10.2101,-0.0327,0.0175,-0.2738,20.94,89.19,58.63,-2.3719,9.3505,0.1453,9.6477
11,5,1,3,1,32.085,32085,-4.1800,9.4000,0.1300,10.2883,0.0469,0.0524,-0.0698,22.44,89.00,57.00,-2.6102,9.3570,0.1433,9.7153
11,5,1,3,1,32.215,32215,-3.9600,9.1300,0.3900,9.9594,0.0327,0.0851,-0.0982,23.00,88.38,56.00,-2.7880,9.3271,0.1758,9.7365
11,5,1,3,1,32.345,32345,-4.0600,9.0400,0.5100,9.9230,-0.0033,0.0524,0.0011,23.63,88.00,54.94,-2.9556,9.2893,0.2199,9.7506
11,5,1,3,1,32.475,32475,-3.9200,9.0800,0.4100,9.8985,-0.0829,-0.0153,0.0175,23.44,88.19,54.94,-3.0827,9.2617,0.2449,9.7643
11,5,1,3,1,32.605,32605,-3.5800,9.5500,0.0300,10.1990,-0.0502,-0.0622,0.2203,22.38,88.88,56.06,-3.1483,9.2997,0.2166,9.8205
11,5,1,3,1,32.778,32778,-3.7000,9.0000,0.2400,9.7338,-0.0076,-0.0731,0.2727,21.19,89.44,57.88,-3.2210,9.2602,0.2197,9.8068
11,5,1,3,1,32.908,32908,-3.3100,8.9300,-0.0600,9.5239,-0.0284,-0.0720,-0.2040,20.44,89.69,59.06,-3.2327,9.2167,0.1828,9.7689
11,5,1,3,1,33.038,33038,-3.6000,9.4500,0.0500,10.1126,-0.0033,-0.0262,0.2596,20.63,89.94,59.19,-3.2811,9.2474,0.1653,9.8137
11,5,1,3,1,33.168,33168,-4.0800,9.0700,-0.0300,9.9455,-0.0164,0.0131,-0.2171,20.94,90.00,58.88,-3.3864,9.2240,0.1396,9.8270
11,5,1,3,1,33.298,33298,-3.2200,9.5700,-0.1500,10.0983,-0.0153,0.0556,0.0993,20.63,90.00,58.88,-3.3644,9.2696,0.1014,9.8618
11,5,1,3,1,33.428,33428,-3.7600,9.6200,-0.1000,10.3292,0.0033,0.0589,-0.1527,21.31,89.94,57.75,-3.4166,9.3158,0.0749,9.9228
11,5,1,3,1,33.559,33559,-3.3100,9.3800,0.0400,9.9470,0.0251,0.0284,0.1462,21.25,89.75,57.56,-3.4025,9.3243,0.0703,9.9259
11,5,1,3,1,33.689,33689,-3.7800,9.5100,0.2300,10.2363,0.0469,0.0109,-0.1320,21.38,89.38,57.44,-3.4523,9.3487,0.0913,9.9662
11,6,1,3,1,33.862,33862,-3.2300,8.9300,0.0100,9.4962,-0.0207,-0.0284,-0.0993,21.31,89.31,57.63,-3.4230,9.2936,0.0806,9.9042
11,6,1,3,1,33.992,33992,-3.6000,9.0700,-0.0400,9.7584,-0.0207,-0.0360,0.0109,22.19,89.56,56.94,-3.4463,9.2641,0.0647,9.8846
11,6,1,3,1,34.122,34122,-3.5700,8.7900,0.0900,9.4877,0.0207,-0.0567,-0.0153,21.88,89.69,57.56,-3.4626,9.2016,0.0681,9.8318
11,6,1,3,1,34.252,34252,-3.8900,9.0700,-0.1000,9.8695,-0.0087,-0.0240,0.0742,22.25,89.81,57.50,-3.5189,9.1843,0.0459,9.8354
11,6,1,3,1,34.382,34382,-3.9900,9.5200,-0.0500,10.3225,0.0011,0.0044,-0.0905,22.13,89.94,57.63,-3.5810,9.2285,0.0333,9.8990
11,6,1,3,1,34.512,34512,-4.4200,9.1100,0.1500,10.1267,0.0295,0.0338,0.0175,22.31,89.75,57.44,-3.6916,9.2129,0.0487,9.9251
11,6,1,3,1,34.643,34643,-3.4500,8.4300,0.2300,9.1115,0.0360,0.0905,0.2116,21.31,89.25,58.13,-3.6597,9.1097,0.0725,9.8176
11,6,1,3,1,34.773,34773,-3.7200,10.1200,0.0400,10.7821,-0.0022,0.0415,0.2334,20.13,89.00,58.81,-3.6677,9.2429,0.0683,9.9442
11,6,1,3,1,34.946,34946,-2.8700,8.9000,0.3100,9.3564,0.0284,-0.0098,0.0753,17.81,88.81,61.06,-3.5626,9.1977,0.1001,9.8640
11,6,1,3,1,35.077,35077,-3.1000,9.4700,0.0900,9.9649,-0.0175,-0.0142,0.3567,16.69,88.88,62.31,-3.5016,9.2336,0.0988,9.8757
11,6,1,3,1,35.207,35207,-2.2800,9.7600,0.2200,10.0252,-0.0229,0.0273,0.3043,14.13,89.06,64.81,-3.3406,9.3029,0.1148,9.8852
11,6,1,3,1,35.338,35338,-2.2200,7.9600,0.3800,8.2725,0.0120,-0.0055,-0.0360,13.69,89.06,65.13,-3.1930,9.1260,0.1497,9.6696
11,6,1,3,1,35.468,35468,-1.9300,8.9100,0.3500,9.1233,0.0731,-0.0578,0.8988,10.44,88.75,68.75,-3.0265,9.0975,0.1761,9.5894
11,6,1,3,1,35.599,35599,-0.6600,9.1600,0.3300,9.1897,0.0295,-0.0415,0.3796,5.06,88.44,74.56,-2.7147,9.1057,0.1964,9.5038
11,6,1,3,1,35.730,35730,-0.7300,9.8400,-0.1400,9.8680,-0.0011,0.0436,0.4505,3.06,88.38,76.56,-2.4532,9.2025,0.1521,9.5251
11,6,1,3,1,35.860,35860,0.3600,9.6800,0.4800,9.6986,-0.0044,0.0251,0.0654,0.56,88.31,78.75,-2.0825,9.2654,0.1953,9.4986
11,6,1,3,1,36.032,36032,0.1200,9.9800,0.1200,9.9814,-0.0153,0.0600,0.1898,0.06,88.38,78.88,-1.7922,9.3596,0.1854,9.5314
11,6,1,3,1,36.162,36162,0.1800,9.9400,0.3500,9.9478,0.0131,0.0622,-0.0305,-0.69,88.31,79.25,-1.5323,9.4361,0.2070,9.5619
11,6,1,3,1,36.293,36293,0.2900,9.7100,0.5500,9.7299,0.0436,0.0873,-0.1091,-0.38,88.06,78.31,-1.2922,9.4722,0.2522,9.5632
11,6,1,3,1,36.426,36426,-0.0900,9.5900,0.5400,9.6056,0.0273,0.0622,0.0076,0.50,87.69,76.88,-1.1338,9.4877,0.2902,9.5596
11,6,1,3,1,36.559,36559,-0.2000,9.7300,0.5200,9.7459,-0.0284,0.0207,-0.1724,0.75,87.69,76.31,-1.0107,9.5196,0.3204,9.5785
11,6,1,3,1,36.689,36689,-0.3600,9.7300,0.3700,9.7437,-0.0338,-0.0109,0.1167,1.00,87.88,76.00,-0.9250,9.5473,0.3270,9.5976
11,6,1,3,1,36.820,36820,0.3200,9.9600,0.2900,9.9694,-0.0284,-0.0382,0.1222,-0.19,88.13,77.50,-0.7609,9.6017,0.3221,9.6372
11,6,1,3,1,36.950,36950,-0.2000,9.9100,0.2400,9.9149,-0.0153,-0.0644,-0.1124,0.06,88.25,77.56,-0.6870,9.6423,0.3113,9.6718
11,6,1,3,1,37.122,37122,1.3800,7.9100,1.5100,8.1702,0.1320,-0.2378,0.3643,-1.56,87.81,80.25,-0.4146,9.4141,0.4692,9.4349
11,6,1,3,1,37.252,37252,-1.0400,9.7400,-0.5300,9.8097,-0.1178,-0.1560,-0.3142,-0.38,87.88,80.88,-0.4970,9.4570,0.3376,9.4761
11,6,1,3,1,37.383,37383,0.4600,8.8500,1.0700,8.9263,-0.0316,0.0447,-0.0044,-0.31,88.31,80.94,-0.3709,9.3770,0.4341,9.3944
11,6,1,3,1,37.513,37513,-0.9300,9.5700,0.1000,9.6156,-0.0382,0.0338,-0.6250,3.00,88.56,77.31,-0.4446,9.4025,0.3901,9.4210
11,6,1,3,1,37.643,37643,-1.2100,9.7600,0.3500,9.8409,-0.0349,0.0840,-0.2563,6.13,88.88,73.69,-0.5455,9.4496,0.3848,9.4731
11,6,1,3,1,37.774,37774,-0.8300,9.3000,0.2600,9.3406,-0.0273,0.0698,-0.3283,8.19,88.88,71.06,-0.5830,9.4299,0.3683,9.4550
11,6,1,3,1,37.904,37904,-1.6800,9.2200,0.2200,9.3744,-0.0033,-0.0131,-0.3982,10.81,88.94,68.19,-0.7275,9.4022,0.3488,9.4368
11,6,1,3,1,38.035,38035,-1.8600,9.1600,-0.0100,9.3469,-0.0120,-0.0862,-0.3371,12.69,89.00,66.63,-0.8767,9.3703,0.3015,9.4160
11,6,1,3,1,38.207,38207,-3.2300,9.5600,-0.0400,10.0910,0.0240,-0.1113,-0.3872,16.38,89.31,64.00,-1.1868,9.3953,0.2565,9.4734
11,6,1,3,1,38.338,38338,-3.8100,9.4000,0.0100,10.1428,0.0589,-0.0764,-0.1178,18.38,89.25,62.75,-1.5325,9.3959,0.2240,9.5227
11,6,1,3,1,38.468,38468,-3.4800,9.4700,0.2300,10.0918,0.0556,-0.0262,-0.0513,19.00,89.00,62.56,-1.7891,9.4057,0.2248,9.5770
11,6,1,3,1,38.599,38599,-3.2000,8.9700,0.3400,9.5298,0.0185,0.0098,-0.0567,19.69,88.69,62.00,-1.9751,9.3483,0.2400,9.5576
11,6,1,3,1,38.729,38729,-3.3100,9.0600,0.0900,9.6461,-0.0491,-0.0207,-0.1713,20.44,88.88,61.25,-2.1510,9.3103,0.2202,9.5581
11,6,1,3,1,38.859,38859,-3.7500,8.9100,0.0000,9.6670,-0.0851,-0.0491,-0.1865,21.75,89.50,60.00,-2.3617,9.2575,0.1912,9.5559
11,6,1,3,1,38.989,38989,-3.7900,9.1300,-0.1100,9.8860,-0.0491,-0.0469,0.1222,21.81,90.19,60.06,-2.5499,9.2407,0.1515,9.5873
11,6,1,3,1,39.119,39119,-3.6500,9.4200,-0.0900,10.1028,-0.0109,-0.0109,0.0360,21.13,90.50,60.94,-2.6949,9.2643,0.1197,9.6491
11,6,1,3,1,39.292,39292,-3.8700,9.1900,-0.2400,9.9745,-0.0404,0.0371,-0.2073,22.25,90.63,59.56,-2.8497,9.2546,0.0723,9.6836
11,6,1,3,1,39.422,39422,-3.9100,9.4000,-0.1000,10.1813,-0.0229,0.0436,-0.0055,23.25,90.75,58.19,-2.9894,9.2737,0.0496,9.7438
11,6,1,3,1,39.553,39553,-4.0500,9.6800,-0.1400,10.4940,-0.0120,0.0404,-0.1145,23.31,90.75,57.75,-3.1292,9.3273,0.0246,9.8382
11,6,1,3,1,39.683,39683,-3.9000,9.3600,-0.1500,10.1411,0.0098,0.0033,0.1364,23.69,90.69,57.25,-3.2308,9.3316,0.0016,9.8750
11,7,1,3,1,39.818,39818,-3.3200,8.0300,-0.0600,8.6895,0.0044,-0.0491,-0.3131,23.00,90.69,58.13,-3.2425,9.1601,-0.0065,9.7170
11,7,1,3,1,39.948,39948,-4.3200,8.8500,-0.2300,9.8508,-0.0360,-0.0360,0.3065,24.19,90.94,57.25,-3.3845,9.1192,-0.0360,9.7271
11,7,1,3,1,40.081,40081,-4.4300,9.4100,-0.4100,10.4087,-0.0393,-0.0087,-0.2367,23.63,91.31,57.81,-3.5223,9.1575,-0.0853,9.8119
11,7,1,3,1,40.211,40211,-4.3700,9.3000,-0.4700,10.2863,-0.0011,0.0404,0.0764,24.25,91.50,57.06,-3.6340,9.1763,-0.1360,9.8706
11,7,1,3,1,40.384,40384,-4.0700,8.8400,-0.2200,9.7344,0.0556,0.1298,0.0425,24.13,90.88,56.50,-3.6914,9.1320,-0.1470,9.8510
11,7,1,3,1,40.514,40514,-3.5400,8.9200,0.0300,9.5968,0.0709,0.0938,-0.0153,24.00,90.06,56.00,-3.6715,9.1040,-0.1237,9.8173
11,7,1,3,1,40.644,40644,-3.5800,9.5700,0.1700,10.2191,0.0196,-0.0098,0.0938,23.38,89.50,56.50,-3.6594,9.1654,-0.0850,9.8693
11,7,1,3,1,40.774,40774,-4.1400,9.4900,0.0600,10.3539,-0.0011,-0.0862,-0.0971,23.56,89.63,56.69,-3.7228,9.2082,-0.0659,9.9325
11,7,1,3,1,40.904,40904,-4.0100,8.6100,-0.0700,9.4983,0.0011,-0.0764,-0.0371,23.88,89.94,57.00,-3.7606,9.1294,-0.0664,9.8738
11,7,1,3,1,41.034,41034,-4.2000,9.2800,0.0800,10.1865,-0.0033,-0.0382,0.0578,23.94,90.19,57.25,-3.8185,9.1492,-0.0471,9.9142
11,7,1,3,1,41.165,41165,-3.8800,8.6500,0.0200,9.4804,0.0316,-0.0022,0.0622,23.75,90.19,57.56,-3.8266,9.0834,-0.0383,9.8566
11,7,1,3,1,41.296,41296,-4.1100,8.5100,-0.1100,9.4512,0.0175,0.0338,0.0022,23.63,89.94,57.69,-3.8640,9.0079,-0.0477,9.8018
11,7,1,3,1,41.468,41468,-3.6200,9.2000,0.1700,9.8880,0.0164,0.0654,0.1724,22.19,89.63,58.69,-3.8318,9.0332,-0.0190,9.8123
11,7,1,3,1,41.599,41599,-3.7100,9.4600,0.0000,10.1615,-0.0109,0.0589,0.3491,21.06,89.50,59.44,-3.8158,9.0894,-0.0165,9.8579
11,7,1,3,1,41.729,41729,-2.7900,9.9300,-0.1300,10.3153,0.0000,0.0415,0.0905,19.06,89.44,61.06,-3.6806,9.2002,-0.0315,9.9092
11,7,1,3,1,41.859,41859,-2.9000,8.7700,0.2300,9.2399,0.0709,-0.0120,0.0491,18.25,89.13,61.81,-3.5777,9.1435,0.0030,9.8186
11,7,1,3,1,41.989,41989,-3.2000,7.8200,0.3600,8.4571,0.0185,-0.0033,0.5083,17.13,88.75,63.19,-3.5280,8.9691,0.0500,9.6381
11,7,1,3,1,42.119,42119,-2.7400,9.2000,0.2800,9.6034,-0.0415,0.0229,0.2956,14.38,88.94,65.81,-3.4241,8.9995,0.0803,9.6293
11,7,1,3,1,42.249,42249,-0.6900,9.2600,0.2800,9.2899,0.0458,-0.0087,0.6687,8.94,88.81,71.19,-3.0638,9.0339,0.1066,9.5399
11,7,1,3,1,42.379,42379,-2.1200,9.5900,-0.0500,9.8217,-0.0196,-0.0065,0.2640,8.06,88.75,72.25,-2.9395,9.1071,0.0860,9.5702
11,7,1,3,1,42.552,42552,-0.0400,9.8100,0.2200,9.8125,-0.0251,-0.0109,0.0720,2.88,89.00,77.25,-2.5574,9.1998,0.1037,9.5492
11,7,1,3,1,42.682,42682,0.1400,9.8900,0.2000,9.8930,-0.0098,-0.0436,0.2596,1.81,89.06,78.56,-2.2019,9.2907,0.1163,9.5488
11,7,1,3,1,42.812,42812,-0.5700,9.9300,0.2500,9.9495,0.0316,-0.0316,-0.1145,1.56,89.00,79.19,-1.9869,9.3750,0.1340,9.5841
11,7,1,3,1,42.942,42942,-0.3700,9.9300,0.2000,9.9389,0.0393,-0.0087,0.1145,1.75,88.69,79.06,-1.7738,9.4481,0.1427,9.6142
11,7,1,3,1,43.072,43072,0.0200,9.8200,0.3900,9.8278,0.0262,-0.0305,0.0567,0.69,88.38,80.19,-1.5374,9.4971,0.1753,9.6223
11,7,1,3,1,43.202,43202,-0.3500,9.9200,0.4000,9.9342,0.0207,-0.0338,0.0720,0.75,88.25,80.44,-1.3810,9.5528,0.2049,9.6543
11,7,1,3,1,43.333,43333,0.1000,9.7600,0.4500,9.7709,0.0065,-0.0284,0.0807,-0.31,88.06,81.75,-1.1858,9.5801,0.2372,9.6562
11,7,1,3,1,43.463,43463,0.3100,9.7700,0.4400,9.7848,-0.0131,-0.0327,0.0065,-0.50,88.00,82.13,-0.9887,9.6052,0.2639,9.6595
11,7,1,3,1,43.636,43636,-0.0500,9.7800,0.3900,9.7879,-0.0273,0.0076,-0.1822,0.38,88.25,81.44,-0.8650,9.6282,0.2805,9.6710
11,7,1,3,1,43.766,43766,-0.5500,9.7500,0.3700,9.7725,-0.0185,0.0480,-0.4189,2.75,88.38,78.69,-0.8235,9.6442,0.2923,9.6838
11,7,1,3,1,43.896,43896,-1.0800,9.7000,0.2900,9.7642,-0.0185,0.0305,-0.4102,5.31,88.44,75.88,-0.8573,9.6516,0.2920,9.6940
11,7,1,3,1,44.026,44026,-1.4000,9.2200,0.2400,9.3288,-0.0240,0.0404,-0.3927,8.50,88.56,72.44,-0.9288,9.5947,0.2852,9.6438
11,7,1,3,1,44.156,44156,-2.0500,9.2000,0.3100,9.4307,-0.0273,0.0000,-0.3403,11.00,88.69,69.81,-1.0766,9.5427,0.2884,9.6076
11,7,1,3,1,44.286,44286,-2.1000,9.3300,-0.1300,9.5643,-0.0535,-0.0382,0.0327,11.81,88.94,69.06,-1.2114,9.5147,0.2333,9.5943
11,7,1,3,1,44.416,44416,-1.8100,10.0200,0.2300,10.1848,-0.0709,0.0142,0.1451,11.63,89.50,69.31,-1.2903,9.5813,0.2329,9.6706
11,7,1,3,1,44.547,44547,-1.9800,7.6000,-0.1700,7.8555,-0.0284,0.0109,-0.7603,14.13,89.75,66.50,-1.3812,9.3202,0.1798,9.4237
11,7,1,3,1,44.719,44719,-2.5000,9.1100,0.0900,9.4472,0.0665,-0.0175,-0.0567,16.13,89.56,64.63,-1.5286,9.2925,0.1679,9.4189
11,7,1,3,1,44.849,44849,-3.5100,8.7700,-0.0600,9.4465,-0.0076,-0.0109,-0.2607,18.56,89.38,62.38,-1.7897,9.2236,0.1379,9.3967
11,8,1,3,1,44.979,44979,-3.1500,9.8800,0.1800,10.3716,-0.0360,0.0185,0.0295,18.56,89.56,62.25,-1.9690,9.3101,0.1435,9.5171
11,8,1,3,1,45.109,45109,-3.8000,9.9000,-0.0100,10.6042,-0.0142,0.0120,-0.1516,19.69,89.75,61.00,-2.2102,9.3879,0.1232,9.6453
11,8,1,3,1,45.240,45240,-3.1000,8.7700,0.1900,9.3037,0.0065,0.0055,-0.1440,19.94,89.75,60.69,-2.3275,9.3064,0.1320,9.5940
11,8,1,3,1,45.370,45370,-3.6100,8.5800,0.0800,9.3089,0.0044,-0.0273,0.0785,20.75,89.75,59.94,-2.4965,9.2107,0.1252,9.5439
11,8,1,3,1,45.500,45500,-3.1100,9.4400,-0.1600,9.9404,-0.0295,-0.0458,0.2553,19.25,89.94,61.63,-2.5773,9.2409,0.0876,9.5940
11,8,1,3,1,45.631,45631,-3.2600,9.0500,-0.1500,9.6204,-0.0207,-0.0011,-0.2051,19.38,90.19,61.69,-2.6673,9.2158,0.0563,9.5942
11,8,1,3,1,45.804,45804,-4.0700,9.1400,-0.0700,10.0055,-0.0207,0.0524,-0.1309,21.19,90.19,59.56,-2.8521,9.2058,0.0396,9.6376
11,8,1,3,1,45.935,45935,-4.3400,10.9300,-0.0500,11.7602,-0.0262,0.0502,0.2869,19.94,90.19,60.31,-3.0482,9.4330,0.0278,9.9133
11,8,1,3,1,46.066,46066,-2.6700,10.0300,0.2200,10.3816,0.0131,0.0709,0.0164,18.06,90.06,61.81,-2.9984,9.5117,0.0532,9.9732
11,8,1,3,1,46.196,46196,-3.3500,7.6200,-0.1200,8.3247,0.0142,0.0251,-0.3054,20.75,89.88,58.81,-3.0447,9.2624,0.0303,9.7500
11,8,1,3,1,46.327,46327,-2.9700,8.8200,-0.0700,9.3069,-0.0098,0.0164,0.3196,19.38,89.69,60.13,-3.0349,9.2041,0.0171,9.6915
11,8,1,3,1,46.457,46457,-3.0000,9.3800,0.0700,9.8483,-0.0229,0.0142,-0.1167,19.13,89.81,60.19,-3.0303,9.2273,0.0241,9.7121
11,8,1,3,1,46.593,46593,-4.2900,10.1700,-0.0700,11.0380,-0.0295,0.0153,-0.0622,20.25,89.94,58.94,-3.1963,9.3515,0.0117,9.8827
11,8,1,3,1,46.723,46723,-3.1100,9.4400,0.0700,9.9393,0.0196,0.0207,-0.0098,19.63,90.00,59.38,-3.1849,9.3632,0.0194,9.8900
11,8,1,3,1,46.896,46896,-3.3500,9.0900,0.0100,9.6877,0.0033,-0.0185,0.1167,20.00,89.81,59.13,-3.2067,9.3272,0.0181,9.8630
11,8,1,3,1,47.026,47026,-3.4300,9.7400,0.1000,10.3268,-0.0087,-0.0316,-0.1691,19.69,89.88,59.63,-3.2361,9.3816,0.0289,9.9241
11,8,1,3,1,47.156,47156,-3.5400,8.9200,-0.0700,9.5970,-0.0415,0.0055,-0.0262,20.63,90.06,58.75,-3.2761,9.3207,0.0159,9.8798
11,8,1,3,1,47.287,47287,-3.0700,8.8400,-0.2600,9.3615,-0.0415,-0.0055,-0.0687,20.88,90.50,58.38,-3.2490,9.2574,-0.0205,9.8110
11,8,1,3,1,47.418,47418,-4.1900,9.9700,-0.1500,10.8157,0.0175,0.0207,-0.1876,22.13,90.69,57.06,-3.3730,9.3513,-0.0375,9.9411
11,8,1,3,1,47.548,47548,-4.0000,9.6600,-0.1700,10.4568,0.0327,0.0000,-0.0916,22.63,90.31,56.56,-3.4556,9.3920,-0.0550,10.0077
11,8,1,3,1,47.678,47678,-4.0300,9.3900,0.1100,10.2189,0.0371,-0.0305,0.0480,22.94,90.19,56.44,-3.5313,9.3917,-0.0333,10.0337
11,8,1,3,1,47.809,47809,-3.4000,8.2200,-0.1800,8.8972,0.0622,-0.0404,-0.1004,22.88,89.88,56.94,-3.5140,9.2373,-0.0526,9.8833
11,8,1,3,1,47.981,47981,-3.9200,7.9300,-0.0600,8.8462,0.0295,-0.0175,0.0415,23.44,89.44,56.81,-3.5675,9.0650,-0.0536,9.7419
11,8,1,3,1,48.111,48111,-3.5400,9.3000,0.2400,9.9539,-0.0491,-0.0207,0.1178,22.00,89.63,58.25,-3.5639,9.0960,-0.0149,9.7693
11,8,1,3,1,48.241,48241,-4.0400,9.6800,0.3600,10.4954,-0.0218,0.0524,0.2247,21.13,89.81,59.00,-3.6266,9.1730,0.0345,9.8639
11,8,1,3,1,48.371,48371,-2.8100,9.4000,-0.0700,9.8113,0.0284,0.0785,0.0960,20.06,89.56,59.50,-3.5190,9.2029,0.0207,9.8528
11,8,1,3,1,48.501,48501,-3.5100,8.4500,-0.0500,9.1501,0.1244,-0.0316,0.0502,19.63,88.75,60.06,-3.5178,9.1037,0.0114,9.7597
11,8,1,3,1,48.631,48631,-5.1900,10.6600,0.1100,11.8568,-0.0207,0.0044,0.8345,16.94,88.44,63.13,-3.7382,9.3088,0.0244,10.0313
11,8,1,3,1,48.762,48762,-0.6100,8.0800,0.4100,8.1134,-0.0654,0.0545,0.2313,11.50,88.81,68.00,-3.3260,9.1468,0.0752,9.7330
11,8,1,3,1,48.892,48892,-1.1100,8.4200,0.2700,8.4971,-0.0196,-0.0142,0.2520,10.56,89.06,68.75,-3.0339,9.0511,0.1009,9.5466
11,8,1,3,1,49.065,49065,-1.8300,9.1300,0.3800,9.3193,0.0785,-0.0742,0.0284,9.25,88.88,70.69,-2.8753,9.0615,0.1377,9.5077
11,8,1,3,1,49.196,49196,-1.9200,9.0800,0.3100,9.2860,0.1178,-0.0785,0.3687,8.25,87.94,72.38,-2.7494,9.0639,0.1604,9.4731
11,8,1,3,1,49.326,49326,-0.6400,8.9800,0.4000,9.0117,0.0164,-0.0502,0.3567,4.94,87.50,76.19,-2.4714,9.0528,0.1920,9.3861
11,9,1,3,1,49.456,49456,-1.1000,9.7600,0.2500,9.8250,-0.0884,-0.0316,0.1996,4.25,87.88,77.19,-2.2907,9.1460,0.1996,9.4306
11,9,1,3,1,49.586,49586,0.2900,9.8100,0.4500,9.8246,-0.0851,-0.0240,0.2891,1.00,88.56,80.56,-1.9507,9.2335,0.2326,9.4402
11,9,1,3,1,49.716,49716,-0.2000,10.0500,0.0900,10.0524,-0.0425,-0.0011,0.0720,0.94,89.00,80.69,-1.7200,9.3411,0.2138,9.5005
11,9,1,3,1,49.846,49846,-0.0400,10.1100,0.1100,10.1107,0.0055,0.0185,-0.0022,0.13,89.13,81.44,-1.4986,9.4424,0.2001,9.5627
11,9,1,3,1,49.976,49976,0.0100,9.7400,0.1800,9.7417,0.0349,0.0447,-0.0207,0.50,89.00,80.81,-1.2998,9.4816,0.1975,9.5724
11,9,1,3,1,50.149,50149,0.1100,9.9800,0.3600,9.9871,0.0196,-0.0065,-0.2454,0.81,88.69,80.25,-1.1140,9.5473,0.2189,9.6146
11,9,1,3,1,50.279,50279,-0.7900,9.5800,0.2000,9.6146,-0.0098,-0.0316,-0.1418,2.69,88.56,78.50,-1.0713,9.5516,0.2164,9.6140
11,9,1,3,1,50.409,50409,-0.3600,9.8800,0.2000,9.8886,-0.0153,-0.0415,-0.0687,3.06,88.75,78.44,-0.9776,9.5949,0.2142,9.6469
11,9,1,3,1,50.539,50539,-0.8600,9.7500,0.0700,9.7881,-0.0033,-0.0502,-0.1331,3.94,88.81,77.88,-0.9621,9.6153,0.1952,9.6653
11,9,1,3,1,50.669,50669,-1.1100,9.7400,0.1500,9.8042,0.0033,-0.0262,-0.1494,5.00,88.88,77.13,-0.9816,9.6318,0.1893,9.6835
11,9,1,3,1,50.799,50799,-0.9500,9.5900,0.2600,9.6404,0.0175,0.0207,-0.1702,6.13,88.75,76.00,-0.9774,9.6263,0.1986,9.6778
11,9,1,3,1,50.929,50929,-1.1200,8.7000,0.1900,8.7739,0.0033,0.0131,-0.4800,8.44,88.69,73.56,-0.9962,9.5042,0.1975,9.5583
11,9,1,3,1,51.060,51060,-3.3100,9.4100,0.2400,9.9781,-0.0229,0.0087,-0.4952,12.38,88.75,69.56,-1.3011,9.4918,0.2031,9.5827
11,9,1,3,1,51.233,51233,-1.7200,9.5200,0.0700,9.6744,-0.0065,0.0393,0.0262,11.88,88.75,69.69,-1.3563,9.4955,0.1855,9.5937
11,9,1,3,1,51.363,51363,-2.4700,9.9400,0.2600,10.2456,0.0076,0.0404,0.0491,12.88,88.75,68.50,-1.5031,9.5541,0.1953,9.6736
11,9,1,3,1,51.494,51494,-2.0800,9.5100,0.3300,9.7404,0.0164,0.0687,-0.2258,12.69,88.50,68.25,-1.5791,9.5483,0.2131,9.6803
11,9,1,3,1,51.624,51624,-2.3100,9.2400,0.1900,9.5263,-0.0295,0.0469,-0.1811,14.44,88.44,66.06,-1.6754,9.5076,0.2100,9.6564
11,9,1,3,1,51.755,51755,-2.8800,8.7400,0.1800,9.2040,-0.0087,0.0196,-0.3611,16.19,88.50,64.06,-1.8341,9.4065,0.2061,9.5859
11,9,1,3,1,51.886,51886,-2.5100,8.5600,0.3000,8.9255,0.0164,-0.0305,-0.0415,17.38,88.44,62.94,-1.9232,9.2949,0.2185,9.4943
11,9,1,3,1,52.016,52016,-3.1400,8.9000,0.0700,9.4379,-0.0175,-0.0753,-0.0764,18.19,88.56,62.56,-2.0835,9.2429,0.1989,9.4769
11,9,1,3,1,52.147,52147,-3.1400,9.5700,0.0000,10.0720,-0.0774,-0.0905,0.0065,18.13,89.19,63.13,-2.2228,9.2860,0.1727,9.5499
11,9,1,3,1,52.323,52323,-3.3600,8.7900,0.1400,9.4113,-0.0622,-0.0229,-0.2891,20.00,90.25,61.50,-2.3726,9.2206,0.1684,9.5225
11,9,1,3,1,52.454,52454,-3.9500,8.9800,-0.2500,9.8135,-0.0535,0.0044,-0.2182,21.63,90.75,59.75,-2.5805,9.1889,0.1132,9.5451
11,9,1,3,1,52.585,52585,-4.2000,8.9800,-0.2500,9.9168,-0.0393,0.0524,-0.1265,23.56,91.13,57.44,-2.7939,9.1614,0.0654,9.5782
11,9,1,3,1,52.715,52715,-4.2100,9.0000,-0.3400,9.9418,0.0164,0.0458,-0.1418,24.31,91.06,56.31,-2.9805,9.1401,0.0120,9.6138
11,9,1,3,1,52.846,52846,-4.7300,9.1400,-0.3100,10.2960,-0.0055,0.0731,0.0436,24.94,90.94,55.31,-3.2110,9.1401,-0.0305,9.6878
11,9,1,3,1,52.976,52976,-4.5700,9.9800,-0.1500,10.9776,0.0382,0.1167,0.1560,24.38,90.56,55.25,-3.3901,9.2508,-0.0462,9.8525
11,9,1,3,1,53.107,53107,-3.6400,8.9600,0.0800,9.6715,0.0687,0.1178,-0.0098,23.75,89.69,55.25,-3.4230,9.2125,-0.0296,9.8279
11,9,1,3,1,53.237,53237,-3.6500,8.8900,0.4400,9.6202,-0.0196,0.0654,0.0305,24.06,89.06,54.44,-3.4529,9.1700,0.0323,9.7986
11,9,1,3,1,53.410,53410,-4.1400,8.8300,0.1400,9.7534,-0.0316,-0.0556,-0.1713,24.13,89.56,54.25,-3.5435,9.1252,0.0465,9.7891
11,9,1,3,1,53.541,53541,-4.4000,10.0600,0.1700,10.9815,-0.0305,-0.0196,0.2007,23.81,89.88,54.75,-3.6564,9.2484,0.0628,9.9451
11,10,1,3,1,53.671,53671,-3.5200,8.4400,0.0100,9.1446,-0.0305,-0.0545,-0.3938,23.94,90.19,54.75,-3.6384,9.1418,0.0558,9.8394
11,10,1,3,1,53.802,53802,-4.0600,8.7700,-0.1500,9.6654,-0.0207,-0.0404,0.3043,24.88,90.50,54.06,-3.6939,9.0928,0.0287,9.8146
11,10,1,3,1,53.932,53932,-4.9600,9.4500,-0.2300,10.6751,-0.0327,-0.0120,-0.2858,25.25,90.88,53.81,-3.8608,9.1399,-0.0054,9.9219
11,10,1,3,1,54.065,54065,-3.8900,9.1000,-0.1800,9.8982,0.0415,0.0164,0.0807,25.06,90.88,53.88,-3.8646,9.1346,-0.0284,9.9186
11,10,1,3,1,54.196,54196,-4.3700,7.7600,-0.1600,8.9073,0.0338,0.0295,-0.1898,26.38,90.44,52.63,-3.9312,8.9535,-0.0457,9.7786
11,10,1,3,1,54.330,54330,-4.3200,9.5300,-0.0300,10.4635,-0.0065,0.0240,0.1320,25.56,90.31,53.25,-3.9825,9.0295,-0.0437,9.8688
11,10,1,3,1,54.503,54503,-4.9800,10.2300,-0.0200,11.3778,-0.0055,-0.0087,0.0938,25.69,90.25,53.06,-4.1139,9.1877,-0.0406,10.0667
11,10,1,3,1,54.633,54633,-3.4300,8.2400,-0.2500,8.9289,-0.0218,-0.0109,-0.0404,24.88,90.25,53.81,-4.0238,9.0628,-0.0682,9.9161
11,10,1,3,1,54.763,54763,-4.3100,8.5200,-0.1400,9.5491,0.0229,-0.0502,0.0491,26.19,90.56,52.69,-4.0615,8.9913,-0.0776,9.8663
11,10,1,3,1,54.893,54893,-4.5900,9.1100,0.0100,10.2010,0.0644,-0.0349,0.1342,24.69,90.31,54.69,-4.1311,9.0069,-0.0661,9.9093
11,10,1,3,1,55.023,55023,-3.3700,8.4600,-0.0500,9.1066,-0.0175,0.0360,0.0753,24.13,90.13,55.25,-4.0308,8.9348,-0.0640,9.8022
11,10,1,3,1,55.153,55153,-5.2600,10.0300,0.0500,11.3257,0.0196,0.0196,0.0687,24.13,90.06,55.06,-4.1928,9.0792,-0.0489,10.0007
11,10,1,3,1,55.284,55284,-3.6200,8.3100,0.1900,9.0662,-0.0098,0.0709,0.3523,22.00,89.81,56.94,-4.1173,8.9778,-0.0175,9.8769
11,10,1,3,1,55.414,55414,-2.9000,9.3300,-0.0800,9.7706,-0.0415,0.0676,0.2596,19.69,89.94,58.56,-3.9569,9.0242,-0.0257,9.8536
11,10,1,3,1,55.587,55587,-3.2800,9.9800,-0.0500,10.5053,-0.0251,0.0360,0.4134,16.88,89.88,61.00,-3.8677,9.1502,-0.0289,9.9341
11,10,1,3,1,55.718,55718,-1.5800,9.3100,-0.1400,9.4442,-0.0076,-0.0055,0.3316,13.56,89.94,64.13,-3.5663,9.1712,-0.0435,9.8403
11,10,1,3,1,55.849,55849,-2.3200,7.6600,0.1400,8.0048,0.0262,-0.0654,0.1865,12.63,89.88,65.44,-3.4020,8.9721,-0.0194,9.5954
11,10,1,3,1,55.979,55979,-1.3000,9.0500,0.1300,9.1438,0.0567,-0.0633,0.6021,9.63,89.69,69.00,-3.1250,8.9824,0.0003,9.5104
11,10,1,3,1,56.110,56110,-0.8700,9.5800,0.0500,9.6196,0.0556,-0.0753,0.1931,6.31,89.31,72.88,-2.8279,9.0611,0.0069,9.4921
11,10,1,3,1,56.240,56240,-0.7100,9.8400,0.2100,9.8678,0.0338,-0.0502,0.1953,5.06,89.06,74.56,-2.5488,9.1637,0.0336,9.5117
11,10,1,3,1,56.370,56370,-1.4100,9.6500,0.3100,9.7574,0.0458,-0.0316,0.0949,4.50,88.75,75.50,-2.3987,9.2278,0.0701,9.5348
11,10,1,3,1,56.501,56501,-0.2100,9.6900,0.4900,9.7047,0.0327,0.0044,0.4396,2.06,88.44,78.00,-2.1103,9.2887,0.1254,9.5263
11,10,1,3,1,56.678,56678,0.3700,9.9000,0.2700,9.9106,-0.0142,0.0142,0.3992,-1.06,88.38,81.19,-1.7835,9.3693,0.1445,9.5386
11,10,1,3,1,56.809,56809,0.4100,9.4000,0.3000,9.4137,-0.0262,0.0142,-0.1909,-1.88,88.44,81.88,-1.4944,9.3733,0.1649,9.4931
11,10,1,3,1,56.940,56940,0.6100,9.9000,0.2200,9.9212,-0.0774,-0.0011,0.0676,-1.69,88.88,81.75,-1.2171,9.4427,0.1722,9.5224
11,10,1,3,1,57.070,57070,0.2100,10.2400,0.1900,10.2439,-0.0415,-0.0164,-0.1451,-1.06,89.25,81.19,-1.0291,9.5478,0.1745,9.6047
11,10,1,3,1,57.201,57201,0.0800,9.9100,0.2400,9.9132,0.0371,-0.0109,-0.3632,0.31,89.25,79.81,-0.8829,9.5955,0.1832,9.6378
11,10,1,3,1,57.331,57331,-0.5600,9.7400,0.1200,9.7568,0.0589,-0.0164,-0.3163,3.00,88.81,77.19,-0.8404,9.6146,0.1748,9.6528
11,10,1,3,1,57.462,57462,-0.8800,9.6900,0.2100,9.7321,0.0196,-0.0153,-0.2705,5.06,88.50,75.25,-0.8456,9.6245,0.1795,9.6632
11,10,1,3,1,57.592,57592,-1.1700,9.6900,0.2600,9.7638,0.0164,-0.0087,-0.3142,7.19,88.38,73.25,-0.8883,9.6331,0.1901,9.6759
11,10,1,3,1,57.765,57765,-1.6500,8.7600,0.2600,8.9178,0.0022,-0.0022,-0.3982,10.25,88.25,70.19,-0.9887,9.5181,0.1993,9.5714
11,10,1,3,1,57.895,57895,-3.1900,9.4100,0.2400,9.9389,-0.0164,0.0262,-0.2978,13.75,88.25,66.69,-1.2788,9.5038,0.2047,9.5917
11,10,1,3,1,58.025,58025,-2.4600,8.7600,0.2700,9.1029,-0.0218,0.0622,-0.0295,13.88,88.31,66.19,-1.4344,9.4058,0.2133,9.5170
11,10,1,3,1,58.155,58155,-2.3100,9.8200,0.4700,10.0990,-0.0055,0.0916,-0.0393,13.56,88.19,65.81,-1.5498,9.4604,0.2471,9.5897
11,10,1,3,1,58.285,58285,-1.8200,9.3100,0.3200,9.4916,-0.0218,0.0709,-0.2193,14.19,88.06,64.63,-1.5854,9.4406,0.2567,9.5762
11,10,1,3,1,58.416,58416,-2.3400,8.3300,0.2600,8.6563,-0.0305,0.0360,-0.3589,17.13,88.13,61.25,-1.6848,9.2942,0.2571,9.4492
11,10,1,3,1,58.546,58546,-3.3700,8.6200,0.0800,9.2557,-0.0480,0.0109,-0.3403,19.88,88.38,58.31,-1.9069,9.2054,0.2338,9.4037
11,10,1,3,1,58.676,58676,-4.2300,9.3600,-0.0800,10.2718,-0.0731,-0.0164,-0.2454,22.63,88.88,55.38,-2.2130,9.2258,0.1925,9.4894
11,10,1,3,1,58.849,58849,-4.4100,9.4300,-0.0300,10.4103,-0.0044,-0.0622,-0.1167,23.69,89.38,54.50,-2.5025,9.2527,0.1631,9.5865
11,10,1,3,1,58.980,58980,-3.9200,9.4600,-0.0300,10.2401,-0.0109,-0.0742,0.1680,23.31,89.69,55.31,-2.6893,9.2800,0.1377,9.6628
11,10,1,3,1,59.111,59111,-3.9500,9.2900,0.1400,10.0959,0.0262,-0.0807,-0.0480,23.06,89.88,56.19,-2.8554,9.2813,0.1380,9.7116
11,10,1,3,1,59.241,59241,-3.7600,8.8000,-0.0900,9.5700,0.0513,-0.0578,-0.0829,23.19,89.75,56.63,-2.9746,9.2179,0.1079,9.6866
11,10,1,3,1,59.372,59372,-4.3100,8.6100,0.0400,9.6286,0.0153,-0.0153,-0.1058,24.31,89.63,55.88,-3.1506,9.1378,0.0990,9.6662
11,10,1,3,1,59.502,59502,-4.6100,8.8000,0.0300,9.9344,-0.0218,0.0535,0.0720,25.13,89.56,54.88,-3.3429,9.0933,0.0899,9.6887
11,10,1,3,1,59.633,59633,-4.1100,9.1500,-0.0900,10.0311,-0.0502,0.0938,-0.0360,25.00,89.63,54.31,-3.4440,9.1007,0.0662,9.7308
11,10,1,3,1,59.764,59764,-4.2200,9.3900,0.1000,10.2952,-0.0382,0.0840,0.0502,24.88,89.63,53.75,-3.5463,9.1389,0.0707,9.8030
11,10,1,3,1,59.940,59940,-3.9800,9.1300,0.1400,9.9608,-0.0404,0.0469,-0.0273,25.06,89.75,52.75,-3.6034,9.1377,0.0798,9.8229
11,10,1,3,1,60.070,60070,-3.7500,8.7900,0.1900,9.5584,0.0087,-0.0022,0.0196,24.75,89.69,52.88,-3.6227,9.0919,0.0943,9.7875
11,10,1,3,1,60.201,60201,-4.0300,8.8400,-0.1300,9.7161,-0.0131,-0.0502,-0.0982,24.81,89.88,53.06,-3.6764,9.0587,0.0648,9.7765
11,10,1,3,1,60.332,60332,-4.2300,9.1800,-0.0800,10.1080,0.0098,-0.0698,0.1473,24.94,90.13,53.31,-3.7493,9.0747,0.0457,9.8188
11,10,1,3,1,60.463,60463,-4.1900,8.9500,-0.1000,9.8827,0.0382,-0.0731,-0.0524,24.56,90.25,54.31,-3.8074,9.0582,0.0265,9.8259
11,10,1,3,1,60.593,60593,-4.3400,8.9100,-0.1300,9.9116,0.0240,-0.0393,-0.0709,24.81,90.25,54.50,-3.8776,9.0387,0.0059,9.8353
11,10,1,3,1,60.723,60723,-4.7600,9.2600,-0.1200,10.4125,0.0153,-0.0033,0.0284,25.00,90.25,54.50,-3.9939,9.0679,-0.0107,9.9085
11,10,1,3,1,60.854,60854,-3.8800,8.6700,0.2400,9.5016,0.0709,0.0720,-0.1396,25.31,89.81,54.00,-3.9789,9.0154,0.0223,9.8544
11,10,1,3,1,61.026,61026,-4.2400,9.5000,0.0500,10.4034,0.0109,-0.0229,0.1222,25.06,89.25,54.19,-4.0133,9.0793,0.0260,9.9268
11,10,1,3,1,61.156,61156,-4.9000,9.2400,0.0100,10.4589,-0.0055,-0.0175,0.0098,24.81,89.31,54.63,-4.1301,9.1005,0.0239,9.9939
11,10,1,3,1,61.286,61286,-4.0500,10.2000,0.1100,10.9752,0.0273,0.0262,0.4505,23.06,89.31,56.31,-4.1196,9.2454,0.0352,10.1217
11,11,1,3,1,61.416,61416,-1.9700,7.6600,0.1400,7.9105,0.0785,0.0382,0.3905,19.81,88.69,59.63,-3.8363,9.0365,0.0490,9.8172
11,11,1,3,1,61.546,61546,-4.0100,9.3200,0.2600,10.1494,-0.0447,0.0164,-0.1505,19.94,88.56,59.25,-3.8592,9.0738,0.0768,9.8607
11,11,1,3,1,61.676,61676,-2.8200,9.5400,0.0000,9.9481,-0.0458,0.0360,0.4352,18.25,88.81,60.63,-3.7223,9.1352,0.0667,9.8647
11,11,1,3,1,61.807,61807,-2.5100,9.4100,0.0000,9.7390,0.0295,-0.0120,0.0622,16.81,88.81,62.00,-3.5625,9.1715,0.0579,9.8392
11,11,1,3,1,61.938,61938,-3.3500,10.4300,0.4600,10.9644,0.0055,-0.0164,0.4701,15.31,88.81,63.63,-3.5345,9.3373,0.1109,9.9845
11,11,1,3,1,62.110,62110,-1.6200,8.4500,0.2500,8.6075,0.0196,-0.0404,-0.0665,12.88,88.81,66.31,-3.2822,9.2204,0.1292,9.7880
11,11,1,3,1,62.240,62240,-2.7800,8.4700,-0.0700,8.9148,-0.0033,-0.0698,0.3545,12.38,88.94,67.31,-3.2160,9.1215,0.1030,9.6724
11,11,1,3,1,62.370,62370,-0.3100,9.3700,0.2500,9.3785,0.0164,-0.0022,0.7232,6.63,88.81,73.19,-2.8331,9.1542,0.1223,9.5834
11,11,1,3,1,62.500,62500,-1.7100,8.5800,0.1500,8.7500,0.0065,-0.0229,-0.2465,6.63,88.81,73.38,-2.6851,9.0786,0.1260,9.4682
11,11,1,3,1,62.630,62630,-1.0300,10.2700,0.4100,10.3297,0.0327,0.1189,0.7756,4.06,88.75,75.63,-2.4670,9.2356,0.1634,9.5608
11,11,1,3,1,62.761,62761,0.1000,10.1800,0.2800,10.1843,0.0262,0.0905,-0.4331,3.25,88.50,75.56,-2.1287,9.3600,0.1788,9.6007
11,11,1,3,1,62.891,62891,-0.3800,9.6100,0.2400,9.6205,0.0371,-0.0087,0.2422,3.38,88.19,75.19,-1.8983,9.3930,0.1868,9.5847
11,11,1,3,1,63.022,63022,-0.6900,9.4000,0.2200,9.4279,0.0076,0.0196,-0.2858,3.44,88.00,75.13,-1.7391,9.3939,0.1912,9.5554
11,11,1,3,1,63.194,63194,-0.4900,9.8800,0.2700,9.8958,0.0425,0.0371,0.0338,3.88,87.75,74.31,-1.5745,9.4579,0.2016,9.5902
11,11,1,3,1,63.325,63325,0.0000,9.3500,0.6800,9.3747,0.0600,0.0065,-0.1178,3.50,87.31,74.56,-1.3670,9.4437,0.2646,9.5458
11,11,1,3,1,63.456,63456,-0.5400,9.6000,0.8400,9.6518,0.0654,-0.0305,-0.0894,4.94,86.88,73.25,-1.2580,9.4643,0.3405,9.5536
11,11,1,3,1,63.587,63587,-0.4900,9.7900,0.6900,9.8265,0.0131,-0.0764,-0.0480,6.13,86.56,72.44,-1.1568,9.5072,0.3865,9.5851
11,11,1,3,1,63.717,63717,-1.1400,9.1600,0.5300,9.2459,-0.0589,-0.1418,-0.5498,8.25,86.88,71.13,-1.1546,9.4615,0.4054,9.5403
11,11,1,3,1,63.848,63848,-1.6400,9.4400,0.4700,9.5929,-0.0873,-0.1582,-0.1789,10.00,87.56,70.38,-1.2186,9.4586,0.4139,9.5458
11,11,1,3,1,63.979,63979,-2.8400,9.7400,0.0800,10.1459,-0.0524,-0.1549,-0.2269,12.56,88.31,68.88,-1.4322,9.4957,0.3699,9.6102
11,11,1,3,1,64.114,64114,-2.0400,9.6900,0.2400,9.9053,-0.0076,-0.0851,0.1222,11.75,88.81,70.50,-1.5123,9.5213,0.3528,9.6471
11,11,1,3,1,64.287,64287,-3.1300,9.8100,-0.1700,10.2986,-0.0153,-0.0654,-0.3218,14.25,89.19,68.56,-1.7255,9.5594,0.2839,9.7180
11,11,1,3,1,64.417,64417,-2.5700,9.7600,0.0200,10.0927,0.0175,0.0120,0.6741,13.19,89.19,69.81,-1.8368,9.5858,0.2491,9.7634
11,11,1,3,1,64.547,64547,-0.5200,9.7500,-0.2200,9.7663,0.0873,0.0065,-0.2913,9.06,88.81,73.81,-1.6633,9.6074,0.1873,9.7521
11,11,1,3,1,64.678,64678,-3.0200,10.5000,-0.3800,10.9323,0.1898,-0.0153,0.2280,12.75,87.75,70.50,-1.8420,9.7251,0.1126,9.8986
11,11,1,3,1,64.808,64808,-1.1600,9.3000,-0.4100,9.3810,0.0905,-0.0393,0.2596,8.44,86.69,75.19,-1.7522,9.6690,0.0437,9.8266
11,11,1,3,1,64.938,64938,-2.1400,9.2800,-0.4400,9.5337,-0.1254,-0.0447,-0.2105,9.44,86.94,74.50,-1.8033,9.6178,-0.0200,9.7854
11,11,1,3,1,65.069,65069,-2.0100,8.5900,0.4400,8.8330,-0.1636,-0.0316,-0.1909,10.19,88.25,73.75,-1.8305,9.4823,0.0406,9.6575
11,11,1,3,1,65.199,65199,-1.5100,10.7700,2.4200,11.1413,0.0087,0.0175,0.7625,8.56,89.00,75.38,-1.7883,9.6520,0.3541,9.8227
11,11,1,3,1,65.372,65372,-1.4600,9.2600,1.1300,9.4423,0.0142,0.0644,-0.0425,6.44,88.69,77.25,-1.7450,9.6004,0.4564,9.7683
