participant,rep,equipment_code,exercise_code,quality_code,timestamp,timestamp_ms,accelX,accelY,accelZ,accelMag,gyroX,gyroY,gyroZ,roll,pitch,yaw,filteredX,filteredY,filteredZ,filteredMag
11,1,1,3,1,00.000,0,9.5100,-1.8400,0.8500,9.7236,0.0316,0.0044,-0.3043,-78.13,-66.00,170.94,9.2727,-1.7840,0.8510,9.4810
11,1,1,3,1,00.146,146,9.4000,-1.5700,0.8800,9.5708,0.0480,0.0316,0.0011,-79.50,-64.38,169.44,9.2895,-1.7558,0.8548,9.4925
11,1,1,3,1,00.279,279,9.4100,-1.7100,0.7100,9.5904,0.0240,-0.0131,0.0567,-79.06,-65.63,169.63,9.3054,-1.7498,0.8357,9.5052
11,1,1,3,1,00.410,410,8.9400,-1.9600,0.7100,9.1798,0.0196,-0.0109,-0.0774,-79.00,-65.69,169.50,9.2572,-1.7775,0.8192,9.4618
11,1,1,3,1,00.542,542,8.5600,-1.0100,0.6200,8.6416,-0.0305,-0.0556,-0.3720,-80.13,-60.94,168.13,9.1653,-1.6763,0.7929,9.3511
11,1,1,3,1,00.672,672,9.0500,-0.9000,0.6800,9.1200,-0.0207,-0.0480,0.0622,-80.88,-55.25,167.13,9.1501,-1.5740,0.7780,9.3171
11,1,1,3,1,00.845,845,9.0700,-1.4800,1.0300,9.2475,-0.0185,-0.0076,-0.0262,-80.13,-55.94,167.88,9.1396,-1.5616,0.8112,9.3075
11,1,1,3,1,00.975,975,9.1600,-1.5800,0.9300,9.3417,0.0185,0.0480,-0.1014,-80.50,-55.19,167.63,9.1423,-1.5641,0.8269,9.3119
11,1,1,3,1,01.105,1105,9.8700,-1.0800,1.0800,9.9875,0.0469,0.0567,-0.2574,-81.81,-52.19,166.06,9.2382,-1.5003,0.8602,9.3986
11,1,1,3,1,01.235,1235,9.5800,-0.7000,1.0300,9.6606,0.0513,0.0600,-0.2967,-83.63,-4.25,163.56,9.2832,-1.3948,0.8826,9.4288
11,1,1,3,1,01.365,1365,9.0600,0.0000,0.2900,9.0646,0.0120,0.1156,-0.2422,-85.75,-1.38,160.44,9.2538,-1.2110,0.8045,9.3673
11,1,1,3,1,01.495,1495,9.8900,0.0400,0.2900,9.8943,-0.0284,0.1549,-0.0011,-86.94,-0.63,159.75,9.3376,-1.0462,0.7367,9.4249
11,1,1,3,1,01.625,1625,10.8600,0.4300,0.4700,10.8787,-0.0524,0.0622,-0.1833,-87.81,-0.06,159.50,9.5382,-0.8516,0.7016,9.6019
11,1,1,3,1,01.755,1755,10.4900,0.9400,-0.3400,10.5375,-0.0262,0.0796,-0.1800,-87.75,1.31,158.31,9.6637,-0.6155,0.5643,9.6997
11,1,1,3,1,01.928,1928,12.6300,-0.3100,0.7000,12.6532,0.0894,-0.0927,0.4516,-88.50,-0.44,159.69,10.0545,-0.5753,0.5822,10.0878
11,2,1,3,1,02.059,2059,9.0400,-0.2000,-0.1400,9.0433,-0.0109,-0.1876,-0.0818,-87.13,-0.94,159.94,9.9209,-0.5258,0.4870,9.9467
11,2,1,3,1,02.189,2189,9.0800,-0.2000,0.7100,9.1099,-0.0120,-0.1265,0.3196,-85.75,-1.81,161.00,9.8101,-0.4829,0.5164,9.8355
11,2,1,3,1,02.320,2320,9.3500,-0.7500,0.6200,9.4005,-0.0262,-0.0393,0.2323,-84.25,-3.69,162.94,9.7494,-0.5181,0.5301,9.7776
11,2,1,3,1,02.450,2450,9.3700,-0.9300,0.7300,9.4443,-0.0535,0.0164,0.0807,-83.31,-4.94,164.50,9.6994,-0.5724,0.5564,9.7322
11,2,1,3,1,02.580,2580,9.1100,-0.6500,0.7000,9.1599,-0.0524,0.0185,0.2956,-83.38,-5.00,164.94,9.6218,-0.5826,0.5753,9.6565
11,2,1,3,1,02.711,2711,9.4400,-1.4900,0.8200,9.5920,-0.0305,0.0262,0.3589,-81.56,-60.56,167.56,9.5978,-0.7022,0.6076,9.6426
11,2,1,3,1,02.841,2841,9.0900,-1.1800,0.4900,9.1794,-0.0829,-0.0076,-0.0404,-80.31,-64.44,169.38,9.5309,-0.7651,0.5921,9.5799
11,2,1,3,1,03.014,3014,8.5700,-1.2600,0.7300,8.6928,-0.0251,-0.0382,0.1593,-80.06,-63.44,170.00,9.4043,-0.8303,0.6103,9.4606
11,2,1,3,1,03.148,3148,9.3900,-1.3700,0.9100,9.5329,-0.0055,-0.0229,0.1200,-79.69,-62.88,170.31,9.4024,-0.9015,0.6498,9.4678
11,2,1,3,1,03.279,3279,8.7600,-1.2900,0.9000,8.9001,-0.0415,-0.0218,-0.0589,-78.38,-64.19,171.63,9.3177,-0.9527,0.6827,9.3912
11,2,1,3,1,03.409,3409,9.5200,-2.1200,1.0600,9.8106,-0.0993,0.0131,-0.0884,-76.75,-67.13,173.75,9.3444,-1.1065,0.7324,9.4381
11,2,1,3,1,03.540,3540,9.0200,-2.1600,0.7200,9.3029,-0.0404,0.0196,0.2214,-76.63,-67.81,174.44,9.3016,-1.2453,0.7308,9.4130
11,2,1,3,1,03.670,3670,9.1300,-2.3800,0.8700,9.4751,0.0033,0.0316,0.2771,-74.88,-71.19,176.63,9.2790,-1.3948,0.7491,9.4131
11,2,1,3,1,03.801,3801,9.1200,-2.1700,0.6000,9.3938,0.0011,0.0644,-0.1844,-75.38,-71.88,176.31,9.2581,-1.4970,0.7295,9.4066
11,2,1,3,1,03.931,3931,9.0000,-2.2100,0.6000,9.2868,-0.0011,0.0698,0.0687,-75.88,-73.38,176.13,9.2241,-1.5909,0.7124,9.3873
11,2,1,3,1,04.104,4104,9.5700,-2.2700,0.4700,9.8468,-0.0033,0.0360,-0.0927,-75.31,-76.25,176.94,9.2696,-1.6804,0.6805,9.4453
11,2,1,3,1,04.234,4234,9.2700,-2.1600,0.4400,9.5285,0.0022,-0.0185,-0.0436,-76.25,-75.63,176.00,9.2697,-1.7436,0.6488,9.4545
11,2,1,3,1,04.364,4364,9.2200,-2.1000,0.5200,9.4704,-0.0033,-0.0393,-0.0709,-76.31,-74.63,175.88,9.2631,-1.7906,0.6318,9.4558
11,2,1,3,1,04.494,4494,9.2100,-2.3000,0.6700,9.5165,-0.0011,-0.0382,-0.0153,-76.56,-73.38,175.44,9.2561,-1.8577,0.6369,9.4622
11,2,1,3,1,04.624,4624,9.1800,-2.0400,0.7500,9.4338,-0.0480,-0.0491,-0.1396,-77.38,-70.44,174.63,9.2461,-1.8817,0.6518,9.4581
11,2,1,3,1,04.754,4754,9.2300,-1.7900,0.6700,9.4258,-0.0175,-0.0305,0.0916,-77.19,-69.13,174.88,9.2440,-1.8696,0.6542,9.4538
11,2,1,3,1,04.884,4884,9.1800,-1.7700,0.8400,9.3867,0.0338,-0.0327,-0.1091,-77.25,-67.94,174.63,9.2356,-1.8565,0.6787,9.4447
11,2,1,3,1,05.014,5014,9.0500,-1.9900,0.7700,9.2981,0.0578,-0.0109,0.0687,-77.31,-67.31,174.13,9.2111,-1.8741,0.6907,9.4252
11,2,1,3,1,05.187,5187,9.1900,-2.1200,0.7100,9.4580,0.0404,0.0251,-0.0055,-77.00,-68.69,174.06,9.2083,-1.9065,0.6932,9.4291
11,2,1,3,1,05.317,5317,9.1000,-2.0100,0.7400,9.3487,0.0382,0.0175,-0.0447,-77.31,-69.31,173.63,9.1940,-1.9201,0.6994,9.4184
11,2,1,3,1,05.447,5447,8.8100,-1.8600,0.7200,9.0329,0.0447,0.0284,0.1560,-77.00,-70.75,173.81,9.1434,-1.9122,0.7021,9.3676
11,2,1,3,1,05.577,5577,9.6100,-2.2700,0.5900,9.8921,0.0611,0.0611,0.0513,-76.81,-72.94,173.81,9.2049,-1.9594,0.6873,9.4362
11,2,1,3,1,05.707,5707,8.5800,-2.1000,0.8200,8.8712,0.0251,0.0185,-0.2291,-76.63,-74.81,173.81,9.1226,-1.9779,0.7048,9.3611
11,2,1,3,1,05.837,5837,9.4300,-1.7600,0.1700,9.5943,0.0185,0.0502,-0.1734,-78.56,-73.63,171.88,9.1631,-1.9492,0.6343,9.3896
11,2,1,3,1,05.967,5967,9.7500,-1.9400,0.8200,9.9749,0.0284,-0.0076,-0.0480,-78.88,-74.31,171.44,9.2404,-1.9480,0.6588,9.4665
11,2,1,3,1,06.097,6097,8.4000,-1.8100,0.1000,8.5934,0.0251,-0.0076,-0.0295,-79.13,-73.31,171.06,9.1297,-1.9298,0.5852,9.3497
11,2,1,3,1,06.270,6270,10.1200,-1.6100,0.4500,10.2571,0.0044,-0.0044,-0.0851,-80.81,-71.19,169.06,9.2602,-1.8877,0.5674,9.4676
11,2,1,3,1,06.400,6400,9.5200,-1.7600,0.6800,9.7052,0.0284,-0.0153,-0.1593,-81.75,-68.88,167.94,9.2944,-1.8708,0.5822,9.4987
11,2,1,3,1,06.531,6531,8.1100,-0.1700,0.1500,8.1132,-0.0916,0.0273,-0.2956,-85.06,-3.75,164.38,9.1383,-1.6467,0.5252,9.3004
11,2,1,3,1,06.662,6662,10.2700,-1.1900,0.4700,10.3494,-0.0502,0.0076,0.3163,-83.38,-5.75,166.75,9.2875,-1.5865,0.5180,9.4362
11,2,1,3,1,06.792,6792,9.8000,-0.6300,0.7200,9.8466,-0.0600,0.0229,-0.1156,-83.25,-5.88,167.44,9.3550,-1.4605,0.5446,9.4840
11,2,1,3,1,06.923,6923,8.6600,-0.6100,0.2400,8.6848,-0.0120,0.0491,-0.0731,-84.38,-4.75,166.63,9.2634,-1.3484,0.5045,9.3746
11,2,1,3,1,07.057,7057,9.5300,-0.8500,0.6000,9.5866,0.0175,0.0000,0.2247,-84.06,-5.25,167.13,9.2985,-1.2827,0.5170,9.4008
11,2,1,3,1,07.190,7190,10.0000,-0.6500,0.2900,10.0253,0.0753,0.0065,-0.0796,-83.88,-5.50,167.00,9.3910,-1.1994,0.4871,9.4798
11,2,1,3,1,07.362,7362,9.4100,-0.7200,0.3000,9.4423,0.1309,0.0033,-0.2356,-85.81,-3.31,163.75,9.3935,-1.1362,0.4625,9.4732
11,2,1,3,1,07.492,7492,9.2900,-0.7900,0.5100,9.3375,0.0796,-0.0469,-0.2367,-86.50,-2.25,161.88,9.3799,-1.0906,0.4687,9.4547
11,2,1,3,1,07.622,7622,9.9300,0.1200,0.4400,9.9405,0.0262,-0.0742,-0.0742,-86.69,-1.00,160.25,9.4523,-0.9310,0.4649,9.5095
11,2,1,3,1,07.752,7752,8.7400,-0.4100,0.5100,8.7645,0.0415,-0.0175,-0.1614,-86.44,-0.69,159.63,9.3585,-0.8624,0.4709,9.4099
11,2,1,3,1,07.882,7882,10.6000,0.3800,0.6200,10.6249,0.0229,0.0360,-0.2956,-86.63,0.75,158.00,9.5221,-0.6987,0.4905,9.5603
11,2,1,3,1,08.012,8012,9.8800,0.3400,0.7400,9.9135,-0.0109,-0.0185,0.0131,-86.31,1.69,157.00,9.5692,-0.5618,0.5234,9.6000
11,2,1,3,1,08.142,8142,10.1200,0.5200,0.3000,10.1378,-0.0229,0.0305,-0.0873,-86.31,1.81,157.00,9.6418,-0.4192,0.4940,9.6636
11,2,1,3,1,08.272,8272,11.0600,0.2400,0.5800,11.0778,0.0044,0.0087,0.2007,-86.63,1.56,157.25,9.8287,-0.3324,0.5053,9.8473
11,2,1,3,1,08.445,8445,10.0000,0.5100,0.3000,10.0175,-0.0120,0.0240,0.1167,-86.19,2.19,156.75,9.8513,-0.2214,0.4782,9.8654
11,3,1,3,1,08.575,8575,9.5200,0.0400,0.6800,9.5443,-0.0055,-0.0687,0.1745,-86.63,0.25,158.63,9.8076,-0.1869,0.5048,9.8224
11,3,1,3,1,08.705,8705,9.3400,0.0300,0.5900,9.3587,0.0185,-0.0131,-0.0938,-86.44,0.00,158.94,9.7460,-0.1583,0.5161,9.7609
11,3,1,3,1,08.835,8835,9.5400,0.2300,0.7300,9.5707,0.0338,-0.0098,0.1069,-86.31,0.13,158.63,9.7189,-0.1072,0.5442,9.7347
11,3,1,3,1,08.965,8965,9.3200,-0.1800,0.6100,9.3417,0.0436,0.0000,0.1353,-86.13,-1.25,159.69,9.6663,-0.1168,0.5529,9.6828
11,3,1,3,1,09.095,9095,9.6300,-0.3300,0.5700,9.6525,-0.0011,-0.0033,0.0807,-85.81,-1.88,160.25,9.6615,-0.1449,0.5552,9.6785
11,3,1,3,1,09.225,9225,9.3200,-0.6100,0.4700,9.3518,-0.0087,0.0305,0.1745,-85.25,-3.00,161.38,9.6165,-0.2062,0.5439,9.6341
11,3,1,3,1,09.355,9355,8.9400,-0.5700,0.6100,8.9789,-0.0338,0.0447,0.0196,-85.38,-3.19,161.75,9.5274,-0.2541,0.5526,9.5468
11,3,1,3,1,09.528,9528,9.7600,-0.9500,0.4600,9.8169,-0.0491,0.0382,0.2476,-84.06,-5.06,164.00,9.5580,-0.3458,0.5404,9.5795
11,3,1,3,1,09.658,9658,9.7100,-1.0100,0.2300,9.7651,-0.0327,0.0360,0.1025,-82.50,-68.63,166.19,9.5780,-0.4333,0.4995,9.6008
11,3,1,3,1,09.788,9788,9.4400,-1.3300,0.4200,9.5425,-0.0120,0.0011,0.1854,-82.19,-70.88,166.75,9.5599,-0.5515,0.4891,9.5882
11,3,1,3,1,09.918,9918,9.0700,-1.2900,0.3900,9.1696,-0.0218,-0.0371,0.1113,-81.00,-72.25,168.06,9.4953,-0.6488,0.4760,9.5293
11,3,1,3,1,10.048,10048,9.6300,-1.2200,0.3600,9.7136,0.0305,-0.0284,0.0676,-80.75,-71.38,168.25,9.5131,-0.7241,0.4607,9.5517
11,3,1,3,1,10.178,10178,8.9000,-1.6200,0.5700,9.0642,0.0185,-0.0164,0.1494,-79.69,-72.50,169.00,9.4323,-0.8421,0.4751,9.4817
11,3,1,3,1,10.308,10308,8.7900,-1.6500,0.6300,8.9657,0.0164,0.0087,0.2182,-78.75,-73.69,169.94,9.3476,-0.9486,0.4955,9.4087
11,3,1,3,1,10.438,10438,8.7700,-2.4200,0.5600,9.1150,0.0011,-0.0011,0.3262,-76.06,-76.81,172.69,9.2715,-1.1425,0.5040,9.3552
11,3,1,3,1,10.611,10611,9.1500,-2.5300,0.3400,9.4994,-0.0393,-0.0524,0.0654,-74.88,-76.81,174.06,9.2555,-1.3253,0.4824,9.3623
11,3,1,3,1,10.742,10742,9.3800,-2.7400,0.6400,9.7929,-0.0076,-0.0142,-0.0251,-74.75,-76.44,174.31,9.2719,-1.5117,0.5032,9.4078
11,3,1,3,1,10.873,10873,8.9100,-2.2000,0.3900,9.1859,-0.0349,-0.0196,-0.0633,-75.38,-74.88,173.81,9.2242,-1.6024,0.4883,9.3751
11,3,1,3,1,11.003,11003,9.1100,-2.5600,0.7100,9.4895,-0.0044,-0.0153,0.0436,-74.94,-74.75,174.19,9.2092,-1.7286,0.5175,9.3843
11,3,1,3,1,11.133,11133,8.7800,-2.5400,0.7200,9.1683,-0.0327,0.0175,0.0142,-74.94,-74.38,174.31,9.1526,-1.8355,0.5442,9.3507
11,3,1,3,1,11.263,11263,9.2200,-2.5500,0.6300,9.5869,-0.0338,0.0207,0.1265,-74.00,-75.50,175.56,9.1615,-1.9297,0.5555,9.3790
11,3,1,3,1,11.393,11393,9.0200,-2.6300,0.6600,9.4188,-0.0229,0.0382,-0.0382,-74.06,-76.06,175.81,9.1428,-2.0220,0.5693,9.3810
11,3,1,3,1,11.523,11523,8.9000,-2.4600,0.4300,9.2437,0.0033,0.0338,-0.0087,-74.06,-76.88,176.00,9.1108,-2.0797,0.5509,9.3614
11,3,1,3,1,11.696,11696,9.1900,-2.3500,0.4100,9.4946,0.0240,0.0098,-0.0894,-75.44,-76.50,174.56,9.1213,-2.1153,0.5323,9.3785
11,3,1,3,1,11.827,11827,8.5400,-2.2500,0.5600,8.8492,0.0611,0.0338,-0.1953,-76.00,-77.06,173.75,9.0447,-2.1331,0.5360,9.3082
11,3,1,3,1,11.962,11962,9.0100,-2.1600,0.3900,9.2735,0.0491,0.0164,-0.1102,-77.88,-76.88,171.56,9.0401,-2.1366,0.5167,9.3035
11,3,1,3,1,12.092,12092,9.5400,-1.9800,0.6100,9.7624,0.0556,0.0175,-0.1614,-79.31,-76.31,169.69,9.1060,-2.1160,0.5290,9.3636
11,3,1,3,1,12.223,12223,9.1400,-1.7300,0.2400,9.3054,0.0240,-0.0295,-0.0011,-80.19,-74.69,168.56,9.1105,-2.0651,0.4909,9.3545
11,3,1,3,1,12.354,12354,9.0200,-1.3500,0.3700,9.1280,0.0087,-0.0055,-0.2727,-81.19,-72.13,167.25,9.0985,-1.9709,0.4750,9.3217
11,3,1,3,1,12.484,12484,9.4000,-1.3800,0.6400,9.5223,-0.0164,-0.0153,-0.1145,-81.75,-70.56,166.63,9.1383,-1.8930,0.4967,9.3455
11,3,1,3,1,12.614,12614,9.4300,-1.0100,0.6700,9.5076,-0.0164,0.0055,-0.1069,-82.94,-66.69,165.56,9.1767,-1.7767,0.5196,9.3615
11,3,1,3,1,12.787,12787,8.9000,-1.0300,0.3700,8.9670,-0.0305,0.0011,-0.2673,-82.56,-67.69,166.19,9.1402,-1.6783,0.4999,9.3065
11,3,1,3,1,12.917,12917,9.6800,-0.7500,0.3500,9.7153,-0.0098,0.0196,-0.1200,-83.88,-5.50,164.94,9.2114,-1.5559,0.4801,9.3542
11,3,1,3,1,13.047,13047,9.2200,-0.6500,0.5100,9.2569,0.0044,0.0185,-0.1265,-85.00,-4.19,163.75,9.2125,-1.4366,0.4841,9.3364
11,3,1,3,1,13.177,13177,9.6700,-0.6400,0.1900,9.6930,-0.0153,0.0753,-0.0316,-85.38,-4.06,163.69,9.2728,-1.3316,0.4453,9.3785
11,3,1,3,1,13.307,13307,9.7000,-0.3700,0.3000,9.7117,-0.0033,0.0175,-0.1265,-86.44,-3.06,162.75,9.3291,-1.2049,0.4262,9.4162
11,3,1,3,1,13.437,13437,9.3700,-0.1700,0.1800,9.3733,0.0120,-0.0207,-0.1560,-87.38,-1.81,161.44,9.3345,-1.0685,0.3937,9.4037
11,3,1,3,1,13.567,13567,9.6700,-0.0700,0.4300,9.6798,0.0535,-0.0196,0.0142,-87.44,-1.63,161.00,9.3787,-0.9369,0.3985,9.4338
11,3,1,3,1,13.697,13697,9.5400,-0.4500,0.1700,9.5521,0.0654,-0.0044,-0.0600,-87.50,-1.44,160.38,9.4000,-0.8728,0.3684,9.4476
11,3,1,3,1,13.870,13870,9.4000,0.0000,0.3200,9.4054,0.0404,-0.0305,-0.3022,-87.63,-0.94,159.31,9.4000,-0.7578,0.3620,9.4374
11,3,1,3,1,14.001,14001,9.9600,0.3300,0.3700,9.9723,0.0131,0.0000,-0.0905,-87.56,1.06,157.06,9.4738,-0.6144,0.3631,9.5006
11,3,1,3,1,14.132,14132,10.9800,-0.3300,0.3900,10.9919,0.0229,0.0022,0.4178,-87.75,-0.38,158.50,9.6722,-0.5769,0.3666,9.6964
11,3,1,3,1,14.265,14265,9.8900,-0.0800,0.4200,9.8992,-0.0393,0.0076,-0.2727,-87.44,-1.38,159.44,9.7009,-0.5115,0.3737,9.7216
11,3,1,3,1,14.398,14398,8.5600,0.4500,0.3800,8.5802,0.0022,-0.0076,-0.0120,-87.50,1.25,156.94,9.5506,-0.3848,0.3745,9.5657
11,3,1,3,1,14.529,14529,9.7200,-0.2500,0.5200,9.7371,0.0153,0.0033,0.4821,-87.44,-1.31,159.56,9.5729,-0.3670,0.3937,9.5880
11,3,1,3,1,14.660,14660,9.5700,-0.6600,0.4300,9.6024,0.0033,-0.0131,0.0240,-86.13,-3.13,161.31,9.5725,-0.4056,0.3985,9.5894
11,3,1,3,1,14.790,14790,9.9500,-0.7700,0.4800,9.9913,0.0065,-0.0327,0.2258,-85.69,-3.56,161.75,9.6223,-0.4536,0.4092,9.6416
11,3,1,3,1,14.963,14963,9.5100,-0.4100,0.5400,9.5341,0.0109,-0.0229,-0.0916,-85.44,-3.69,161.88,9.6075,-0.4479,0.4264,9.6274
11,3,1,3,1,15.093,15093,9.5500,-0.5200,0.4500,9.5747,0.0076,0.0044,0.1222,-85.38,-3.69,161.81,9.5999,-0.4574,0.4295,9.6204
11,3,1,3,1,15.223,15223,9.8000,-1.0200,0.3900,9.8607,-0.0109,0.0327,0.2160,-83.81,-5.56,163.69,9.6263,-0.5315,0.4243,9.6503
11,3,1,3,1,15.353,15353,9.1600,-0.6100,0.1300,9.1812,-0.0262,0.0240,-0.1647,-83.94,-5.50,163.81,9.5648,-0.5419,0.3855,9.5879
11,3,1,3,1,15.483,15483,9.5400,-1.1700,0.3900,9.6194,-0.0011,0.0000,0.1407,-83.50,-6.00,164.38,9.5616,-0.6246,0.3861,9.5897
11,3,1,3,1,15.613,15613,10.3700,-1.4500,0.5000,10.4828,-0.0196,-0.0371,0.1374,-81.94,-72.25,166.00,9.6681,-0.7334,0.4011,9.7042
11,3,1,3,1,15.743,15743,8.6900,-0.7600,0.3400,8.7298,-0.0175,-0.0382,-0.3011,-82.69,-67.50,165.19,9.5392,-0.7369,0.3931,9.5757
11,3,1,3,1,15.873,15873,9.1600,-0.9900,0.6600,9.2370,0.0142,-0.0196,0.2280,-82.94,-65.25,164.81,9.4892,-0.7703,0.4283,9.5301
11,3,1,3,1,16.046,16046,9.1700,-1.0400,0.6600,9.2524,0.0382,-0.0087,0.1691,-81.06,-69.44,166.63,9.4472,-0.8058,0.4588,9.4926
11,3,1,3,1,16.176,16176,8.4600,-1.5900,0.4900,8.6221,0.0600,-0.0022,0.0491,-79.75,-72.25,167.63,9.3171,-0.9091,0.4629,9.3728
11,3,1,3,1,16.309,16309,10.8000,-1.9900,0.3900,10.9887,0.0185,-0.0076,0.6316,-79.13,-73.63,168.00,9.5125,-1.0516,0.4533,9.5812
11,3,1,3,1,16.443,16443,8.9100,-2.3900,0.5700,9.2426,0.0262,-0.0120,0.0022,-77.75,-75.19,169.31,9.4331,-1.2279,0.4687,9.5242
11,3,1,3,1,16.574,16574,8.9600,-1.7300,0.3100,9.1308,-0.0044,-0.0076,0.0218,-77.19,-75.56,169.88,9.3708,-1.2941,0.4478,9.4703
11,3,1,3,1,16.704,16704,9.1300,-2.3100,0.5800,9.4355,0.0316,0.0185,0.0567,-77.00,-76.25,170.13,9.3390,-1.4280,0.4652,9.4590
11,3,1,3,1,16.835,16835,9.2300,-2.3700,0.5100,9.5431,0.0087,0.0240,0.0785,-76.38,-77.44,170.94,9.3247,-1.5521,0.4711,9.4647
11,3,1,3,1,16.965,16965,9.3100,-2.3900,0.3800,9.6194,-0.0469,0.0164,0.0687,-75.75,-78.50,171.81,9.3227,-1.6625,0.4591,9.4809
11,3,1,3,1,17.138,17138,9.3400,-2.3600,0.2900,9.6379,-0.0502,-0.0229,-0.0153,-75.31,-78.44,172.50,9.3250,-1.7544,0.4368,9.4987
11,3,1,3,1,17.268,17268,9.1300,-2.2500,0.5700,9.4204,-0.0480,-0.0404,0.0022,-75.50,-77.00,172.56,9.2993,-1.8197,0.4544,9.4866
11,3,1,3,1,17.398,17398,9.2900,-2.6900,0.5100,9.6851,-0.0382,-0.0360,0.0971,-74.69,-76.38,173.56,9.2981,-1.9344,0.4617,9.5084
11,3,1,3,1,17.528,17528,8.9100,-2.2200,0.7100,9.2098,-0.0491,-0.0262,-0.2705,-75.63,-74.19,172.75,9.2469,-1.9720,0.4944,9.4678
11,3,1,3,1,17.658,17658,9.0900,-2.3000,0.6600,9.3997,-0.0109,-0.0087,0.1167,-75.88,-73.31,172.63,9.2263,-2.0153,0.5162,9.4579
11,3,1,3,1,17.788,17788,8.8200,-2.5700,0.4800,9.1993,-0.0098,0.0065,-0.0305,-75.44,-74.00,173.19,9.1727,-2.0884,0.5115,9.4213
11,3,1,3,1,17.918,17918,8.6900,-2.0400,0.8000,8.9620,-0.0240,0.0240,-0.3938,-76.69,-72.94,172.00,9.1091,-2.0820,0.5495,9.3602
11,3,1,3,1,18.048,18048,8.9700,-1.3800,0.6400,9.0981,-0.0327,0.0425,-0.2127,-79.06,-69.81,169.81,9.0908,-1.9895,0.5614,9.3229
11,3,1,3,1,18.221,18221,9.6500,-1.3600,0.6800,9.7691,0.0251,0.0393,0.0393,-80.56,-68.56,168.50,9.1645,-1.9065,0.5770,9.3785
11,3,1,3,1,18.351,18351,9.3200,-1.5500,0.6600,9.4710,0.0556,0.0349,-0.1462,-80.75,-70.00,168.13,9.1850,-1.8596,0.5880,9.3897
11,3,1,3,1,18.481,18481,9.3500,-1.6500,0.5300,9.5093,0.0109,0.0316,0.0753,-81.31,-69.94,167.38,9.2067,-1.8319,0.5803,9.4051
11,3,1,3,1,18.611,18611,9.8000,-1.8500,0.3700,9.9800,0.0087,0.0611,0.1014,-80.69,-73.75,168.19,9.2849,-1.8343,0.5526,9.4805
11,3,1,3,1,18.741,18741,8.8900,-0.5800,-0.1400,8.9100,-0.0262,0.0545,-0.3338,-82.63,-72.38,166.38,9.2329,-1.6690,0.4613,9.3938
11,3,1,3,1,18.871,18871,9.4800,-1.0600,0.2800,9.5432,-0.0207,0.0436,0.0687,-84.25,-5.44,164.88,9.2654,-1.5888,0.4374,9.4108
11,3,1,3,1,19.001,19001,10.3900,-1.0800,0.1100,10.4466,-0.0185,0.0175,0.2105,-83.13,-77.50,166.38,9.4136,-1.5217,0.3943,9.5440
11,3,1,3,1,19.131,19131,8.3800,-1.1100,0.0400,8.4533,-0.0535,0.0055,-0.2389,-82.31,-78.31,167.44,9.2774,-1.4675,0.3476,9.3992
11,3,1,3,1,19.304,19304,8.6500,-0.6200,0.3700,8.6801,-0.0076,-0.0098,-0.2040,-85.63,-4.00,164.19,9.1947,-1.3558,0.3506,9.3008
11,3,1,3,1,19.434,19434,9.3500,-0.4500,0.4100,9.3698,-0.0011,-0.0076,0.0644,-85.63,-3.94,164.06,9.2152,-1.2364,0.3584,9.3047
11,3,1,3,1,19.564,19564,10.3900,-0.9100,0.3100,10.4344,0.0251,0.0262,0.1156,-84.88,-4.81,164.88,9.3700,-1.1934,0.3520,9.4523
11,3,1,3,1,19.694,19694,9.1800,-0.9700,0.2000,9.2333,0.0131,0.0251,-0.2040,-85.06,-4.69,164.56,9.3450,-1.1640,0.3320,9.4230
11,3,1,3,1,19.824,19824,8.8700,-0.3800,0.1800,8.8800,0.0033,0.0011,-0.2956,-87.13,-2.50,162.44,9.2824,-1.0607,0.3120,9.3480
11,3,1,3,1,19.954,19954,10.1300,0.2000,0.2600,10.1353,0.0295,-0.0251,0.0120,-87.94,-1.50,161.31,9.3941,-0.8945,0.3051,9.4415
11,3,1,3,1,20.084,20084,9.1600,-0.3500,0.0700,9.1670,0.0316,0.0076,0.0415,-87.31,-2.19,161.75,9.3632,-0.8228,0.2741,9.4033
11,3,1,3,1,20.214,20214,10.7800,-0.3000,0.1900,10.7858,0.0284,0.0338,0.0600,-87.38,-2.25,161.63,9.5499,-0.7539,0.2630,9.5832
11,3,1,3,1,20.387,20387,9.2400,-0.3700,0.0600,9.2476,-0.0382,-0.0371,-0.1942,-87.69,-1.88,161.13,9.5091,-0.7033,0.2363,9.5380
11,3,1,3,1,20.520,20520,10.3800,-0.2600,0.2200,10.3856,-0.0349,-0.0022,0.2913,-87.50,-2.00,161.56,9.6238,-0.6449,0.2341,9.6483
11,3,1,3,1,20.651,20651,10.2000,-0.7600,0.4300,10.2373,-0.0251,-0.0284,-0.0022,-85.69,-4.00,163.75,9.6998,-0.6601,0.2600,9.7257
11,3,1,3,1,20.785,20785,8.4100,0.0300,0.0500,8.4102,-0.0491,-0.0153,-0.2465,-87.06,-2.38,162.38,9.5298,-0.5691,0.2323,9.5496
11,3,1,3,1,20.916,20916,9.2100,-0.1700,0.2100,9.2140,0.0218,0.0109,0.4080,-86.50,-3.00,163.13,9.4877,-0.5165,0.2293,9.5045
11,3,1,3,1,21.046,21046,9.8300,-1.3100,0.1900,9.9187,0.0360,0.0153,0.3611,-83.00,-77.56,166.63,9.5328,-0.6211,0.2242,9.5556
11,3,1,3,1,21.177,21177,9.6200,-1.1700,0.0900,9.6913,0.0175,0.0164,-0.1058,-83.00,-78.69,166.50,9.5443,-0.6934,0.2065,9.5717
11,3,1,3,1,21.307,21307,9.2600,-1.2400,0.2900,9.3472,0.0229,-0.0229,0.1113,-82.25,-79.75,167.06,9.5068,-0.7654,0.2175,9.5401
11,3,1,3,1,21.480,21480,9.6400,-1.6600,0.2700,9.7856,-0.0273,-0.0207,0.2302,-80.94,-79.81,168.31,9.5244,-0.8833,0.2244,9.5679
11,3,1,3,1,21.611,21611,8.6900,-1.5500,0.2800,8.8316,-0.0273,-0.0491,0.0884,-79.25,-79.69,170.19,9.4144,-0.9712,0.2317,9.4672
11,3,1,3,1,21.741,21741,9.3800,-1.5200,0.5400,9.5177,0.0131,-0.0611,0.2563,-79.88,-76.88,169.44,9.4099,-1.0435,0.2724,9.4715
11,3,1,3,1,21.876,21876,9.9000,-2.4000,0.4800,10.1981,0.0175,-0.0513,0.3000,-76.88,-78.19,172.25,9.4745,-1.2223,0.2997,9.5577
11,3,1,3,1,22.008,22008,8.6600,-1.4500,0.5400,8.7971,0.0207,-0.0065,-0.0120,-77.31,-77.06,171.81,9.3671,-1.2523,0.3314,9.4563
11,3,1,3,1,22.139,22139,9.1900,-2.5900,0.6700,9.5715,0.0207,-0.0109,0.3316,-75.69,-78.31,173.25,9.3438,-1.4285,0.3760,9.4598
11,3,1,3,1,22.269,22269,7.6500,-2.0900,0.4300,7.9420,0.0120,0.0458,0.0120,-75.25,-78.50,173.63,9.1206,-1.5157,0.3831,9.2536
11,4,1,3,1,22.400,22400,9.4000,-3.1700,0.5700,9.9365,0.0436,-0.0055,0.2640,-72.06,-80.81,176.63,9.1574,-1.7337,0.4077,9.3290
11,4,1,3,1,22.572,22572,9.5600,-3.0600,0.5400,10.0523,0.0862,-0.0196,0.0055,-72.13,-81.75,176.19,9.2105,-1.9085,0.4252,9.4157
11,4,1,3,1,22.703,22703,8.9600,-2.9700,0.1900,9.4413,0.0622,-0.0524,0.1047,-72.31,-81.38,175.56,9.1775,-2.0484,0.3942,9.4115
11,4,1,3,1,22.833,22833,9.0800,-3.3600,0.5600,9.6979,0.0415,-0.0742,0.1265,-70.63,-81.44,176.63,9.1646,-2.2212,0.4160,9.4391
11,4,1,3,1,22.963,22963,8.7900,-3.1700,0.4800,9.3565,0.0131,-0.0742,-0.0840,-70.69,-79.88,176.13,9.1153,-2.3462,0.4245,9.4219
11,4,1,3,1,23.093,23093,8.7600,-3.2300,0.6000,9.3558,0.0044,-0.0545,0.0338,-70.63,-78.63,175.88,9.0684,-2.4627,0.4476,9.4075
11,4,1,3,1,23.223,23223,8.7800,-3.3100,0.6500,9.4057,-0.0218,-0.0229,-0.0338,-70.38,-78.00,176.06,9.0304,-2.5743,0.4743,9.4022
11,4,1,3,1,23.353,23353,8.8400,-3.2300,0.7100,9.4384,-0.0513,-0.0142,-0.0098,-70.50,-77.31,176.19,9.0053,-2.6607,0.5053,9.4038
11,4,1,3,1,23.483,23483,8.8800,-3.2400,0.7300,9.4808,-0.0611,0.0000,-0.0535,-70.56,-76.81,176.44,8.9888,-2.7371,0.5349,9.4115
11,4,1,3,1,23.656,23656,8.9000,-2.7100,0.7700,9.3353,-0.0774,0.0153,-0.0982,-71.50,-75.56,176.13,8.9771,-2.7335,0.5659,9.4011
11,4,1,3,1,23.786,23786,8.9200,-2.5500,0.7400,9.3068,-0.0502,0.0022,0.0425,-71.75,-75.00,176.31,8.9696,-2.7093,0.5889,9.3883
11,4,1,3,1,23.917,23917,9.0700,-3.1600,0.6700,9.6281,0.0120,0.0055,0.2007,-70.81,-75.63,177.38,8.9828,-2.7687,0.5995,9.4189
11,4,1,3,1,24.047,24047,8.6800,-2.9600,0.8200,9.2074,0.0087,0.0175,-0.3142,-71.50,-75.44,176.69,8.9429,-2.7939,0.6286,9.3903
11,4,1,3,1,24.183,24183,8.3700,-1.8000,0.3700,8.5694,0.0044,0.0098,-0.4516,-74.13,-73.13,173.88,8.8674,-2.6629,0.5945,9.2777
11,4,1,3,1,24.313,24313,9.7100,-2.0400,1.2200,9.9967,0.1014,-0.0033,-0.0524,-76.00,-71.69,171.63,8.9785,-2.5809,0.6769,9.3665
11,4,1,3,1,24.444,24444,9.1000,-2.1300,0.4200,9.3554,0.1254,-0.0076,-0.2869,-76.50,-70.81,170.13,8.9945,-2.5214,0.6431,9.3633
11,4,1,3,1,24.575,24575,9.0800,-1.8800,0.6500,9.2953,0.0393,0.0240,-0.2836,-78.56,-68.69,167.38,9.0057,-2.4369,0.6440,9.3518
11,4,1,3,1,24.748,24748,9.1000,-1.8800,0.6100,9.3122,-0.0142,0.0251,-0.0316,-79.13,-68.81,166.69,9.0182,-2.3635,0.6395,9.3446
11,4,1,3,1,24.878,24878,9.6100,-1.4100,0.7300,9.7403,-0.0524,0.0502,-0.2662,-80.25,-67.81,166.00,9.0962,-2.2379,0.6514,9.3900
11,4,1,3,1,25.009,25009,9.3800,-1.0000,0.3300,9.4389,-0.0556,0.0720,-0.2738,-81.88,-65.81,164.75,9.1336,-2.0748,0.6091,9.3860
11,4,1,3,1,25.139,25139,9.2000,-0.3800,0.4700,9.2198,-0.0513,0.0578,-0.3207,-84.63,-4.56,162.44,9.1423,-1.8514,0.5908,9.3466
11,4,1,3,1,25.269,25269,9.5600,-0.7600,0.5600,9.6065,-0.0022,0.0109,0.2487,-84.88,-4.38,162.44,9.1974,-1.7076,0.5867,9.3729
11,4,1,3,1,25.399,25399,9.9100,-0.7800,0.1700,9.9421,-0.0251,0.0644,-0.1124,-84.31,-5.13,163.31,9.2913,-1.5854,0.5318,9.4405
11,4,1,3,1,25.529,25529,9.6700,-0.5500,0.4700,9.6970,-0.0098,0.0829,-0.1353,-85.88,-3.69,162.06,9.3412,-1.4489,0.5236,9.4674
11,4,1,3,1,25.659,25659,9.4900,-0.4900,-0.0900,9.5031,-0.0120,0.0720,-0.0295,-86.50,-3.19,161.63,9.3608,-1.3226,0.4428,9.4641
11,4,1,3,1,25.837,25837,9.4700,-0.3900,0.1100,9.4787,-0.0404,0.0229,0.0011,-87.44,-2.44,161.13,9.3752,-1.1997,0.3989,9.4600
11,4,1,3,1,25.967,25967,9.1400,-0.0200,-0.2200,9.1427,-0.0458,0.0502,-0.1527,-87.69,-2.13,161.19,9.3442,-1.0442,0.3174,9.4077
11,4,1,3,1,26.099,26099,9.8900,-0.1700,0.0300,9.8915,-0.0273,0.0404,0.0665,-88.38,-1.56,160.88,9.4161,-0.9290,0.2795,9.4660
11,4,1,3,1,26.229,26229,10.7900,-0.4600,0.0000,10.7998,-0.0218,-0.0164,0.1985,-87.31,-2.63,162.13,9.5972,-0.8672,0.2427,9.6393
11,4,1,3,1,26.360,26360,8.7400,-0.1200,-0.0200,8.7408,-0.0109,-0.0425,-0.3229,-87.44,-2.50,162.06,9.4842,-0.7688,0.2081,9.5176
11,4,1,3,1,26.490,26490,9.7500,-0.0300,0.0600,9.7502,0.0098,-0.0338,0.0513,-88.75,-1.06,160.63,9.5192,-0.6714,0.1885,9.5447
11,4,1,3,1,26.620,26620,9.0400,-0.2300,0.0700,9.0432,0.0196,-0.0654,0.1145,-87.50,-2.31,161.75,9.4561,-0.6132,0.1729,9.4775
11,4,1,3,1,26.751,26751,8.9000,-0.3000,0.1400,8.9062,0.0436,-0.0622,-0.0044,-87.50,-2.06,161.25,9.3828,-0.5720,0.1686,9.4017
11,4,1,3,1,26.923,26923,10.1200,-0.5100,0.5400,10.1472,0.0524,-0.0513,0.0229,-87.00,-2.31,160.94,9.4799,-0.5638,0.2175,9.4992
11,4,1,3,1,27.053,27053,11.1000,-0.4200,0.3600,11.1138,0.0131,-0.0065,0.0982,-86.56,-2.69,161.13,9.6934,-0.5449,0.2363,9.7116
11,4,1,3,1,27.183,27183,9.7700,-0.8300,0.4700,9.8165,-0.0065,0.0415,-0.0687,-86.38,-3.00,161.38,9.7035,-0.5824,0.2671,9.7246
11,4,1,3,1,27.313,27313,9.2000,-0.6200,0.1300,9.2218,-0.0600,0.0382,0.0851,-87.00,-2.44,161.19,9.6372,-0.5874,0.2490,9.6583
11,4,1,3,1,27.443,27443,10.6000,-1.0400,0.3400,10.6563,-0.0949,0.0218,0.3436,-85.06,-4.69,163.94,9.7640,-0.6470,0.2610,9.7889
11,4,1,3,1,27.573,27573,9.5000,-0.4300,0.1100,9.5104,-0.0665,-0.0262,-0.2782,-85.25,-4.44,164.38,9.7292,-0.6184,0.2411,9.7519
11,4,1,3,1,27.703,27703,8.7800,-0.1900,0.2000,8.7843,-0.0011,-0.0316,0.1080,-86.44,-3.06,163.25,9.6042,-0.5620,0.2357,9.6235
11,4,1,3,1,27.833,27833,10.0200,-1.0900,0.4000,10.0870,0.0349,-0.0305,0.5029,-83.63,-6.06,166.00,9.6590,-0.6315,0.2574,9.6830
11,4,1,3,1,28.006,28006,9.1300,-1.0200,0.3100,9.1920,0.0207,-0.0087,-0.1222,-82.44,-73.81,166.88,9.5893,-0.6827,0.2643,9.6172
11,4,1,3,1,28.137,28137,9.2000,-1.2700,0.1600,9.2886,0.0436,0.0055,0.3142,-81.75,-75.50,167.38,9.5380,-0.7601,0.2505,9.5715
11,4,1,3,1,28.267,28267,9.4400,-1.7800,0.4300,9.6160,0.0393,-0.0185,0.1593,-79.94,-78.50,168.88,9.5251,-0.8945,0.2742,9.5709
11,4,1,3,1,28.397,28397,9.4600,-1.8200,0.4200,9.6426,-0.0055,-0.0436,0.1309,-79.06,-78.13,169.63,9.5165,-1.0165,0.2934,9.5751
11,4,1,3,1,28.527,28527,7.9600,-1.6900,0.3600,8.1454,-0.0142,-0.0862,-0.0087,-77.63,-77.25,170.88,9.3114,-1.1052,0.3022,9.3816
11,4,1,3,1,28.657,28657,10.4100,-2.0800,0.8600,10.6505,-0.0305,-0.0709,0.8301,-78.38,-73.81,170.13,9.4561,-1.2337,0.3757,9.5437
11,4,1,3,1,28.787,28787,9.2400,-2.3900,0.5100,9.5577,-0.0284,-0.0349,-0.0589,-75.88,-74.63,172.81,9.4277,-1.3861,0.3934,9.5371
11,4,1,3,1,28.917,28917,9.4800,-1.9500,0.6300,9.6990,-0.0676,-0.0131,0.1014,-75.63,-74.13,173.25,9.4346,-1.4604,0.4246,9.5564
11,4,1,3,1,29.092,29092,9.3300,-2.6400,1.1800,9.7679,0.0862,-0.0022,0.0044,-75.44,-74.38,173.31,9.4208,-1.6158,0.5241,9.5727
11,4,1,3,1,29.223,29223,8.9100,-1.6900,0.3000,9.0738,-0.0240,0.0164,-0.2018,-76.56,-73.13,172.13,9.3535,-1.6256,0.4946,9.5066
11,4,1,3,1,29.357,29357,9.2200,-2.2200,0.6300,9.5044,0.0360,0.0469,0.0665,-76.81,-74.25,171.81,9.3359,-1.7039,0.5124,9.5039
11,4,1,3,1,29.487,29487,8.9500,-2.0900,0.3500,9.1975,-0.0185,0.0425,-0.0949,-77.19,-75.19,171.63,9.2850,-1.7548,0.4910,9.4622
11,4,1,3,1,29.618,29618,10.0200,-2.5400,0.5500,10.3515,-0.0076,0.0600,0.3185,-76.31,-78.88,173.00,9.3819,-1.8583,0.4988,9.5771
11,4,1,3,1,29.749,29749,9.3300,-2.0700,0.5400,9.5721,0.0589,-0.0098,-0.1778,-77.38,-78.63,172.00,9.3750,-1.8862,0.5042,9.5762
11,4,1,3,1,29.879,29879,9.1800,-2.3400,0.6800,9.4979,0.0131,-0.0360,-0.1004,-77.25,-77.94,171.75,9.3493,-1.9460,0.5274,9.5643
11,4,1,3,1,30.009,30009,9.0800,-2.1900,0.6300,9.3616,0.0044,0.0022,-0.0578,-77.88,-76.94,170.94,9.3139,-1.9781,0.5409,9.5370
11,4,1,3,1,30.182,30182,9.2700,-2.0100,0.4800,9.4975,0.0447,0.0284,-0.0229,-78.00,-77.75,170.63,9.3081,-1.9823,0.5329,9.5317
11,4,1,3,1,30.312,30312,8.9100,-1.8500,0.2800,9.1043,0.0098,0.0109,-0.1233,-78.44,-77.88,170.06,9.2556,-1.9649,0.4996,9.4751
11,4,1,3,1,30.442,30442,8.8300,-1.4300,0.2100,8.9475,0.0251,0.0218,-0.1713,-79.69,-77.25,168.69,9.1995,-1.8944,0.4614,9.4039
11,4,1,3,1,30.572,30572,9.9400,-1.8900,0.5300,10.1320,0.0578,0.0295,0.2029,-79.69,-79.00,168.50,9.2971,-1.8938,0.4704,9.4997
11,4,1,3,1,30.702,30702,8.3500,-1.5400,0.3600,8.4985,0.0055,-0.0284,-0.3731,-79.81,-78.69,168.13,9.1723,-1.8472,0.4559,9.3676
11,4,1,3,1,30.832,30832,9.5100,-1.4200,0.5100,9.6289,0.0022,-0.0436,-0.1625,-82.50,-73.13,165.25,9.2168,-1.7909,0.4630,9.4006
11,4,1,3,1,30.962,30962,9.8600,-0.8900,0.6400,9.9208,-0.0262,-0.0916,-0.0644,-82.50,-67.56,165.06,9.3016,-1.6722,0.4863,9.4632
11,4,1,3,1,31.092,31092,8.7700,-0.8600,0.4100,8.8216,0.0185,0.0011,-0.2694,-83.94,-5.00,163.19,9.2315,-1.5652,0.4763,9.3754
11,4,1,3,1,31.265,31265,9.8400,-0.7500,0.7800,9.8993,0.0207,0.0600,-0.0229,-84.94,-4.31,162.38,9.3117,-1.4577,0.5163,9.4392
11,4,1,3,1,31.395,31395,9.3700,-0.5800,0.1000,9.3885,-0.0065,0.0589,-0.3022,-86.25,-2.88,160.94,9.3194,-1.3421,0.4614,9.4268
11,4,1,3,1,31.526,31526,9.2700,-0.2900,0.6000,9.2939,-0.0131,0.0295,-0.1167,-87.63,-1.25,159.38,9.3129,-1.2034,0.4797,9.4026
11,4,1,3,1,31.656,31656,9.1400,-0.0400,-0.0100,9.1401,-0.0175,0.0709,-0.0360,-88.25,-0.63,158.94,9.2901,-1.0501,0.4152,9.3585
11,4,1,3,1,31.786,31786,9.7300,-0.1700,-0.0800,9.7318,0.0273,0.0862,0.0567,-88.63,-1.00,159.25,9.3481,-0.9342,0.3499,9.4011
11,4,1,3,1,31.916,31916,10.0500,0.1200,0.1200,10.0514,0.0327,0.0524,-0.4309,-89.38,0.44,157.44,9.4406,-0.7952,0.3196,9.4794
11,4,1,3,1,32.046,32046,9.6300,0.5100,0.0300,9.6435,0.0338,-0.0022,-0.1505,-86.88,3.06,154.63,9.4655,-0.6232,0.2815,9.4902
11,4,1,3,1,32.176,32176,10.1900,0.2600,0.1800,10.1949,-0.0142,-0.0535,0.1396,-86.88,3.06,154.56,9.5610,-0.5069,0.2681,9.5782
11,4,1,3,1,32.349,32349,11.2100,0.3000,0.0800,11.2143,-0.0458,-0.0316,0.1538,-88.94,0.56,157.63,9.7783,-0.4005,0.2433,9.7895
11,4,1,3,1,32.480,32480,8.7500,0.6700,0.2400,8.7789,-0.0589,-0.0436,-0.5421,-86.94,2.81,155.69,9.6428,-0.2595,0.2429,9.6493
11,4,1,3,1,32.615,32615,8.9500,0.7500,0.1400,8.9825,-0.0491,-0.0687,0.3011,-85.50,4.19,154.75,9.5515,-0.1264,0.2293,9.5551
11,4,1,3,1,32.746,32746,10.3900,0.4600,0.2300,10.4027,0.0022,-0.0185,0.2640,-87.94,0.94,158.19,9.6620,-0.0492,0.2294,9.6648
11,4,1,3,1,32.877,32877,10.2400,0.1700,0.2400,10.2442,0.0196,0.0196,0.0436,-88.13,0.69,158.50,9.7382,-0.0203,0.2308,9.7409
11,4,1,3,1,33.007,33007,10.2300,-0.1300,0.3400,10.2365,0.0316,0.0240,0.1069,-88.44,-0.25,159.31,9.8030,-0.0347,0.2452,9.8061
11,5,1,3,1,33.137,33137,9.4900,-0.1600,0.2500,9.4946,-0.0196,-0.0131,-0.0087,-88.50,-0.06,159.19,9.7617,-0.0512,0.2458,9.7650
11,5,1,3,1,33.268,33268,9.6600,-0.3100,0.4100,9.6737,-0.0535,-0.0447,0.2280,-87.81,-1.31,160.69,9.7483,-0.0853,0.2675,9.7524
11,5,1,3,1,33.440,33440,9.3300,-0.3000,0.2600,9.3384,-0.0240,0.0044,-0.0065,-86.81,-2.44,162.25,9.6932,-0.1136,0.2665,9.6975
11,5,1,3,1,33.570,33570,9.7600,-0.7700,0.4700,9.8016,-0.0469,0.0273,0.1625,-86.38,-3.00,163.00,9.7020,-0.2001,0.2933,9.7085
11,5,1,3,1,33.700,33700,9.7300,-0.5700,0.5200,9.7605,-0.0535,-0.0033,-0.0720,-85.56,-3.94,164.31,9.7057,-0.2489,0.3232,9.7143
11,5,1,3,1,33.830,33830,8.7100,0.0400,0.2300,8.7131,-0.0382,-0.0153,-0.2073,-87.13,-2.06,162.88,9.5745,-0.2108,0.3109,9.5818
11,5,1,3,1,33.960,33960,9.3500,-0.4100,0.2900,9.3635,0.0076,0.0055,0.2956,-86.75,-2.56,163.44,9.5449,-0.2370,0.3081,9.5528
11,5,1,3,1,34.090,34090,9.8400,-0.8400,0.2200,9.8782,-0.0087,0.0415,0.2062,-84.81,-4.81,165.69,9.5838,-0.3165,0.2965,9.5936
11,5,1,3,1,34.220,34220,9.5400,-0.6900,0.2600,9.5685,-0.0055,-0.0076,0.0349,-84.44,-5.25,166.19,9.5780,-0.3657,0.2917,9.5894
11,5,1,3,1,34.350,34350,9.5800,-0.9400,0.2600,9.6295,0.0185,-0.0469,0.2771,-83.13,-6.56,167.44,9.5783,-0.4414,0.2875,9.5928
11,5,1,3,1,34.523,34523,8.3100,-1.4600,0.0700,8.4376,0.0316,-0.0949,0.1200,-80.81,-74.06,169.31,9.4112,-0.5756,0.2589,9.4323
11,5,1,3,1,34.654,34654,8.9200,-1.5600,0.6400,9.0780,0.0011,-0.0676,-0.1876,-81.94,-67.44,167.75,9.3464,-0.7053,0.3091,9.3781
11,5,1,3,1,34.785,34785,9.6500,-1.3400,0.3900,9.7504,-0.0033,-0.0698,0.1167,-80.56,-66.50,168.81,9.3864,-0.7890,0.3198,9.4250
11,5,1,3,1,34.918,34918,9.2900,-1.6000,0.9900,9.4786,-0.0207,-0.0065,-0.0109,-80.56,-65.06,168.69,9.3737,-0.8958,0.4081,9.4253
11,5,1,3,1,35.049,35049,9.1700,-1.5700,0.6400,9.3254,0.0229,0.0142,0.1484,-80.00,-66.44,169.31,9.3469,-0.9847,0.4386,9.4088
11,5,1,3,1,35.182,35182,9.2100,-1.8100,0.6500,9.4087,-0.0142,0.0218,0.1102,-78.69,-69.88,170.75,9.3288,-1.0934,0.4665,9.4043
11,5,1,3,1,35.313,35313,9.3200,-2.0300,0.6800,9.5627,-0.0262,0.0185,0.0120,-78.69,-70.81,170.88,9.3277,-1.2169,0.4946,9.4197
11,5,1,3,1,35.443,35443,9.3100,-1.8600,0.5100,9.5077,0.0142,0.0011,-0.0044,-78.44,-71.44,171.19,9.3253,-1.3016,0.4966,9.4288
11,5,1,3,1,35.616,35616,9.1100,-2.0400,0.5500,9.3518,0.0349,-0.0055,0.0185,-78.56,-71.69,170.88,9.2970,-1.3989,0.5037,9.4151
11,5,1,3,1,35.746,35746,9.0300,-2.1200,0.6800,9.3004,-0.0120,-0.0185,-0.2389,-78.38,-71.63,170.88,9.2618,-1.4939,0.5269,9.3963
11,5,1,3,1,35.876,35876,8.7000,-0.4300,0.5700,8.7292,-0.0720,0.0044,-0.6643,-81.88,-61.88,167.31,9.1878,-1.3537,0.5326,9.3022
11,5,1,3,1,36.006,36006,9.3300,-0.8200,0.4300,9.3758,0.0327,0.1254,0.3338,-82.81,-63.69,166.88,9.2065,-1.2834,0.5191,9.3100
11,5,1,3,1,36.136,36136,9.8100,-1.5800,0.4400,9.9462,0.0665,0.0796,0.1080,-80.75,-75.06,169.00,9.2860,-1.3225,0.5087,9.3935
11,5,1,3,1,36.266,36266,9.5600,-1.3500,0.3400,9.6608,0.0851,0.0436,-0.0993,-81.44,-77.44,167.94,9.3221,-1.3261,0.4864,9.4285
11,5,1,3,1,36.396,36396,9.2600,-1.4500,0.4600,9.3841,0.1004,-0.0087,0.0524,-81.25,-79.00,167.50,9.3139,-1.3424,0.4829,9.4226
11,5,1,3,1,36.526,36526,8.8000,-1.2900,0.3200,8.8998,0.0447,-0.0654,-0.1014,-81.75,-76.13,166.38,9.2462,-1.3355,0.4615,9.3536
11,5,1,3,1,36.699,36699,9.5700,-1.1400,0.3200,9.6430,0.0415,-0.0033,0.1058,-81.00,-75.50,166.63,9.2889,-1.3098,0.4428,9.3912
11,5,1,3,1,36.829,36829,9.4200,-1.3600,0.3200,9.5230,0.0513,0.0185,-0.2127,-81.69,-75.06,165.63,9.3062,-1.3164,0.4266,9.4085
11,5,1,3,1,36.959,36959,9.0600,-1.2600,0.2000,9.1494,0.0229,0.0284,0.0404,-82.31,-75.25,164.75,9.2737,-1.3089,0.3968,9.3740
11,5,1,3,1,37.089,37089,9.6500,-1.1700,0.2200,9.7232,0.0218,0.0153,-0.0774,-82.13,-77.06,164.81,9.3233,-1.2906,0.3735,9.4196
11,5,1,3,1,37.219,37219,9.0700,-1.2400,0.3300,9.1603,-0.0371,0.0164,-0.2869,-83.69,-6.00,163.25,9.2899,-1.2840,0.3678,9.3854
11,5,1,3,1,37.349,37349,9.3400,-0.6100,0.1900,9.3618,-0.0807,0.0295,0.0720,-84.31,-5.38,163.13,9.2965,-1.1952,0.3443,9.3794
11,5,1,3,1,37.479,37479,9.3500,-0.6600,0.0400,9.3734,-0.0709,0.0654,-0.1244,-84.44,-5.31,163.63,9.3036,-1.1246,0.3042,9.3762
11,5,1,3,1,37.609,37609,9.3300,-0.5600,0.0700,9.3471,-0.0218,0.0709,0.1374,-85.00,-4.88,163.56,9.3071,-1.0502,0.2734,9.3701
11,5,1,3,1,37.782,37782,9.9200,-1.2100,0.1100,9.9941,0.0207,0.0044,-0.0295,-83.69,-6.25,164.88,9.3878,-1.0713,0.2518,9.4521
11,5,1,3,1,37.913,37913,9.5400,-1.0000,0.0700,9.5925,0.0087,-0.0022,-0.1407,-84.69,-5.25,163.81,9.4079,-1.0619,0.2279,9.4704
11,5,1,3,1,38.044,38044,9.5800,-0.5900,0.0500,9.5983,0.0207,0.0065,-0.1287,-85.50,-4.38,162.88,9.4306,-0.9997,0.2044,9.4856
11,5,1,3,1,38.178,38178,10.0400,-0.6600,0.1100,10.0623,0.0196,0.0284,-0.0654,-86.38,-3.56,161.81,9.5109,-0.9549,0.1920,9.5606
11,5,1,3,1,38.310,38310,9.7700,-0.6600,-0.0400,9.7923,-0.0055,0.0109,0.0055,-86.44,-3.50,161.81,9.5450,-0.9161,0.1614,9.5902
11,5,1,3,1,38.441,38441,9.3500,-0.5500,-0.0600,9.3664,-0.0044,0.0120,-0.1276,-87.06,-177.06,161.19,9.5193,-0.8678,0.1322,9.5597
11,5,1,3,1,38.571,38571,9.5700,-0.3500,-0.1200,9.5771,-0.0033,0.0044,0.0622,-87.44,-177.44,160.81,9.5260,-0.7996,0.0990,9.5600
11,5,1,3,1,38.701,38701,10.3500,-0.4300,-0.0700,10.3592,0.0087,0.0131,0.0785,-86.88,-176.88,161.31,9.6346,-0.7509,0.0767,9.6641
11,5,1,3,1,38.874,38874,10.5400,-1.0000,-0.1100,10.5879,-0.0087,0.0011,0.1407,-85.88,-175.88,162.31,9.7539,-0.7837,0.0521,9.7855
11,5,1,3,1,39.004,39004,10.1000,-0.8900,-0.0300,10.1392,-0.0513,-0.0611,-0.0251,-85.56,-175.56,162.88,9.7995,-0.7977,0.0413,9.8320
11,5,1,3,1,39.134,39134,9.5900,-0.6800,-0.0100,9.6141,0.0022,-0.1134,0.1811,-85.00,-4.94,163.56,9.7719,-0.7822,0.0345,9.8032
11,5,1,3,1,39.264,39264,9.5300,-1.0600,0.2800,9.5929,0.0185,-0.1004,0.0425,-83.81,-6.00,164.44,9.7400,-0.8188,0.0669,9.7746
11,5,1,3,1,39.394,39394,9.3500,-0.8300,0.2500,9.3901,-0.0153,-0.0611,0.0393,-83.75,-5.88,164.25,9.6886,-0.8203,0.0910,9.7237
11,5,1,3,1,39.524,39524,9.5900,-1.3700,0.3400,9.6933,-0.0033,-0.0273,0.2858,-82.31,-73.25,165.56,9.6756,-0.8927,0.1238,9.7175
11,5,1,3,1,39.654,39654,9.2500,-1.2100,0.3700,9.3361,-0.0513,-0.0273,0.1691,-80.69,-74.63,167.44,9.6195,-0.9345,0.1563,9.6661
11,5,1,3,1,39.784,39784,8.5700,-1.1800,0.5000,8.6653,0.0022,-0.0229,0.1756,-79.88,-75.25,168.38,9.4812,-0.9669,0.2016,9.5325
11,5,1,3,1,39.957,39957,9.2400,-1.6200,0.7500,9.4109,0.0491,-0.0578,0.0807,-78.69,-74.88,169.19,9.4494,-1.0529,0.2738,9.5119
11,5,1,3,1,40.087,40087,8.4500,-2.4300,0.6600,8.8172,-0.0044,-0.0753,0.3414,-77.25,-74.00,170.25,9.3177,-1.2344,0.3247,9.4048
11,5,1,3,1,40.218,40218,8.5700,-2.3100,0.7900,8.9110,-0.0404,-0.0524,-0.2094,-76.00,-73.50,171.44,9.2192,-1.3761,0.3860,9.3293
11,5,1,3,1,40.349,40349,8.6300,-2.2700,0.3100,8.9289,-0.0807,-0.0665,0.0862,-75.94,-71.06,171.63,9.1416,-1.4939,0.3760,9.2705
11,6,1,3,1,40.479,40479,9.1500,-2.3700,0.8500,9.4901,-0.0109,0.0273,0.1222,-75.31,-71.50,172.50,9.1427,-1.6094,0.4385,9.2936
11,6,1,3,1,40.610,40610,8.9900,-2.1400,0.7300,9.2700,0.0153,0.0840,-0.1298,-75.75,-72.69,172.19,9.1226,-1.6793,0.4769,9.2881
11,6,1,3,1,40.740,40740,9.0500,-2.5200,0.7800,9.4266,0.0207,0.0545,0.1320,-75.63,-74.63,172.31,9.1130,-1.7901,0.5168,9.3015
11,6,1,3,1,40.871,40871,9.1700,-2.6200,0.3900,9.5449,0.0033,0.0425,0.0905,-74.38,-77.13,173.75,9.1205,-1.8994,0.5001,9.3296
11,6,1,3,1,41.047,41047,9.0600,-2.5500,0.4400,9.4223,0.0262,0.0109,0.0055,-74.38,-78.38,173.75,9.1125,-1.9852,0.4922,9.3392
11,6,1,3,1,41.177,41177,9.1400,-2.8100,0.3900,9.5702,0.0175,-0.0120,0.0327,-73.81,-79.13,174.19,9.1162,-2.0939,0.4787,9.3658
11,6,1,3,1,41.308,41308,8.9700,-2.6700,0.4800,9.3712,0.0055,-0.0229,-0.0818,-73.88,-78.69,174.00,9.0969,-2.1698,0.4789,9.3643
11,6,1,3,1,41.438,41438,8.8300,-2.8100,0.6300,9.2877,0.0349,-0.0033,0.0687,-73.69,-78.31,173.94,9.0617,-2.2541,0.4988,9.3512
11,6,1,3,1,41.568,41568,8.8300,-2.7400,0.6400,9.2675,0.0218,0.0382,-0.3545,-74.25,-78.38,173.19,9.0312,-2.3182,0.5174,9.3383
11,6,1,3,1,41.714,41714,8.3100,-1.8800,0.4300,8.5309,0.0404,0.0807,-0.2956,-77.50,-77.94,170.00,8.9362,-2.2604,0.5059,9.2315
11,6,1,3,1,41.848,41848,9.0800,-1.5000,0.4300,9.2131,0.0305,0.0654,-0.2793,-79.63,-78.75,167.81,8.9551,-2.1602,0.4959,9.2253
11,6,1,3,1,41.979,41979,9.4400,-1.4700,-0.1100,9.5544,0.0164,0.0611,0.0916,-80.81,-80.75,166.63,9.0190,-2.0693,0.4161,9.2627
11,6,1,3,1,42.152,42152,9.8500,-1.2200,0.3200,9.9304,0.0131,-0.0175,-0.1396,-80.50,-82.44,167.00,9.1285,-1.9574,0.4034,9.3447
11,6,1,3,1,42.282,42282,10.0400,-2.1700,0.2100,10.2740,0.0316,-0.0382,0.2094,-80.63,-81.06,166.56,9.2486,-1.9854,0.3779,9.4669
11,6,1,3,1,42.412,42412,8.3700,-1.1200,0.1700,8.4463,-0.0087,-0.0207,-0.4483,-81.06,-79.06,166.06,9.1328,-1.8713,0.3505,9.3292
11,6,1,3,1,42.542,42542,9.7300,-1.6200,0.3100,9.8688,-0.0098,0.0120,0.1298,-82.94,-76.25,164.13,9.2115,-1.8382,0.3452,9.3995
11,6,1,3,1,42.672,42672,9.6600,-1.3500,0.3100,9.7588,-0.0524,0.0349,-0.0600,-81.44,-79.31,165.88,9.2706,-1.7739,0.3405,9.4450
11,6,1,3,1,42.802,42802,9.6700,-1.1900,0.1800,9.7446,0.0055,0.0338,-0.0840,-82.44,-79.75,165.00,9.3233,-1.6969,0.3194,9.4818
11,6,1,3,1,42.932,42932,8.2900,-1.1900,0.1900,8.3771,0.0436,0.0327,-0.2203,-83.00,-81.13,164.31,9.1871,-1.6301,0.3023,9.3355
11,6,1,3,1,43.062,43062,10.0300,-1.1200,0.3300,10.0977,0.0153,0.0055,0.2313,-83.63,-6.25,163.56,9.2982,-1.5629,0.3060,9.4336
11,6,1,3,1,43.235,43235,9.1300,-1.0100,0.0500,9.1858,-0.0120,0.0142,-0.1756,-82.94,-82.75,164.31,9.2760,-1.4901,0.2722,9.3989
11,6,1,3,1,43.366,43366,9.3700,-1.1100,-0.1600,9.4369,0.0207,0.0338,0.1920,-83.19,-6.75,164.13,9.2884,-1.4400,0.2153,9.4018
11,6,1,3,1,43.496,43496,10.5800,-1.4000,0.0800,10.6725,0.0164,0.0142,0.0469,-82.06,-86.75,165.13,9.4586,-1.4347,0.1975,9.5688
11,6,1,3,1,43.628,43628,8.7900,-1.2100,0.0400,8.8730,0.0218,-0.0207,-0.1364,-82.00,-86.44,165.06,9.3705,-1.4051,0.1767,9.4769
11,6,1,3,1,43.759,43759,8.7600,-1.0200,-0.1100,8.8199,0.0022,-0.0131,-0.1047,-83.69,-6.19,163.25,9.2900,-1.3544,0.1389,9.3893
11,6,1,3,1,43.894,43894,10.3400,-1.0700,0.1800,10.3968,-0.0164,-0.0153,0.1822,-82.56,-85.31,164.44,9.4284,-1.3169,0.1443,9.5210
11,6,1,3,1,44.025,44025,9.0300,-1.3900,0.0100,9.1364,-0.0240,-0.0218,-0.0109,-82.19,-83.94,164.94,9.3759,-1.3265,0.1266,9.4701
11,6,1,3,1,44.155,44155,9.7100,-1.1500,0.2700,9.7816,0.0011,-0.0273,-0.1505,-83.00,-82.13,164.13,9.4199,-1.3033,0.1455,9.5108
11,6,1,3,1,44.328,44328,9.9100,-0.9800,0.1000,9.9588,0.0207,-0.0436,-0.0829,-84.00,-5.81,162.94,9.4845,-1.2607,0.1395,9.5689
11,6,1,3,1,44.458,44458,10.0500,-1.0800,0.3300,10.1132,0.0022,-0.0120,-0.0982,-84.50,-5.19,162.31,9.5590,-1.2369,0.1646,9.6401
11,6,1,3,1,44.588,44588,10.3500,-1.0300,0.3300,10.4064,-0.0164,0.0120,0.1047,-84.63,-5.13,162.25,9.6633,-1.2096,0.1864,9.7405
11,6,1,3,1,44.718,44718,10.3000,-1.6500,0.3100,10.4359,-0.0251,0.0425,0.1156,-83.50,-6.31,163.56,9.7472,-1.2676,0.2027,9.8313
11,6,1,3,1,44.848,44848,9.5300,-1.0300,0.2100,9.5878,-0.0622,0.0644,-0.1767,-83.56,-6.31,163.94,9.7185,-1.2363,0.2037,9.7990
11,6,1,3,1,44.978,44978,8.8700,-0.5700,0.0800,8.8887,-0.0916,0.0327,0.1058,-84.69,-5.25,163.56,9.6067,-1.1485,0.1874,9.6770
11,6,1,3,1,45.108,45108,9.7800,-1.1000,0.0700,9.8419,-0.0295,0.0076,0.4080,-81.88,-85.94,166.81,9.6296,-1.1421,0.1719,9.6986
11,6,1,3,1,45.238,45238,9.4300,-1.1300,-0.0400,9.4975,-0.0022,-0.0338,-0.0829,-81.56,-85.56,167.19,9.6033,-1.1405,0.1440,9.6718
11,6,1,3,1,45.411,45411,9.4000,-1.4000,0.1800,9.5054,0.0480,-0.0502,0.2563,-80.75,-84.19,167.63,9.5765,-1.1747,0.1487,9.6494
11,6,1,3,1,45.541,45541,9.0800,-1.8300,0.4100,9.2716,0.0218,-0.0589,0.2203,-79.13,-82.94,168.94,9.5111,-1.2611,0.1832,9.5960
11,6,1,3,1,45.671,45671,9.3300,-2.0900,0.3000,9.5659,-0.0185,-0.0338,0.1724,-77.38,-81.94,170.50,9.4872,-1.3703,0.1986,9.5877
11,6,1,3,1,45.801,45801,9.2200,-2.4400,0.3800,9.5450,0.0164,-0.0676,0.4385,-75.31,-82.06,172.56,9.4520,-1.5113,0.2225,9.5746
11,6,1,3,1,45.931,45931,7.8500,-2.5200,0.3300,8.2512,0.0251,-0.1178,-0.0044,-73.56,-80.44,173.88,9.2409,-1.6442,0.2366,9.3890
11,6,1,3,1,46.061,46061,8.1000,-3.1100,0.3100,8.6821,-0.0338,-0.0425,0.2280,-72.63,-79.38,174.50,9.0905,-1.8373,0.2463,9.2776
11,6,1,3,1,46.191,46191,8.7600,-2.9500,0.1800,9.2451,0.0055,0.0273,0.0916,-71.13,-79.88,176.13,9.0470,-1.9840,0.2376,9.2650
11,7,1,3,1,46.321,46321,8.9000,-3.1200,0.4500,9.4418,0.0142,0.0556,0.0185,-70.81,-81.81,176.56,9.0276,-2.1337,0.2656,9.2801
11,7,1,3,1,46.494,46494,8.7200,-3.3000,0.2000,9.3257,0.0393,-0.0011,0.0862,-70.56,-82.63,176.63,8.9871,-2.2874,0.2569,9.2772
11,7,1,3,1,46.624,46624,9.0700,-3.3200,0.5600,9.6748,0.0251,-0.0131,-0.1036,-70.31,-82.81,176.63,8.9980,-2.4234,0.2969,9.3234
11,7,1,3,1,46.754,46754,8.7700,-3.2500,0.4000,9.3614,-0.0273,-0.0185,0.0524,-70.75,-82.19,176.13,8.9680,-2.5324,0.3104,9.3238
11,7,1,3,1,46.884,46884,8.8500,-3.2000,0.3800,9.4184,-0.0535,0.0142,0.0196,-69.94,-82.19,177.19,8.9524,-2.6203,0.3196,9.3335
11,7,1,3,1,47.014,47014,8.7200,-3.2400,0.4300,9.3124,-0.0720,0.0316,0.0993,-69.75,-82.19,177.88,8.9218,-2.7020,0.3342,9.3280
11,7,1,3,1,47.144,47144,8.8600,-3.1200,0.4000,9.4018,-0.0458,0.0251,-0.0644,-69.50,-82.50,178.63,8.9136,-2.7571,0.3428,9.3366
11,7,1,3,1,47.274,47274,8.9200,-2.9600,0.5200,9.4127,-0.0087,0.0022,-0.0993,-70.50,-82.06,177.75,8.9145,-2.7838,0.3662,9.3462
11,7,1,3,1,47.404,47404,8.8700,-2.7100,0.3700,9.2821,0.0055,0.0295,-0.1156,-71.44,-82.00,176.94,8.9086,-2.7741,0.3667,9.3378
11,7,1,3,1,47.577,47577,8.4700,-3.0100,0.2200,8.9916,0.0589,0.0709,0.0185,-70.69,-83.75,177.56,8.8508,-2.8052,0.3474,9.2912
11,7,1,3,1,47.707,47707,8.9200,-3.1600,0.4900,9.4759,0.0622,0.0676,-0.2476,-71.69,-85.19,176.38,8.8599,-2.8519,0.3662,9.3148
11,7,1,3,1,47.837,47837,9.7800,-2.8800,0.2500,10.1983,0.0229,0.0207,-0.1364,-73.31,-85.88,174.56,8.9812,-2.8556,0.3508,9.4308
11,7,1,3,1,47.967,47967,8.8200,-2.2900,0.2000,9.1146,-0.0404,-0.0262,-0.2138,-74.19,-85.13,173.75,8.9599,-2.7811,0.3310,9.3875
11,7,1,3,1,48.097,48097,8.8200,-2.1600,0.0600,9.0808,-0.0022,-0.0033,0.0044,-74.19,-84.50,173.81,8.9415,-2.6992,0.2953,9.3447
11,7,1,3,1,48.227,48227,9.3700,-2.2800,0.0300,9.6435,-0.0196,0.0251,-0.2334,-75.69,-84.69,172.44,8.9980,-2.6440,0.2603,9.3820
11,7,1,3,1,48.357,48357,8.5300,-1.7000,0.6400,8.7213,-0.0022,0.0055,-0.4909,-77.69,-84.06,170.38,8.9363,-2.5196,0.3103,9.2899
11,7,1,3,1,48.487,48487,10.0100,-1.5100,-0.2500,10.1263,0.0098,0.0196,0.1549,-78.75,-83.75,169.44,9.0778,-2.3866,0.2365,9.3892
11,7,1,3,1,48.660,48660,9.7700,-1.7400,0.1300,9.9246,0.0665,-0.0033,-0.1374,-79.94,-85.19,167.94,9.1690,-2.3014,0.2225,9.4560
11,7,1,3,1,48.793,48793,9.7400,-2.2900,-0.1300,10.0064,0.0829,-0.0447,0.3196,-78.06,-85.56,169.25,9.2442,-2.2999,0.1760,9.5277
11,7,1,3,1,48.924,48924,7.7300,-0.9500,0.4400,7.8006,0.0709,-0.0044,-0.5585,-81.63,-83.81,165.31,9.0447,-2.1220,0.2108,9.2927
11,7,1,3,1,49.058,49058,9.2500,-1.3100,0.1300,9.3432,-0.0153,-0.0153,0.2203,-82.69,-82.38,164.13,9.0718,-2.0150,0.2002,9.2950
11,7,1,3,1,49.188,49188,9.7600,-1.5000,0.2900,9.8789,-0.0349,-0.0022,-0.0535,-81.56,-82.63,165.38,9.1625,-1.9471,0.2120,9.3695
11,7,1,3,1,49.319,49319,10.5600,-1.4300,0.2900,10.6603,-0.0262,0.0196,-0.0305,-82.56,-81.56,164.69,9.3466,-1.8790,0.2223,9.5362
11,7,1,3,1,49.450,49450,8.2400,-0.5600,0.0400,8.2591,-0.0589,0.0338,-0.5291,-83.50,-6.38,164.06,9.2008,-1.7052,0.1983,9.3596
11,7,1,3,1,49.580,49580,8.8500,-0.1300,0.1100,8.8516,-0.0131,0.0611,-0.1854,-87.06,-2.88,160.81,9.1546,-1.4976,0.1866,9.2781
11,7,1,3,1,49.753,49753,10.0100,-1.0900,0.0100,10.0692,-0.0425,-0.0273,0.3720,-84.31,-5.63,163.69,9.2673,-1.4439,0.1634,9.3805
11,7,1,3,1,49.884,49884,11.1500,-1.0500,0.1300,11.2001,0.0305,0.0251,0.0284,-82.63,-85.94,165.38,9.5154,-1.3920,0.1590,9.6180
11,7,1,3,1,50.014,50014,8.7900,-1.0800,0.0200,8.8561,0.0338,0.0109,-0.3676,-84.38,-5.56,163.31,9.4198,-1.3509,0.1406,9.5172
11,7,1,3,1,50.150,50150,8.7700,-0.3600,0.0300,8.7774,0.0076,-0.0164,-0.0545,-86.31,-3.63,161.31,9.3342,-1.2203,0.1261,9.4144
11,7,1,3,1,50.280,50280,10.0100,-0.8400,-0.0100,10.0452,0.0404,-0.0131,0.2716,-84.56,-5.31,162.81,9.4232,-1.1702,0.1081,9.4962
11,7,1,3,1,50.412,50412,9.3800,-1.0300,0.0900,9.4368,0.0142,-0.0044,-0.1898,-84.69,-5.19,162.44,9.4175,-1.1517,0.1057,9.4883
11,7,1,3,1,50.542,50542,9.3700,-0.4800,0.0000,9.3823,0.0109,-0.0164,-0.0425,-85.94,-4.00,161.19,9.4113,-1.0632,0.0918,9.4716
11,7,1,3,1,50.673,50673,10.9600,-0.7400,0.2500,10.9878,0.0262,-0.0022,-0.0338,-85.56,-4.31,161.31,9.6154,-1.0206,0.1127,9.6700
11,7,1,3,1,50.846,50846,9.4400,-0.5900,-0.1000,9.4589,-0.0458,0.0175,-0.0218,-86.56,-3.31,160.44,9.5922,-0.9639,0.0846,9.6409
11,7,1,3,1,50.976,50976,9.4400,-0.4600,0.1800,9.4529,-0.0273,-0.0087,-0.1560,-87.25,-2.63,160.00,9.5722,-0.8975,0.0972,9.6147
11,7,1,3,1,51.106,51106,9.7500,-0.3900,0.0400,9.7579,-0.0153,-0.0338,0.0884,-88.00,-1.75,159.25,9.5956,-0.8306,0.0897,9.6319
11,7,1,3,1,51.236,51236,11.3900,-0.8700,0.2200,11.4253,0.0142,0.0229,0.2563,-86.13,-3.75,161.19,9.8321,-0.8358,0.1068,9.8681
11,8,1,3,1,51.366,51366,8.6700,-0.4400,0.0400,8.6812,-0.0284,-0.0065,-0.4309,-87.44,-2.38,159.94,9.6789,-0.7836,0.0980,9.7111
11,8,1,3,1,51.496,51496,9.3700,-0.2300,0.1000,9.3734,-0.0087,-0.0284,0.2269,-88.25,-1.50,159.19,9.6382,-0.7107,0.0983,9.6649
11,8,1,3,1,51.626,51626,9.7700,-0.6800,0.4200,9.8026,-0.0175,-0.0349,-0.0753,-86.94,-2.81,160.50,9.6556,-0.7066,0.1407,9.6824
11,8,1,3,1,51.756,51756,8.6600,-0.3400,0.0600,8.6669,-0.0436,-0.0545,0.2018,-86.81,-2.81,160.94,9.5244,-0.6583,0.1301,9.5480
11,8,1,3,1,51.929,51929,9.7500,-0.3800,0.0700,9.7577,0.0676,0.0098,0.0087,-86.19,-3.44,161.38,9.5541,-0.6216,0.1221,9.5751
11,8,1,3,1,52.059,52059,9.5500,-0.4700,0.3700,9.5687,0.0524,0.0153,0.1385,-85.44,-4.31,161.81,9.5536,-0.6017,0.1548,9.5738
11,8,1,3,1,52.190,52190,9.4700,-0.8500,0.0800,9.5084,0.0665,0.0076,0.1811,-84.56,-5.25,162.31,9.5426,-0.6344,0.1449,9.5647
11,8,1,3,1,52.320,52320,10.1000,-1.1600,0.1700,10.1678,0.0600,-0.0622,0.1734,-83.06,-78.56,163.25,9.6160,-0.7037,0.1482,9.6429
11,8,1,3,1,52.450,52450,8.4300,-1.3800,0.2200,8.5450,0.0720,-0.0665,0.1538,-81.94,-76.94,163.81,9.4597,-0.7928,0.1577,9.4942
11,8,1,3,1,52.580,52580,10.0600,-1.6100,0.2800,10.1919,0.0742,-0.0295,0.2356,-80.69,-77.13,164.50,9.5388,-0.9005,0.1738,9.5828
11,8,1,3,1,52.710,52710,10.3500,-2.0500,0.5100,10.5634,0.0436,-0.0295,0.1538,-78.63,-78.75,166.06,9.6457,-1.0519,0.2181,9.7054
11,8,1,3,1,52.840,52840,8.9300,-1.5800,0.5200,9.0836,0.0087,-0.0207,0.0698,-78.50,-78.13,166.00,9.5514,-1.1215,0.2579,9.6205
11,8,1,3,1,53.013,53013,8.1700,-2.0800,0.5600,8.4492,-0.0240,-0.0011,0.3785,-75.50,-80.13,169.06,9.3694,-1.2478,0.2977,9.4568
11,8,1,3,1,53.144,53144,7.9900,-2.2200,0.2900,8.2977,-0.0873,0.0033,-0.0774,-74.56,-79.81,170.38,9.1876,-1.3759,0.2967,9.2948
11,8,1,3,1,53.279,53279,8.9900,-2.7000,0.2100,9.3890,-0.0709,0.0087,0.3752,-73.00,-80.31,172.50,9.1616,-1.5504,0.2853,9.2962
11,8,1,3,1,53.410,53410,9.0900,-3.2800,0.4800,9.6756,-0.0295,0.0415,0.0120,-71.19,-82.00,174.63,9.1521,-1.7783,0.3109,9.3285
11,8,1,3,1,53.541,53541,8.8500,-3.1100,0.2500,9.3839,0.0055,-0.0207,0.0785,-71.13,-81.94,174.81,9.1123,-1.9538,0.3029,9.3244
11,8,1,3,1,53.671,53671,9.1900,-3.3400,0.5300,9.7925,0.0131,-0.0338,0.0425,-70.19,-82.19,175.56,9.1226,-2.1365,0.3328,9.3753
11,8,1,3,1,53.801,53801,8.7300,-3.1400,0.4100,9.2866,-0.0098,-0.0502,-0.0687,-70.88,-80.88,174.81,9.0708,-2.2687,0.3430,9.3565
11,8,1,3,1,53.932,53932,8.8800,-3.2900,0.6500,9.4922,0.0098,-0.0469,0.0709,-70.13,-80.13,175.31,9.0457,-2.4033,0.3835,9.3674
11,8,1,3,1,54.105,54105,8.6300,-3.2700,0.5500,9.2451,-0.0044,0.0033,0.0065,-70.56,-79.38,174.75,8.9909,-2.5175,0.4054,9.3455
11,8,1,3,1,54.235,54235,8.7900,-3.2300,0.5900,9.3832,0.0098,0.0142,-0.0273,-70.19,-79.81,175.25,8.9644,-2.6114,0.4297,9.3469
11,8,1,3,1,54.365,54365,8.5400,-3.1800,0.7200,9.1412,0.0196,0.0393,-0.1058,-70.88,-80.06,174.50,8.9085,-2.6863,0.4680,9.3165
11,8,1,3,1,54.495,54495,9.0800,-2.4800,0.6000,9.4317,-0.0044,0.0698,-0.3534,-72.38,-80.31,173.06,8.9311,-2.6591,0.4854,9.3312
11,8,1,3,1,54.625,54625,8.9000,-2.2200,0.0800,9.1730,0.0229,0.0862,-0.0469,-74.25,-81.50,171.44,8.9270,-2.6013,0.4320,9.3083
11,8,1,3,1,54.755,54755,8.8200,-2.0600,0.2300,9.0603,0.0611,0.0338,-0.1942,-75.25,-83.25,170.31,8.9129,-2.5299,0.4053,9.2739
11,8,1,3,1,54.885,54885,9.5700,-2.4000,0.0600,9.8665,0.0393,0.0338,-0.0665,-76.75,-83.75,168.38,8.9995,-2.5128,0.3598,9.3506
11,8,1,3,1,55.015,55015,8.5900,-2.1100,0.3300,8.8515,0.0644,0.0404,-0.2825,-76.25,-85.56,168.69,8.9455,-2.4597,0.3559,9.2844
11,8,1,3,1,55.188,55188,8.8300,-2.1500,0.1300,9.0889,0.0338,-0.0120,0.1571,-78.31,-85.50,166.25,8.9303,-2.4189,0.3261,9.2579
11,8,1,3,1,55.318,55318,9.2000,-1.9400,0.0200,9.4023,0.0022,0.0218,-0.0415,-77.38,-86.31,167.00,8.9658,-2.3558,0.2858,9.2746
11,8,1,3,1,55.448,55448,9.5300,-2.2900,0.1700,9.8027,-0.0305,0.0687,0.0447,-77.94,-87.56,166.63,9.0402,-2.3471,0.2705,9.3438
11,8,1,3,1,55.578,55578,9.4500,-1.9900,0.0300,9.6573,-0.0491,0.0371,-0.1527,-77.75,-89.19,167.25,9.0942,-2.3001,0.2388,9.3836
11,8,1,3,1,55.708,55708,9.4100,-1.4100,-0.2300,9.5178,-0.0742,-0.0109,-0.1091,-79.38,-88.81,166.13,9.1358,-2.1828,0.1771,9.3946
11,8,1,3,1,55.838,55838,9.3700,-1.3800,0.2700,9.4749,-0.0022,-0.0087,-0.0578,-79.81,-88.50,165.88,9.1667,-2.0770,0.1893,9.4009
11,8,1,3,1,55.968,55968,9.3400,-1.5700,-0.0900,9.4715,0.0327,0.0153,0.0676,-80.06,-88.63,165.56,9.1895,-2.0102,0.1525,9.4080
11,8,1,3,1,56.098,56098,9.0900,-1.8600,0.0000,9.2783,0.0142,0.0251,-0.0535,-80.00,-89.94,165.50,9.1764,-1.9904,0.1324,9.3907
11,8,1,3,1,56.271,56271,9.5600,-1.6900,-0.1000,9.7087,0.0131,-0.0022,-0.0785,-80.13,-90.44,165.25,9.2269,-1.9508,0.1018,9.4315
11,8,1,3,1,56.401,56401,9.3800,-1.7200,-0.0900,9.5368,-0.0055,-0.0076,-0.0785,-80.75,-90.56,164.56,9.2471,-1.9204,0.0765,9.4447
11,8,1,3,1,56.531,56531,9.4200,-1.4000,0.0500,9.5236,-0.0622,-0.0153,-0.0840,-81.44,-90.00,164.19,9.2699,-1.8518,0.0730,9.4533
11,8,1,3,1,56.661,56661,9.5900,-1.3400,0.1500,9.6843,-0.0196,-0.0404,0.1287,-81.00,-88.31,164.88,9.3121,-1.7844,0.0832,9.4819
11,8,1,3,1,56.791,56791,9.5400,-1.5100,0.1000,9.6593,-0.0076,-0.0753,-0.0851,-81.13,-85.25,164.69,9.3421,-1.7482,0.0854,9.5047
11,8,1,3,1,56.921,56921,9.2400,-1.3600,0.1900,9.3415,0.0055,-0.0600,-0.0404,-81.31,-81.50,164.38,9.3287,-1.6971,0.0992,9.4823
11,8,1,3,1,57.051,57051,9.9000,-1.4200,0.3500,10.0074,0.0218,-0.0131,0.0044,-81.56,-79.81,163.94,9.4039,-1.6606,0.1322,9.5503
11,8,1,3,1,57.181,57181,9.4100,-1.6700,0.4000,9.5654,0.0055,0.0022,-0.0175,-81.38,-79.81,164.00,9.4047,-1.6618,0.1675,9.5519
11,8,1,3,1,57.354,57354,10.2400,-1.5500,0.4600,10.3669,-0.0524,0.0185,0.0055,-81.81,-80.25,163.88,9.5148,-1.6471,0.2060,9.6585
11,8,1,3,1,57.484,57484,9.1300,-1.1700,0.2700,9.2086,-0.0774,0.0305,-0.1353,-82.50,-79.94,163.81,9.4641,-1.5842,0.2145,9.5982
11,8,1,3,1,57.616,57616,9.8000,-0.9100,0.1000,9.8427,-0.0196,0.0415,0.0698,-82.69,-81.88,164.13,9.5084,-1.4954,0.1994,9.6273
11,8,1,3,1,57.747,57747,9.5300,-0.9500,0.1000,9.5778,-0.0295,-0.0131,-0.1265,-83.13,-82.00,163.88,9.5112,-1.4235,0.1863,9.6190
11,8,1,3,1,57.882,57882,9.1200,-0.7100,0.0900,9.1480,0.0251,-0.0393,-0.0654,-82.69,-80.19,164.19,9.4597,-1.3295,0.1736,9.5542
11,8,1,3,1,58.013,58013,9.1800,-0.8100,0.2800,9.2199,0.0578,-0.0251,-0.1844,-84.25,-5.50,162.19,9.4228,-1.2610,0.1876,9.5087
11,8,1,3,1,58.144,58144,8.8400,-1.3000,0.3600,8.9423,-0.0044,-0.0175,0.2574,-83.44,-6.31,162.75,9.3460,-1.2662,0.2103,9.4337
11,8,1,3,1,58.274,58274,8.3400,-0.8700,0.1700,8.3870,0.0000,0.0164,-0.1462,-82.56,-77.06,163.69,9.2134,-1.2140,0.2050,9.2953
11,8,1,3,1,58.447,58447,11.1900,-2.6900,0.6700,11.5283,-0.0065,-0.0098,0.7309,-79.19,-83.06,167.19,9.4739,-1.4085,0.2663,9.5817
11,8,1,3,1,58.577,58577,7.4900,-0.8400,-0.1800,7.5391,-0.0535,0.0098,-0.4189,-79.88,-82.06,166.81,9.2125,-1.3336,0.2075,9.3108
11,8,1,3,1,58.708,58708,9.1900,-1.2100,0.0900,9.2698,0.0055,0.0327,0.2782,-81.06,-83.38,165.88,9.2095,-1.3173,0.1920,9.3052
11,8,1,3,1,58.838,58838,9.9500,-2.5800,0.1900,10.2808,0.0513,-0.0436,0.3687,-78.06,-85.19,168.50,9.3071,-1.4837,0.1917,9.4266
11,8,1,3,1,58.972,58972,8.3400,-1.5600,-0.0500,8.4848,-0.0327,-0.0862,-0.2913,-78.00,-82.19,168.38,9.1797,-1.4937,0.1599,9.3018
11,8,1,3,1,59.103,59103,11.4700,-2.7300,0.3300,11.7950,0.0469,0.0044,0.6578,-77.63,-82.06,168.69,9.4815,-1.6566,0.1823,9.6268
11,8,1,3,1,59.236,59236,8.3900,-2.1600,0.2300,8.6666,0.0087,-0.0360,-0.1189,-75.19,-82.75,170.88,9.3376,-1.7230,0.1886,9.4971
11,8,1,3,1,59.366,59366,8.8400,-2.3000,0.6100,9.1547,0.0240,-0.0993,0.2891,-75.44,-80.69,170.38,9.2721,-1.7990,0.2441,9.4481
11,8,1,3,1,59.539,59539,8.2800,-2.3300,0.6100,8.6232,-0.0011,-0.0524,-0.0916,-72.56,-79.19,172.94,9.1413,-1.8690,0.2923,9.3350
11,8,1,3,1,59.669,59669,8.2500,-2.4400,0.3500,8.6104,-0.0349,-0.0044,0.0894,-74.31,-77.19,171.06,9.0239,-1.9442,0.2999,9.2358
11,8,1,3,1,59.799,59799,8.4500,-3.0900,0.3600,9.0045,0.0851,0.0796,0.4920,-71.25,-81.00,174.13,8.9483,-2.0952,0.3078,9.1954
11,9,1,3,1,59.929,59929,9.5000,-3.4300,0.3900,10.1078,0.0120,0.0491,0.0349,-69.56,-83.81,175.81,9.0210,-2.2711,0.3187,9.3079
11,9,1,3,1,60.059,60059,8.8200,-3.3700,0.1400,9.4429,-0.0087,-0.0262,0.1058,-69.81,-83.81,175.63,8.9945,-2.4159,0.2951,9.3180
11,9,1,3,1,60.189,60189,9.0600,-3.7000,0.4100,9.7950,0.0251,-0.0404,0.0862,-68.13,-83.94,177.06,9.0031,-2.5851,0.3103,9.3720
11,9,1,3,1,60.319,60319,8.5400,-3.4900,0.4800,9.2381,-0.0327,-0.0207,-0.1418,-69.13,-83.06,176.06,8.9421,-2.7044,0.3326,9.3480
11,9,1,3,1,60.450,60450,8.6900,-3.4200,0.4600,9.3501,-0.0185,-0.0327,0.1647,-68.44,-82.38,176.75,8.9089,-2.7987,0.3494,9.3447
11,9,1,3,1,60.622,60622,8.4700,-3.4600,0.4200,9.1591,-0.0098,-0.0022,-0.2236,-68.63,-81.69,176.63,8.8510,-2.8858,0.3587,9.3165
11,9,1,3,1,60.752,60752,8.6800,-3.1200,0.5000,9.2373,-0.0109,0.0458,-0.1244,-69.88,-81.69,175.50,8.8285,-2.9167,0.3773,9.3055
11,9,1,3,1,60.882,60882,8.9000,-3.0200,0.4600,9.4097,0.0120,0.0524,-0.1909,-71.00,-82.25,174.50,8.8379,-2.9303,0.3882,9.3191
11,9,1,3,1,61.012,61012,8.8800,-2.8000,0.3100,9.3161,0.0076,0.0589,-0.1691,-72.50,-82.94,173.13,8.8435,-2.9131,0.3779,9.3186
11,9,1,3,1,61.142,61142,9.1300,-2.4700,0.3800,9.4658,0.0033,0.0480,-0.0829,-73.44,-83.94,172.31,8.8812,-2.8547,0.3782,9.3364
11,9,1,3,1,61.272,61272,8.9900,-2.3800,0.1700,9.3013,0.0185,0.0142,-0.0567,-73.94,-84.50,171.81,8.8956,-2.7922,0.3508,9.3301
11,9,1,3,1,61.402,61402,8.8000,-2.1600,-0.3100,9.0665,0.0076,0.0120,0.0142,-74.44,-85.06,171.31,8.8830,-2.7089,0.2637,9.2906
11,9,1,3,1,61.532,61532,9.7600,-2.8600,0.5100,10.1832,0.0884,-0.0262,0.1822,-73.25,-86.75,172.19,8.9985,-2.7288,0.2961,9.4078
11,9,1,3,1,61.705,61705,8.0200,-2.4000,0.2500,8.3751,0.0109,-0.0905,-0.2749,-74.63,-83.94,170.06,8.8696,-2.6855,0.2901,9.2718
11,9,1,3,1,61.835,61835,8.8800,-2.4200,0.5400,9.2197,0.0065,-0.0654,0.1505,-75.06,-81.75,169.44,8.8710,-2.6505,0.3230,9.2641
11,9,1,3,1,61.965,61965,9.0900,-3.0400,0.5400,9.6001,0.0065,-0.0425,0.0982,-73.69,-80.88,170.56,8.8998,-2.7018,0.3516,9.3075
11,9,1,3,1,62.095,62095,8.9700,-2.6000,0.3900,9.3474,-0.0415,0.0349,-0.2716,-74.56,-80.13,169.81,8.9091,-2.6884,0.3567,9.3127
11,9,1,3,1,62.225,62225,9.1000,-2.4100,0.4600,9.4250,-0.0447,0.0676,-0.0360,-75.50,-80.88,169.31,8.9342,-2.6517,0.3703,9.3268
11,9,1,3,1,62.355,62355,8.9200,-1.9500,0.1900,9.1326,-0.0611,0.0742,-0.1931,-76.50,-81.81,168.81,8.9324,-2.5592,0.3465,9.2982
11,9,1,3,1,62.485,62485,9.7900,-1.9500,0.1900,9.9841,-0.0196,0.1244,0.0131,-77.44,-84.56,168.44,9.0454,-2.4790,0.3259,9.3846
11,9,1,3,1,62.615,62615,9.8600,-1.9700,-0.0400,10.0550,-0.0011,0.0764,0.0600,-76.94,-87.88,169.31,9.1527,-2.4119,0.2777,9.4692
11,9,1,3,1,62.788,62788,8.6000,-2.0200,0.1000,8.8346,-0.0175,0.0120,-0.1865,-77.88,-89.19,168.31,9.0799,-2.3602,0.2543,9.3851
11,9,1,3,1,62.918,62918,9.0000,-1.8800,0.1900,9.1962,-0.0065,0.0164,0.0720,-78.00,-89.25,168.38,9.0694,-2.2970,0.2458,9.3589
11,9,1,3,1,63.048,63048,9.4600,-1.8800,-0.0700,9.6453,-0.0338,0.0382,-0.1418,-78.44,-89.94,168.06,9.1208,-2.2420,0.2042,9.3946
11,9,1,3,1,63.178,63178,10.6100,-1.8600,0.0000,10.7718,-0.0404,0.0502,0.0753,-78.44,-91.44,168.44,9.3171,-2.1917,0.1773,9.5730
11,9,1,3,1,63.308,63308,8.7800,-1.8100,0.1200,8.9654,-0.0305,-0.0120,-0.2062,-78.56,-91.69,168.50,9.2463,-2.1414,0.1697,9.4925
11,9,1,3,1,63.438,63438,9.3500,-1.4300,-0.1300,9.4596,-0.0098,-0.0218,-0.0382,-80.38,-90.75,166.88,9.2600,-2.0476,0.1302,9.4846
11,9,1,3,1,63.568,63568,9.5400,-1.5600,0.0000,9.6667,0.0131,-0.0153,-0.0425,-79.94,-89.50,167.31,9.2969,-1.9834,0.1131,9.5067
11,9,1,3,1,63.699,63699,9.1100,-1.4800,-0.0300,9.2295,0.0207,0.0055,-0.0884,-81.00,-89.13,166.13,9.2722,-1.9170,0.0942,9.4688
11,9,1,3,1,63.871,63871,10.5200,-1.8100,0.1500,10.6756,0.0185,-0.0207,0.0393,-80.94,-89.13,165.94,9.4367,-1.9029,0.1016,9.6272
11,9,1,3,1,64.001,64001,9.2300,-1.4800,0.0400,9.3480,-0.0262,-0.0185,-0.0502,-80.69,-88.00,166.25,9.4094,-1.8472,0.0935,9.5895
11,9,1,3,1,64.131,64131,10.0100,-1.3400,0.0500,10.0994,-0.0229,-0.0076,0.0295,-81.06,-87.56,166.00,9.4886,-1.7804,0.0877,9.6546
11,9,1,3,1,64.261,64261,10.3600,-2.2800,0.3300,10.6131,-0.0196,-0.0055,0.2018,-79.19,-88.00,168.00,9.6034,-1.8462,0.1197,9.7800
11,10,1,3,1,64.391,64391,8.5000,-0.8600,-0.0400,8.5435,-0.0905,-0.0109,-0.4407,-81.06,-86.81,166.63,9.4580,-1.7163,0.0986,9.6130
11,10,1,3,1,64.521,64521,9.9900,-1.0400,0.1900,10.0458,0.0229,-0.0207,0.2618,-81.75,-85.50,166.06,9.5281,-1.6271,0.1107,9.6667
11,10,1,3,1,64.651,64651,9.7300,-1.7000,0.1800,9.8790,0.0316,-0.0229,0.0905,-79.44,-85.50,167.94,9.5547,-1.6367,0.1198,9.6946
11,10,1,3,1,64.782,64782,8.5700,-1.5500,0.1900,8.7111,0.0196,-0.0513,0.0665,-78.81,-84.25,168.44,9.4250,-1.6253,0.1290,9.5649
11,10,1,3,1,64.955,64955,9.5400,-2.5600,0.4200,9.8864,0.0654,-0.0251,0.3589,-77.06,-84.13,169.69,9.4401,-1.7485,0.1674,9.6021
11,10,1,3,1,65.086,65086,9.2800,-2.2800,0.1200,9.5567,0.0262,-0.0458,0.0447,-75.38,-83.75,171.06,9.4190,-1.8185,0.1611,9.5943
11,10,1,3,1,65.216,65216,9.2900,-2.9200,0.3500,9.7444,0.0262,-0.0284,0.3840,-74.25,-83.56,171.81,9.4020,-1.9637,0.1860,9.6067
11,10,1,3,1,65.346,65346,8.6500,-2.7700,0.3100,9.0880,0.0065,-0.0415,0.0360,-71.69,-83.75,174.19,9.3029,-2.0699,0.2024,9.5326
11,10,1,3,1,65.477,65477,7.7100,-2.4200,0.5200,8.0976,-0.0153,-0.0556,-0.1593,-73.31,-82.06,172.44,9.0930,-2.1161,0.2442,9.3392
11,10,1,3,1,65.607,65607,9.3900,-3.1100,0.5800,9.9086,-0.0175,-0.0284,0.4898,-71.69,-81.38,174.00,9.1321,-2.2470,0.2885,9.4090
11,10,1,3,1,65.741,65741,9.1300,-3.4500,0.4500,9.7705,-0.0229,0.0000,0.2825,-67.88,-82.56,177.94,9.1319,-2.4056,0.3098,9.4485
11,10,1,3,1,65.872,65872,6.6800,-2.1700,0.0500,7.0238,-0.0109,0.0600,-0.4429,-68.94,-82.69,177.13,8.8088,-2.3745,0.2755,9.1274
11,10,1,3,1,66.045,66045,7.8300,-3.2200,0.3000,8.4716,0.0196,0.0273,-0.2411,-66.31,-85.06,179.94,8.6798,-2.4859,0.2788,9.0331
11,10,1,3,1,66.175,66175,8.9900,-3.9400,0.3000,9.8201,0.0153,-0.0033,-0.0349,-67.00,-85.31,179.06,8.7207,-2.6775,0.2816,9.1268
11,10,1,3,1,66.306,66306,8.8500,-3.8500,0.0800,9.6515,0.0644,0.0327,0.1036,-66.88,-85.88,178.94,8.7377,-2.8320,0.2550,9.1887
11,10,1,3,1,66.436,66436,8.7100,-3.9800,0.4400,9.5863,0.0196,-0.0055,-0.0524,-66.81,-86.31,178.81,8.7341,-2.9833,0.2794,9.2337
11,10,1,3,1,66.567,66567,8.5600,-4.2100,0.3200,9.5446,-0.0404,-0.0393,0.1909,-66.00,-85.94,179.63,8.7111,-3.1450,0.2847,9.2658
11,10,1,3,1,66.697,66697,8.3000,-3.8800,0.3000,9.1670,-0.0502,-0.0218,-0.1364,-65.75,-85.06,180.06,8.6569,-3.2418,0.2867,9.2485
11,10,1,3,1,66.827,66827,8.5600,-3.5300,0.3800,9.2671,0.0076,0.0076,-0.0873,-66.44,-84.69,179.56,8.6442,-3.2798,0.2990,9.2503
11,10,1,3,1,66.958,66958,8.5200,-3.6700,0.3700,9.2842,0.0273,0.0175,-0.2443,-67.75,-84.63,178.13,8.6278,-3.3312,0.3084,9.2537
11,10,1,3,1,67.130,67130,8.8400,-3.1600,0.4100,9.3968,0.0087,0.0196,-0.2116,-69.69,-84.94,176.25,8.6558,-3.3086,0.3218,9.2722
11,10,1,3,1,67.260,67260,8.6900,-2.6900,0.2600,9.1005,-0.0087,-0.0044,-0.2476,-71.31,-84.38,174.56,8.6603,-3.2271,0.3136,9.2473
11,10,1,3,1,67.390,67390,8.9700,-2.6300,0.1600,9.3490,-0.0109,0.0600,-0.1036,-73.06,-84.75,173.06,8.7011,-3.1484,0.2934,9.2579
11,10,1,3,1,67.520,67520,9.8500,-3.3800,0.1400,10.4147,0.0175,0.0687,0.2694,-72.75,-86.06,173.44,8.8525,-3.1790,0.2732,9.4099
11,10,1,3,1,67.650,67650,6.9900,-1.2600,0.1900,7.1052,0.0338,0.0545,-0.8912,-74.75,-87.06,171.38,8.6071,-2.9261,0.2622,9.0946
11,10,1,3,1,67.780,67780,9.2900,-2.3800,0.2200,9.5925,0.0295,-0.0545,-0.0654,-77.31,-87.13,168.56,8.6971,-2.8541,0.2567,9.1570
11,10,1,3,1,67.910,67910,8.8300,-2.0300,0.0900,9.0608,-0.0273,-0.0207,-0.0196,-77.13,-85.81,168.75,8.7146,-2.7455,0.2347,9.1398
11,10,1,3,1,68.040,68040,8.9800,-1.5700,0.1300,9.1171,-0.0360,0.0175,-0.3458,-78.94,-85.06,167.06,8.7496,-2.5906,0.2209,9.1277
11,10,1,3,1,68.213,68213,9.2500,-1.4600,0.0200,9.3645,-0.0131,0.0578,-0.0764,-80.19,-86.69,166.06,8.8155,-2.4416,0.1944,9.1494
11,10,1,3,1,68.343,68343,9.7700,-1.3400,0.2300,9.8641,-0.0185,0.0349,-0.0927,-80.81,-88.50,165.56,8.9413,-2.2965,0.1991,9.2336
11,10,1,3,1,68.473,68473,9.4800,-1.3900,0.0600,9.5815,0.0011,0.0185,-0.0065,-81.19,-89.13,165.31,9.0123,-2.1770,0.1808,9.2732
11,10,1,3,1,68.603,68603,9.7600,-1.1800,-0.0700,9.8313,-0.0142,0.0175,-0.1276,-81.50,-90.19,165.06,9.1108,-2.0456,0.1477,9.3388
11,10,1,3,1,68.733,68733,9.2200,-1.4200,-0.1600,9.3301,0.0033,-0.0196,0.1025,-82.00,-90.25,164.63,9.1252,-1.9632,0.1072,9.3346
11,10,1,3,1,68.863,68863,9.7400,-1.3800,0.0100,9.8373,-0.0098,-0.0240,0.0011,-81.25,-89.63,165.38,9.2062,-1.8863,0.0944,9.3979
11,10,1,3,1,68.993,68993,9.8900,-1.2000,0.0100,9.9625,0.0262,-0.0273,0.0840,-81.38,-88.19,165.19,9.2963,-1.7959,0.0833,9.4686
11,10,1,3,1,69.124,69124,10.0600,-1.7300,0.0200,10.2077,0.0720,0.0011,0.1451,-80.13,-88.50,166.00,9.3969,-1.7872,0.0749,9.5657
11,10,1,3,1,69.296,69296,8.8500,-1.5100,0.2800,8.9823,0.0469,-0.0185,-0.0916,-81.75,-88.50,163.88,9.3249,-1.7507,0.1019,9.4883
11,10,1,3,1,69.426,69426,9.8800,-1.7000,0.1100,10.0258,-0.0120,-0.0578,0.3076,-80.19,-86.88,165.31,9.3980,-1.7440,0.1030,9.5590
11,10,1,3,1,69.556,69556,9.1600,-1.5400,0.1000,9.2891,-0.0055,-0.0022,-0.1374,-79.81,-85.56,165.69,9.3667,-1.7171,0.1026,9.5233
11,10,1,3,1,69.686,69686,9.6700,-1.8300,0.3200,9.8468,-0.0098,0.0218,0.0971,-80.13,-85.56,165.44,9.4066,-1.7320,0.1313,9.5657
11,10,1,3,1,69.816,69816,9.3900,-1.8000,0.1100,9.5616,-0.0436,0.0055,0.0360,-79.38,-85.94,166.38,9.4044,-1.7410,0.1285,9.5651
11,10,1,3,1,69.946,69946,9.4900,-1.5100,0.0000,9.6094,-0.0305,-0.0120,-0.0578,-79.69,-85.69,166.38,9.4157,-1.7105,0.1115,9.5705
