participant,rep,equipment_code,exercise_code,quality_code,timestamp,timestamp_ms,accelX,accelY,accelZ,accelMag,gyroX,gyroY,gyroZ,roll,pitch,yaw,filteredX,filteredY,filteredZ,filteredMag
11,1,1,3,1,00.000,0,2.6800,9.8600,0.5500,10.2325,-0.0196,-0.0436,-0.0218,-14.81,86.19,36.94,2.7578,9.4013,0.9566,9.8441
11,1,1,3,1,00.121,121,2.3100,9.5900,0.7200,9.8905,0.0284,-0.0415,0.0851,-14.81,86.00,37.25,2.6988,9.4262,0.9254,9.8485
11,1,1,3,1,00.241,241,2.6900,9.4500,0.7600,9.8548,0.0295,-0.0338,-0.0938,-15.00,85.75,37.63,2.6977,9.4293,0.9036,9.8492
11,1,1,3,1,00.362,362,2.4200,9.4000,0.8900,9.7472,0.0175,-0.0556,-0.0567,-14.44,85.50,37.38,2.6611,9.4255,0.9018,9.8353
11,1,1,3,1,00.483,483,2.5400,9.4100,0.8800,9.7864,0.0065,-0.0644,-0.1102,-14.38,85.31,37.56,2.6451,9.4234,0.8989,9.8288
11,1,1,3,1,00.604,604,1.8100,9.9400,0.9400,10.1471,0.0207,-0.0774,-0.2422,-13.06,85.06,36.75,2.5351,9.4915,0.9043,9.8658
11,1,1,3,1,00.725,725,1.9500,9.1300,0.7200,9.3636,-0.0055,-0.0654,-0.0622,-12.50,84.81,36.63,2.4580,9.4439,0.8801,9.7981
11,1,1,3,1,00.892,892,1.1400,9.8600,0.8900,9.9655,-0.0502,0.0033,-0.1222,-11.31,85.06,35.75,2.2843,9.4987,0.8814,9.8092
11,1,1,3,1,01.013,1013,2.3500,8.8700,0.8000,9.2108,-0.0349,0.0055,-0.1898,-11.06,85.44,35.50,2.2930,9.4159,0.8706,9.7301
11,1,1,3,1,01.134,1134,0.7000,8.9200,0.6400,8.9703,-0.0142,0.0109,0.0644,-9.19,85.50,33.63,2.0830,9.3505,0.8402,9.6165
11,1,1,3,1,01.255,1255,2.6300,9.8100,0.9900,10.2046,-0.0469,0.0175,0.0720,-10.44,85.75,34.81,2.1551,9.4111,0.8600,9.6929
11,1,1,3,1,01.376,1376,2.4400,9.8300,0.7100,10.1532,-0.0044,-0.0011,-0.0807,-10.13,85.88,34.44,2.1927,9.4663,0.8402,9.7532
11,1,1,3,1,01.498,1498,1.1300,9.7200,0.7500,9.8142,-0.0262,-0.0087,-0.4625,-8.00,86.00,32.31,2.0526,9.4997,0.8283,9.7542
11,1,1,3,1,01.619,1619,0.3400,9.1600,0.7300,9.1953,-0.0131,0.0055,-0.1418,-5.44,86.19,29.81,1.8269,9.4549,0.8154,9.6643
11,1,1,3,1,01.745,1745,0.0900,9.7600,0.6300,9.7807,0.0295,0.0218,-0.0687,-4.44,86.13,28.69,1.5981,9.4951,0.7909,9.6611
11,1,1,3,1,01.907,1907,1.1600,10.8600,0.8200,10.9525,0.0371,-0.0175,-0.1200,-5.19,85.81,29.19,1.5403,9.6750,0.7948,9.8290
11,1,1,3,1,02.028,2028,0.7300,9.6100,0.6900,9.6624,0.0589,-0.0545,0.0382,-4.31,85.31,28.56,1.4336,9.6664,0.7810,9.8033
11,1,1,3,1,02.152,2152,0.0700,9.3500,0.9100,9.3944,0.0076,-0.0491,-0.1189,-3.50,85.06,28.13,1.2539,9.6247,0.7980,9.7388
11,1,1,3,1,02.273,2273,0.4900,9.6900,0.9700,9.7507,0.0000,0.0622,-0.0851,-3.06,85.13,28.06,1.1532,9.6333,0.8206,9.7368
11,1,1,3,1,02.397,2397,-0.2200,9.8400,0.8600,9.8800,-0.0447,0.0829,-0.0720,-1.13,85.31,25.69,0.9723,9.6606,0.8258,9.7444
11,1,1,3,1,02.518,2518,0.3600,10.5800,0.9000,10.6243,-0.0425,-0.0131,-0.0851,-0.63,85.69,25.31,0.8916,9.7817,0.8356,9.8578
11,1,1,3,1,02.639,2639,-0.0400,10.2500,0.5400,10.2643,-0.0055,-0.1200,-0.3163,0.13,85.75,25.13,0.7688,9.8434,0.7966,9.9055
11,1,1,3,1,02.760,2760,-0.4800,10.2600,0.7700,10.3000,0.0033,-0.1331,-0.1713,1.38,85.81,25.06,0.6043,9.8983,0.7931,9.9484
11,1,1,3,1,02.922,2922,-1.1400,9.9100,0.9000,10.0159,0.0360,-0.0360,0.0753,2.63,85.63,25.31,0.3744,9.8999,0.8072,9.9398
11,1,1,3,1,03.048,3048,-0.6200,10.7500,0.8100,10.7983,0.0131,0.0393,0.1124,2.00,85.50,26.31,0.2434,10.0119,0.8076,10.0474
11,1,1,3,1,03.168,3168,-0.8100,10.1700,0.7200,10.2276,0.0033,0.0305,-0.1614,2.25,85.44,25.88,0.1046,10.0327,0.7960,10.0648
11,1,1,3,1,03.290,3290,-0.1800,10.0800,0.9300,10.1244,-0.0033,0.0185,0.0622,1.75,85.44,26.25,0.0671,10.0390,0.8137,10.0721
11,1,1,3,1,03.411,3411,-0.2400,10.0500,0.6500,10.0739,-0.0665,0.0065,0.0578,1.63,85.69,26.38,0.0266,10.0404,0.7921,10.0716
11,1,1,3,1,03.533,3533,-0.4900,10.0700,0.5700,10.0980,-0.0273,0.0000,0.0938,1.25,86.06,26.75,-0.0415,10.0443,0.7629,10.0733
11,1,1,3,1,03.653,3653,-0.0100,10.0700,0.6700,10.0923,-0.0098,-0.0055,0.2138,0.13,86.31,27.81,-0.0373,10.0477,0.7506,10.0758
11,1,1,3,1,03.774,3774,-0.0800,10.4300,0.6000,10.4476,0.0207,-0.0185,0.2891,-1.50,86.31,29.63,-0.0429,10.0981,0.7308,10.1246
11,2,1,3,1,03.941,3941,0.9000,9.5500,0.6800,9.6164,0.0436,0.0164,0.3992,-4.94,85.88,33.13,0.0813,10.0259,0.7241,10.0523
11,2,1,3,1,04.063,4063,1.1200,9.7100,0.7600,9.8039,-0.0229,0.0447,0.4352,-6.94,85.81,34.94,0.2182,9.9842,0.7288,10.0132
11,2,1,3,1,04.184,4184,1.8200,8.8600,0.7900,9.0794,0.0098,0.0360,0.0840,-8.88,85.88,36.63,0.4293,9.8361,0.7369,9.8730
11,2,1,3,1,04.305,4305,1.4500,8.2100,0.8200,8.3773,0.0175,0.0218,0.0611,-9.69,85.81,37.19,0.5638,9.6218,0.7478,9.6673
11,2,1,3,1,04.427,4427,1.6000,8.7300,0.7500,8.9070,0.0175,0.0087,0.1189,-10.63,85.63,37.94,0.7003,9.5043,0.7481,9.5594
11,2,1,3,1,04.552,4552,2.0000,9.8100,0.7700,10.0414,-0.0033,0.0305,0.1745,-11.69,85.56,38.94,0.8716,9.5446,0.7510,9.6137
11,2,1,3,1,04.673,4673,2.1100,9.5800,0.7600,9.8390,-0.0109,0.0349,0.1647,-12.00,85.63,39.00,1.0348,9.5492,0.7522,9.6346
11,2,1,3,1,04.796,4796,2.5200,8.9700,0.5200,9.3318,0.0000,-0.0076,0.0960,-13.19,85.63,40.13,1.2305,9.4729,0.7216,9.5797
11,2,1,3,1,04.957,4957,2.7900,9.4000,0.6100,9.8243,-0.0229,-0.0109,-0.0262,-14.31,85.69,40.50,1.4360,9.4633,0.7069,9.5977
11,2,1,3,1,05.078,5078,1.8300,9.5600,0.9900,9.7838,-0.0371,-0.0415,0.0087,-13.50,85.88,39.25,1.4879,9.4760,0.7442,9.6210
11,2,1,3,1,05.199,5199,2.3700,9.6800,0.1800,9.9675,-0.1254,-0.0829,-0.1156,-14.13,86.31,40.38,1.6041,9.5029,0.6698,9.6606
11,2,1,3,1,05.321,5321,1.8400,9.8400,0.5000,10.0230,-0.1233,-0.0764,-0.0938,-13.06,87.00,40.00,1.6352,9.5473,0.6475,9.7080
11,2,1,3,1,05.447,5447,1.6100,10.0200,0.9600,10.1938,-0.0175,0.0087,0.0436,-12.13,87.56,39.25,1.6319,9.6096,0.6886,9.7715
11,2,1,3,1,05.568,5568,2.6900,9.6500,0.1500,10.0190,0.0338,0.0502,0.0393,-12.31,87.50,39.13,1.7713,9.6149,0.6177,9.7962
11,2,1,3,1,05.689,5689,1.4000,9.6400,0.8200,9.7756,0.1374,0.0022,-0.3371,-10.19,86.94,36.63,1.7224,9.6182,0.6443,9.7925
11,2,1,3,1,05.810,5810,3.9300,8.2200,0.9400,9.1595,0.1658,0.0131,0.4778,-11.38,85.94,37.56,2.0133,9.4340,0.6833,9.6706
11,2,1,3,1,05.972,5972,-0.3200,10.7600,0.7500,10.7909,0.0185,0.0229,0.6927,-6.25,84.88,32.50,1.7058,9.6087,0.6921,9.7835
11,2,1,3,1,06.093,6093,1.5600,9.2700,0.8000,9.4343,0.0142,-0.0142,-0.8759,-8.69,84.81,34.75,1.6866,9.5641,0.7063,9.7373
11,2,1,3,1,06.220,6220,0.8700,9.1400,0.8400,9.2197,-0.0262,0.0578,-0.0044,-6.19,84.88,32.13,1.5790,9.5082,0.7239,9.6656
11,2,1,3,1,06.341,6341,1.5300,10.0600,0.9100,10.2163,-0.0764,0.0284,-0.2182,-6.00,85.38,31.75,1.5726,9.5809,0.7484,9.7379
11,2,1,3,1,06.461,6461,1.2100,9.4500,0.6900,9.5521,-0.0774,-0.0022,-0.0862,-4.94,85.88,30.75,1.5248,9.5637,0.7407,9.7127
11,2,1,3,1,06.582,6582,0.9300,9.9000,0.6900,9.9675,-0.0578,-0.0371,-0.1505,-4.19,86.44,30.13,1.4464,9.6080,0.7341,9.7439
11,2,1,3,1,06.703,6703,1.6200,9.5100,0.6800,9.6709,0.0196,-0.0709,-0.0055,-3.94,86.56,30.44,1.4693,9.5951,0.7269,9.7341
11,2,1,3,1,06.825,6825,0.2700,9.5100,0.4100,9.5227,0.0524,-0.0785,-0.1058,-2.38,86.31,29.50,1.3112,9.5839,0.6852,9.6974
11,2,1,3,1,06.987,6987,0.3000,10.7900,0.5600,10.8087,0.0360,-0.0524,-0.1767,-1.63,85.88,29.50,1.1780,9.7428,0.6687,9.8365
11,2,1,3,1,07.112,7112,-0.5200,9.1600,0.7700,9.2070,0.0622,-0.0349,-0.3403,-0.19,85.56,28.44,0.9542,9.6660,0.6820,9.7369
11,2,1,3,1,07.233,7233,-0.0300,8.3200,0.6200,8.3431,0.0382,0.0044,-0.2487,0.69,85.25,27.63,0.8245,9.4886,0.6739,9.5482
11,2,1,3,1,07.354,7354,-0.2200,10.2400,0.9400,10.2854,0.0480,0.0665,-0.1494,1.13,84.94,26.94,0.6869,9.5876,0.7089,9.6383
11,2,1,3,1,07.475,7475,0.3600,10.2900,1.0000,10.3447,0.0360,0.0600,-0.0469,1.94,84.56,25.56,0.6438,9.6802,0.7473,9.7303
11,2,1,3,1,07.597,7597,-0.7100,9.1600,0.9600,9.2375,0.0011,-0.0415,-0.2553,3.50,84.44,24.00,0.4654,9.6116,0.7753,9.6541
11,2,1,3,1,07.717,7717,-0.3800,9.2600,1.1100,9.3340,-0.0513,-0.0425,0.1178,3.94,84.63,23.88,0.3540,9.5653,0.8194,9.6069
11,2,1,3,1,07.855,7855,-0.3600,10.7100,1.0000,10.7626,-0.0633,-0.1091,-0.1222,3.94,85.19,24.88,0.2599,9.7162,0.8432,9.7561
11,2,1,3,1,08.017,8017,-1.6600,10.5100,0.7100,10.6639,-0.0076,-0.0949,-0.3065,5.25,85.50,25.13,0.0069,9.8208,0.8257,9.8554
11,2,1,3,1,08.139,8139,-1.4600,10.0600,0.6900,10.1888,0.0404,-0.0491,-0.2454,5.69,85.44,25.31,-0.1864,9.8523,0.8078,9.8871
11,2,1,3,1,08.260,8260,-1.2700,10.0600,0.9400,10.1833,0.0425,0.0087,-0.0894,5.88,85.13,25.38,-0.3292,9.8797,0.8252,9.9195
11,2,1,3,1,08.382,8382,-0.9400,10.2100,0.9700,10.2990,0.0469,0.0305,0.1702,5.38,84.81,25.81,-0.4097,9.9232,0.8443,9.9675
11,2,1,3,1,08.507,8507,-0.2500,9.9500,1.0400,10.0073,-0.0305,-0.0153,0.2127,3.75,84.75,27.63,-0.3886,9.9267,0.8701,9.9724
11,2,1,3,1,08.628,8628,-0.3300,10.0200,1.0400,10.0792,-0.0993,-0.0425,0.1494,2.88,85.25,28.81,-0.3809,9.9390,0.8925,9.9863
11,2,1,3,1,08.749,8749,-0.3100,10.2200,0.5900,10.2417,-0.0884,-0.0393,0.2094,2.25,85.81,29.75,-0.3716,9.9760,0.8526,10.0193
11,2,1,3,1,08.870,8870,-0.3500,10.3700,0.5900,10.3927,-0.0142,-0.0142,0.3218,1.44,86.19,30.75,-0.3687,10.0280,0.8180,10.0680
11,3,1,3,1,09.033,9033,-0.0200,9.7000,0.6100,9.7192,0.0535,-0.0120,0.2116,-0.31,85.88,32.63,-0.3228,9.9847,0.7906,10.0212
11,3,1,3,1,09.154,9154,0.0400,9.5600,0.7300,9.5879,0.0371,0.0098,0.2302,-1.50,85.56,33.81,-0.2750,9.9288,0.7826,9.9634
11,3,1,3,1,09.280,9280,0.3700,9.2900,1.0300,9.3542,0.0240,0.0371,0.1865,-3.25,85.31,35.38,-0.1900,9.8446,0.8152,9.8801
11,3,1,3,1,09.400,9400,1.3500,9.3100,0.8300,9.4439,-0.0436,0.0131,0.1625,-5.25,85.38,37.19,0.0130,9.7741,0.8172,9.8083
11,3,1,3,1,09.521,9521,1.7200,9.3300,0.7600,9.5176,-0.0829,-0.0262,0.2716,-6.38,85.75,38.38,0.2379,9.7156,0.8096,9.7522
11,3,1,3,1,09.643,9643,1.0900,9.0400,0.6600,9.1294,-0.0491,-0.0513,0.2542,-6.94,86.19,39.38,0.3502,9.6266,0.7899,9.6653
11,3,1,3,1,09.763,9763,0.6900,8.9500,0.4900,8.9899,-0.0022,-0.0524,-0.0458,-7.63,86.25,40.00,0.3950,9.5374,0.7504,9.5751
11,3,1,3,1,09.885,9885,1.6900,9.4700,0.6200,9.6396,-0.0229,0.0033,0.2836,-9.06,86.25,41.31,0.5656,9.5285,0.7332,9.5734
11,3,1,3,1,10.047,10047,1.4800,9.4800,0.5200,9.6089,-0.0262,0.0360,0.1156,-9.56,86.50,41.13,0.6861,9.5222,0.7051,9.5728
11,3,1,3,1,10.172,10172,2.1600,9.8100,0.5100,10.0579,-0.0240,0.0229,0.1440,-10.81,86.69,42.06,0.8803,9.5601,0.6794,9.6245
11,3,1,3,1,10.293,10293,1.8300,9.6600,0.5300,9.8461,0.0011,0.0109,0.0480,-11.25,86.75,42.00,1.0055,9.5732,0.6597,9.6485
11,3,1,3,1,10.414,10414,2.5200,9.7600,0.7300,10.1065,0.0185,-0.0044,0.0305,-11.94,86.69,42.63,1.2050,9.5979,0.6690,9.6963
11,3,1,3,1,10.535,10535,1.8400,9.6400,0.4900,9.8263,0.0556,-0.0185,-0.0229,-11.44,86.44,41.88,1.2887,9.6034,0.6454,9.7110
11,3,1,3,1,10.656,10656,1.8200,9.4300,0.4900,9.6165,0.0382,-0.0109,0.0295,-11.38,86.06,41.81,1.3587,9.5806,0.6249,9.6966
11,3,1,3,1,10.777,10777,1.5100,9.4400,0.8500,9.5977,-0.0229,0.0229,0.0524,-11.19,86.00,41.50,1.3787,9.5620,0.6546,9.6831
11,3,1,3,1,10.898,10898,2.4400,9.5900,0.6300,9.9156,-0.0164,0.0185,0.0502,-11.81,86.19,41.94,1.5185,9.5657,0.6513,9.7074
11,3,1,3,1,11.064,11064,1.8400,9.2200,0.5700,9.4191,0.0360,-0.0033,-0.0371,-11.25,86.13,41.38,1.5609,9.5202,0.6406,9.6685
11,3,1,3,1,11.186,11186,1.0100,9.0500,0.7100,9.1338,0.0644,0.0196,-0.1865,-10.25,85.75,40.31,1.4883,9.4582,0.6498,9.5966
11,3,1,3,1,11.307,11307,2.8700,9.9800,0.8300,10.4176,0.0742,0.0360,0.0153,-10.69,85.38,40.38,1.6704,9.5270,0.6735,9.6957
11,3,1,3,1,11.428,11428,0.2900,8.8600,0.8400,8.9045,0.0404,0.0393,-0.2422,-7.75,85.00,37.31,1.4885,9.4391,0.6955,9.5810
11,3,1,3,1,11.549,11549,1.7400,10.0600,1.0200,10.2602,0.0175,0.0764,-0.0011,-7.94,84.94,37.00,1.5216,9.5209,0.7382,9.6699
11,3,1,3,1,11.671,11671,0.6400,9.7300,0.9900,9.8012,0.0120,0.0709,-0.3022,-6.06,84.88,34.63,1.4054,9.5485,0.7714,9.6821
11,3,1,3,1,11.792,11792,0.4500,9.3600,0.6900,9.3962,-0.0273,0.0578,-0.1156,-4.75,85.00,32.88,1.2795,9.5236,0.7607,9.6393
11,3,1,3,1,11.918,11918,1.5000,10.1100,0.9100,10.2611,0.0000,0.0120,-0.0731,-5.19,85.19,33.06,1.3086,9.6009,0.7803,9.7210
11,3,1,3,1,12.080,12080,0.5500,9.3500,0.8200,9.4020,0.0185,-0.0273,-0.2378,-3.94,85.13,31.94,1.2086,9.5678,0.7856,9.6758
11,3,1,3,1,12.201,12201,0.4600,9.6100,0.6400,9.6423,0.0011,0.0055,-0.1200,-3.06,85.06,31.13,1.1100,9.5734,0.7664,9.6679
11,3,1,3,1,12.322,12322,0.6400,10.0400,0.7700,10.0898,0.0458,0.0131,-0.0971,-2.44,85.06,30.38,1.0480,9.6349,0.7669,9.7220
11,3,1,3,1,12.443,12443,0.0400,9.6500,0.9400,9.6958,0.0785,0.0033,-0.0993,-1.25,84.63,29.19,0.9152,9.6369,0.7897,9.7124
11,3,1,3,1,12.568,12568,-0.4200,10.1500,1.0300,10.2108,0.0175,0.0164,-0.2607,-0.25,84.25,28.19,0.7393,9.7045,0.8213,9.7672
11,3,1,3,1,12.691,12691,-0.2600,9.3200,1.0700,9.3848,-0.0055,0.0415,-0.0982,0.50,84.19,27.06,0.6076,9.6538,0.8541,9.7106
11,3,1,3,1,12.812,12812,0.2000,10.3800,1.0700,10.4369,-0.0742,-0.0153,0.1833,0.13,84.44,27.38,0.5539,9.7495,0.8826,9.8050
11,3,1,3,1,12.933,12933,-0.1900,10.4000,0.9600,10.4459,-0.0371,-0.0360,-0.1505,0.31,84.75,27.38,0.4559,9.8352,0.8928,9.8862
11,3,1,3,1,13.096,13096,-0.2400,10.0600,0.8100,10.0954,0.0011,-0.0218,-0.1974,1.00,84.81,26.94,0.3642,9.8648,0.8819,9.9109
11,3,1,3,1,13.222,13222,-0.6000,9.8400,0.9200,9.9011,0.0229,-0.0404,-0.2563,1.94,84.81,26.19,0.2371,9.8616,0.8869,9.9042
11,3,1,3,1,13.343,13343,-0.5200,9.5700,0.8100,9.6183,0.0229,-0.0098,0.0349,2.19,84.63,26.06,0.1373,9.8232,0.8768,9.8632
11,3,1,3,1,13.464,13464,-0.2800,9.9000,0.8900,9.9439,-0.0175,0.0131,0.1418,1.94,84.69,26.31,0.0823,9.8333,0.8785,9.8728
11,3,1,3,1,13.585,13585,-0.4200,10.2500,0.8500,10.2938,0.0044,-0.0011,0.0513,1.56,84.75,26.69,0.0161,9.8882,0.8747,9.9268
11,3,1,3,1,13.707,13707,-0.3400,9.6700,0.8000,9.7090,0.0055,-0.0109,-0.0120,1.31,84.75,26.88,-0.0308,9.8594,0.8649,9.8974
11,3,1,3,1,13.828,13828,-0.4900,9.6200,0.7700,9.6632,0.0000,-0.0055,0.0502,1.50,84.81,26.75,-0.0913,9.8279,0.8524,9.8652
11,3,1,3,1,13.950,13950,-0.3200,10.3200,0.8300,10.3583,0.0033,-0.0033,0.0513,0.88,84.75,27.38,-0.1214,9.8927,0.8494,9.9299
11,3,1,3,1,14.112,14112,0.0300,10.6500,1.1200,10.7088,0.0229,0.0011,0.0567,0.00,84.75,29.13,-0.1015,9.9925,0.8851,10.0322
11,3,1,3,1,14.236,14236,0.2900,10.8700,1.0000,10.9198,-0.0022,-0.0218,0.1429,-0.69,84.69,30.06,-0.0499,10.1082,0.9002,10.1483
11,3,1,3,1,14.356,14356,0.6300,10.2500,0.9900,10.3170,0.0131,-0.0240,0.0840,-1.31,84.69,30.94,0.0397,10.1268,0.9121,10.1679
11,4,1,3,1,14.477,14477,0.0300,9.2000,0.8800,9.2420,0.0229,-0.0513,0.0065,-1.25,84.56,31.13,0.0384,10.0047,0.9078,10.0459
11,4,1,3,1,14.598,14598,0.3400,8.9700,1.0500,9.0376,0.0109,-0.0251,0.2269,-2.13,84.50,32.31,0.0782,9.8684,0.9266,9.9121
11,4,1,3,1,14.719,14719,0.4600,9.4400,1.0000,9.5040,-0.0153,0.0120,0.1374,-3.06,84.50,33.25,0.1285,9.8119,0.9362,9.8573
11,4,1,3,1,14.840,14840,0.9800,9.3000,0.9200,9.3966,-0.0360,-0.0065,0.0033,-3.81,84.63,34.00,0.2407,9.7445,0.9341,9.7921
11,4,1,3,1,14.962,14962,0.8400,9.9200,0.9900,10.0046,-0.0502,-0.0360,0.1014,-4.25,84.94,34.63,0.3197,9.7676,0.9415,9.8181
11,4,1,3,1,15.128,15128,0.0700,9.7300,0.6800,9.7540,-0.0393,0.0240,0.1309,-4.44,85.31,35.00,0.2868,9.7626,0.9070,9.8089
11,4,1,3,1,15.249,15249,0.4700,8.4100,1.0800,8.4921,-0.0109,0.0742,-0.0949,-5.25,85.63,35.44,0.3109,9.5844,0.9298,9.6344
11,4,1,3,1,15.370,15370,1.3800,8.8500,0.3900,8.9654,0.0087,0.0884,0.2007,-6.13,85.69,35.69,0.4518,9.4876,0.8587,9.5371
11,4,1,3,1,15.491,15491,0.0900,11.5900,0.9400,11.6284,0.0371,0.0502,0.2782,-6.13,85.50,35.31,0.4041,9.7647,0.8694,9.8116
11,4,1,3,1,15.612,15612,2.7500,8.0300,0.5800,8.5076,0.0949,-0.0502,-0.9098,-8.75,85.00,37.63,0.7132,9.5361,0.8313,9.5988
11,4,1,3,1,15.734,15734,0.5900,10.1800,0.6300,10.2165,-0.0796,0.0218,0.8279,-5.94,85.00,35.00,0.6970,9.6209,0.8047,9.6797
11,4,1,3,1,15.855,15855,1.6500,9.8200,1.1800,10.0273,-0.0011,0.0371,-0.4920,-8.88,85.25,37.50,0.8226,9.6472,0.8542,9.7198
11,4,1,3,1,15.981,15981,1.7500,9.8800,0.8000,10.0656,0.0033,0.0764,0.0153,-8.00,85.31,35.88,0.9448,9.6778,0.8470,9.7607
11,4,1,3,1,16.143,16143,1.5900,10.0600,0.6200,10.2037,-0.0371,-0.0502,0.1516,-8.06,85.38,35.94,1.0298,9.7282,0.8171,9.8166
11,4,1,3,1,16.264,16264,0.5900,9.7300,0.9700,9.7960,-0.0033,-0.0611,-0.3982,-7.56,85.50,35.81,0.9719,9.7284,0.8373,9.8126
11,4,1,3,1,16.385,16385,1.7300,8.8500,0.7900,9.0520,-0.0240,-0.0120,0.1385,-8.00,85.56,36.44,1.0718,9.6127,0.8310,9.7079
11,4,1,3,1,16.506,16506,2.2700,9.6800,0.7400,9.9701,-0.0087,-0.0611,0.1036,-8.69,85.69,37.31,1.2297,9.6216,0.8190,9.7343
11,4,1,3,1,16.627,16627,0.1500,9.9400,0.8900,9.9809,0.0502,-0.0687,-0.0164,-7.19,85.44,36.31,1.0874,9.6635,0.8284,9.7597
11,4,1,3,1,16.764,16764,0.9900,8.4200,0.8400,8.5195,0.0131,-0.0175,-0.0676,-7.63,85.06,36.94,1.0746,9.4997,0.8299,9.5962
11,4,1,3,1,16.885,16885,2.0100,9.6400,0.8400,9.8831,0.0164,0.0295,-0.0371,-8.25,85.06,37.50,1.1978,9.5181,0.8313,9.6292
11,4,1,3,1,17.006,17006,0.6800,8.7400,0.9400,8.8167,0.0327,0.0665,-0.3153,-5.88,84.94,34.81,1.1296,9.4156,0.8456,9.5207
11,4,1,3,1,17.168,17168,1.0300,9.7700,0.7500,9.8527,0.0175,0.0698,0.1102,-4.69,84.81,32.88,1.1165,9.4623,0.8330,9.5643
11,4,1,3,1,17.289,17289,0.9700,9.9900,0.9100,10.0781,0.0175,0.0295,-0.1178,-4.13,84.69,31.94,1.0972,9.5318,0.8431,9.6318
11,4,1,3,1,17.411,17411,0.8400,9.9000,1.0800,9.9941,0.0229,0.0262,-0.0905,-3.88,84.56,31.50,1.0633,9.5804,0.8743,9.6788
11,4,1,3,1,17.532,17532,0.3600,9.7000,0.7600,9.7364,-0.0065,0.0382,-0.1320,-2.44,84.50,29.88,0.9706,9.5961,0.8593,9.6833
11,4,1,3,1,17.657,17657,0.2700,10.0800,1.0900,10.1424,0.0295,-0.0207,-0.1440,-1.81,84.44,29.19,0.8783,9.6599,0.8897,9.7404
11,4,1,3,1,17.779,17779,0.4400,9.8900,1.0200,9.9522,0.0022,-0.0458,0.1593,-1.75,84.25,29.38,0.8205,9.6902,0.9069,9.7671
11,4,1,3,1,17.899,17899,0.1900,10.0700,0.9800,10.1194,-0.0316,-0.0851,-0.1734,-1.31,84.38,29.38,0.7374,9.7403,0.9165,9.8110
11,4,1,3,1,18.020,18020,-0.2700,10.2100,0.9200,10.2549,0.0196,-0.0764,-0.2640,-0.31,84.38,29.00,0.6047,9.8022,0.9170,9.8635
11,4,1,3,1,18.182,18182,-0.8900,9.4300,0.9300,9.5175,-0.0371,-0.0229,-0.0469,1.13,84.38,28.25,0.4077,9.7531,0.9187,9.8048
11,4,1,3,1,18.309,18309,-0.1000,10.6000,1.3900,10.6912,-0.0044,-0.0175,0.0044,0.56,84.63,29.00,0.3408,9.8647,0.9808,9.9192
11,4,1,3,1,18.430,18430,-0.5100,9.9600,1.0000,10.0231,0.0142,0.0055,-0.3349,1.63,84.69,28.25,0.2287,9.8773,0.9833,9.9287
11,4,1,3,1,18.551,18551,-0.4700,10.7100,1.2800,10.7965,-0.0153,0.0120,0.0665,2.19,84.75,27.94,0.1366,9.9870,1.0224,10.0401
11,5,1,3,1,18.672,18672,-0.8000,9.6800,0.7100,9.7389,-0.0578,-0.0207,-0.2029,2.38,85.00,28.06,0.0132,9.9465,0.9812,9.9948
11,5,1,3,1,18.793,18793,0.4800,10.2900,0.6800,10.3236,-0.0262,-0.0055,0.0382,1.50,85.38,29.25,0.0747,9.9918,0.9415,10.0363
11,5,1,3,1,18.915,18915,-0.9300,9.9500,0.7800,10.0238,0.0633,-0.0262,-0.0709,2.44,85.19,28.63,-0.0577,9.9863,0.9203,10.0288
11,5,1,3,1,19.036,19036,-0.5300,10.3800,0.9000,10.4324,0.0644,0.0044,0.0087,2.06,84.81,29.31,-0.1199,10.0382,0.9176,10.0807
11,5,1,3,1,19.202,19202,-0.3400,10.9200,1.0600,10.9766,0.0218,0.0436,0.1440,1.19,84.31,29.94,-0.1489,10.1544,0.9364,10.1985
11,5,1,3,1,19.323,19323,-0.0700,10.2100,1.4700,10.3155,-0.0338,0.0284,0.0796,0.44,84.31,30.44,-0.1385,10.1617,1.0067,10.2124
11,5,1,3,1,19.444,19444,0.2800,9.5600,0.9700,9.6132,-0.0840,-0.0262,-0.1047,0.00,84.69,30.81,-0.0834,10.0824,1.0018,10.1324
11,5,1,3,1,19.565,19565,-0.2900,9.5600,0.7000,9.5900,-0.1385,-0.0556,-0.0676,0.56,85.44,30.56,-0.1106,10.0136,0.9621,10.0603
11,5,1,3,1,19.686,19686,0.0100,10.3500,0.6800,10.3723,-0.1047,-0.0698,0.1429,-0.06,86.31,31.63,-0.0947,10.0579,0.9249,10.1008
11,5,1,3,1,19.808,19808,-0.1500,10.0400,0.4600,10.0517,-0.0305,-0.0731,0.0262,-0.56,86.69,32.63,-0.1020,10.0555,0.8636,10.0931
11,5,1,3,1,19.929,19929,0.1000,10.0400,0.4300,10.0497,-0.0065,-0.0142,0.1767,-1.31,86.94,33.69,-0.0754,10.0535,0.8065,10.0861
11,5,1,3,1,20.055,20055,0.4800,9.5700,0.3400,9.5881,0.0175,-0.0098,-0.1091,-2.00,86.88,34.31,-0.0022,9.9898,0.7450,10.0175
11,5,1,3,1,20.217,20217,0.3800,9.1300,0.3900,9.1462,0.0120,0.0425,0.0185,-2.31,86.81,34.50,0.0482,9.8765,0.6982,9.9013
11,5,1,3,1,20.338,20338,0.6000,8.4000,0.3600,8.4291,0.0000,0.0556,0.1887,-3.13,86.75,34.88,0.1209,9.6819,0.6537,9.7047
11,5,1,3,1,20.459,20459,0.6100,8.8200,0.3600,8.8484,-0.0371,0.0382,0.2760,-4.25,86.88,35.75,0.1853,9.5683,0.6150,9.5899
11,5,1,3,1,20.581,20581,1.4200,10.0400,0.5400,10.1543,0.0033,0.0742,0.2989,-6.19,87.06,37.38,0.3480,9.6305,0.6051,9.6558
11,5,1,3,1,20.707,20707,0.9800,9.2000,0.4400,9.2625,0.0654,0.0873,0.1800,-6.69,86.81,37.31,0.4313,9.5738,0.5833,9.6012
11,5,1,3,1,20.828,20828,1.8700,9.5000,0.5900,9.7003,0.0687,0.1145,0.2465,-8.69,86.38,37.88,0.6209,9.5640,0.5842,9.6020
11,5,1,3,1,20.948,20948,2.0900,9.6400,0.7400,9.8917,0.0545,0.0774,-0.0927,-9.88,86.06,38.13,0.8145,9.5741,0.6047,9.6277
11,5,1,3,1,21.069,21069,1.7300,9.5200,0.8500,9.7132,0.0480,0.0240,0.0622,-9.75,85.75,37.25,0.9351,9.5669,0.6371,9.6336
11,5,1,3,1,21.231,21231,2.1700,9.4800,0.6500,9.7469,-0.0065,-0.0295,0.0633,-10.63,85.56,37.88,1.0979,9.5555,0.6388,9.6395
11,5,1,3,1,21.352,21352,1.6200,9.8800,0.8300,10.0463,0.0000,-0.0796,0.1625,-10.19,85.50,37.69,1.1667,9.5982,0.6640,9.6917
11,5,1,3,1,21.474,21474,1.5300,9.4200,0.7800,9.5753,0.0469,-0.1004,-0.0545,-10.81,85.19,38.50,1.2145,9.5748,0.6793,9.6754
11,5,1,3,1,21.600,21600,2.7400,9.2500,1.0300,9.7021,0.0065,-0.0764,0.0458,-11.63,84.94,39.81,1.4156,9.5320,0.7255,9.6638
11,5,1,3,1,21.721,21721,1.5700,9.5400,0.7600,9.6981,-0.0327,-0.0109,0.1658,-10.75,84.94,39.25,1.4359,9.5330,0.7300,9.6682
11,5,1,3,1,21.843,21843,0.3400,9.3000,0.9800,9.3577,-0.0633,0.0469,-0.3272,-9.00,85.38,37.44,1.2915,9.5023,0.7630,9.6200
11,5,1,3,1,21.963,21963,2.5100,10.3700,0.6200,10.6874,-0.0044,0.0698,0.2116,-9.75,85.63,37.75,1.4521,9.6167,0.7441,9.7541
11,5,1,3,1,22.085,22085,0.0000,9.2100,0.6500,9.2329,-0.0011,-0.0229,-0.6207,-7.56,85.69,35.44,1.2607,9.5631,0.7317,9.6735
11,5,1,3,1,22.252,22252,1.7600,9.9400,0.7700,10.1239,0.0120,0.0175,-0.0447,-8.25,85.56,36.13,1.3265,9.6127,0.7368,9.7318
11,5,1,3,1,22.373,22373,1.0500,10.3700,0.6600,10.4439,-0.0076,-0.0065,0.2422,-7.19,85.50,34.94,1.2901,9.7125,0.7267,9.8247
11,5,1,3,1,22.493,22493,-0.1600,10.0400,0.8600,10.0780,-0.0033,-0.0665,-0.4287,-5.88,85.50,34.00,1.0990,9.7557,0.7442,9.8456
11,5,1,3,1,22.614,22614,0.3600,9.5500,0.8900,9.5981,0.0360,-0.0229,-0.1898,-5.75,85.31,34.13,1.0016,9.7286,0.7634,9.8098
11,5,1,3,1,22.735,22735,0.8800,9.2900,0.9100,9.3759,-0.0011,-0.0305,-0.3512,-5.38,85.25,33.81,0.9856,9.6708,0.7827,9.7523
11,5,1,3,1,22.856,22856,1.5600,10.4500,0.9900,10.6121,0.0207,-0.0185,0.1309,-5.81,85.25,34.38,1.0613,9.7735,0.8101,9.8642
11,5,1,3,1,22.978,22978,-0.5300,8.3300,0.8000,8.3851,-0.0033,-0.0305,-0.5498,-3.69,85.13,32.44,0.8516,9.5833,0.8087,9.6549
11,5,1,3,1,23.104,23104,2.3100,9.6400,0.9400,9.9574,-0.0087,0.0120,0.3360,-5.69,85.19,34.44,1.0438,9.5907,0.8260,9.6827
11,5,1,3,1,23.266,23266,0.1200,10.5500,0.8600,10.5857,-0.0273,0.0447,-0.1767,-3.19,85.31,31.81,0.9220,9.7171,0.8305,9.7961
11,5,1,3,1,23.387,23387,0.5900,10.7400,0.7800,10.7844,0.0207,0.0611,-0.2116,-2.50,85.38,30.69,0.8783,9.8519,0.8239,9.9252
11,5,1,3,1,23.508,23508,-0.3200,8.9200,0.7300,8.9555,-0.0022,0.0284,-0.1025,-0.69,85.25,28.63,0.7204,9.7291,0.8115,9.7894
11,5,1,3,1,23.630,23630,0.4200,9.6400,0.6100,9.6684,-0.0185,0.0065,0.0164,-1.25,85.31,29.06,0.6808,9.7174,0.7849,9.7728
11,5,1,3,1,23.751,23751,0.4500,9.6800,0.8000,9.7234,0.0185,0.0055,-0.1113,-1.00,85.31,28.81,0.6504,9.7125,0.7869,9.7660
11,5,1,3,1,23.877,23877,-0.2700,9.9900,0.8100,10.0264,0.0371,-0.0338,-0.4112,0.31,85.13,27.50,0.5291,9.7490,0.7900,9.7953
11,5,1,3,1,23.998,23998,-0.8300,9.6500,0.7300,9.7131,0.0065,-0.0033,-0.0916,2.50,85.06,25.50,0.3500,9.7360,0.7821,9.7736
11,5,1,3,1,24.119,24119,-0.3700,9.7500,0.8600,9.7948,-0.0393,0.0055,-0.1505,3.00,85.19,25.00,0.2551,9.7378,0.7923,9.7733
11,5,1,3,1,24.281,24281,-1.2500,10.1200,0.5600,10.2123,-0.0251,0.0142,-0.2138,4.94,85.38,23.00,0.0568,9.7882,0.7617,9.8179
11,5,1,3,1,24.402,24402,-0.8100,10.7500,0.9500,10.8223,-0.0327,-0.0011,-0.0196,5.31,85.63,22.56,-0.0574,9.9149,0.7865,9.9462
11,5,1,3,1,24.529,24529,-1.3900,9.8600,0.7300,9.9842,0.0349,-0.0338,-0.0665,6.38,85.63,22.06,-0.2330,9.9077,0.7791,9.9410
11,5,1,3,1,24.650,24650,-0.0900,10.4200,0.9900,10.4673,0.0142,-0.0109,0.1418,5.69,85.50,23.50,-0.2142,9.9752,0.8069,10.0101
11,5,1,3,1,24.771,24771,-1.8000,9.7200,0.5800,9.9023,0.0000,-0.0382,-0.2105,7.31,85.38,22.50,-0.4232,9.9416,0.7770,9.9809
11,5,1,3,1,24.892,24892,-0.8500,9.9600,0.7700,10.0258,-0.0273,-0.0469,-0.1429,7.19,85.56,23.19,-0.4794,9.9440,0.7761,9.9857
11,5,1,3,1,25.013,25013,-1.3700,9.4400,0.6900,9.5638,-0.0436,-0.0436,-0.0305,8.31,85.88,22.56,-0.5968,9.8776,0.7647,9.9251
11,5,1,3,1,25.134,25134,-1.5700,9.6400,0.6000,9.7854,-0.0262,-0.0316,0.0295,8.63,86.13,22.56,-0.7250,9.8463,0.7430,9.9009
11,5,1,3,1,25.296,25296,-1.7300,10.7700,0.5900,10.9240,0.0185,-0.0055,0.1058,8.25,86.19,23.56,-0.8574,9.9680,0.7228,10.0309
11,5,1,3,1,25.422,25422,-1.7500,11.0400,0.7900,11.2057,0.0349,0.0153,0.0545,7.81,86.06,24.19,-0.9751,10.1093,0.7317,10.1825
11,5,1,3,1,25.543,25543,-1.2000,10.8500,0.9600,10.9583,0.0665,0.0098,0.0894,7.00,85.63,25.25,-1.0047,10.2069,0.7618,10.2845
11,6,1,3,1,25.664,25664,-1.0800,9.6200,0.8300,9.7160,0.0316,-0.0207,0.0622,6.63,85.25,25.63,-1.0146,10.1295,0.7708,10.2094
11,6,1,3,1,25.784,25784,-1.1200,9.7700,0.9400,9.8788,-0.0033,-0.0545,0.0567,6.31,85.13,26.25,-1.0285,10.0822,0.7931,10.1655
11,6,1,3,1,25.906,25906,-1.2000,9.9000,0.7900,10.0037,-0.0447,-0.0753,-0.0229,6.00,85.31,27.00,-1.0511,10.0582,0.7927,10.1439
11,6,1,3,1,26.026,26026,-1.4500,10.1100,0.6000,10.2311,-0.0327,-0.0589,0.0993,5.69,85.63,27.81,-1.1037,10.0650,0.7673,10.1543
11,6,1,3,1,26.147,26147,-0.7100,9.5700,0.4000,9.6046,-0.0218,-0.0305,0.1876,4.56,85.88,29.19,-1.0518,9.9998,0.7189,10.0806
11,6,1,3,1,26.314,26314,0.0100,9.6600,0.5300,9.6745,-0.0044,-0.0240,0.0600,2.63,86.06,31.25,-0.9119,9.9550,0.6940,10.0207
11,6,1,3,1,26.436,26436,-0.1500,8.7800,0.7000,8.8091,-0.0153,0.0185,0.3218,1.75,86.13,32.13,-0.8115,9.8002,0.6948,9.8582
11,6,1,3,1,26.557,26557,0.4100,8.3900,0.6100,8.4221,-0.0360,0.0044,0.2542,0.56,86.44,33.25,-0.6505,9.6143,0.6836,9.6605
11,6,1,3,1,26.678,26678,-0.5400,8.7400,0.6400,8.7800,0.0098,-0.0338,0.1811,-0.06,86.50,34.13,-0.6360,9.4991,0.6779,9.5445
11,6,1,3,1,26.799,26799,0.9500,9.8200,0.7400,9.8936,-0.0065,0.0251,0.4538,-3.06,86.44,37.13,-0.4270,9.5414,0.6861,9.5756
11,6,1,3,1,26.920,26920,0.8600,9.3800,0.4900,9.4321,-0.0327,0.0611,0.0480,-4.25,86.56,38.00,-0.2574,9.5201,0.6602,9.5465
11,6,1,3,1,27.042,27042,0.9500,9.9300,0.4800,9.9869,-0.0360,0.0425,0.1658,-5.19,86.81,38.56,-0.0983,9.5741,0.6365,9.5958
11,6,1,3,1,27.163,27163,0.9300,10.0600,0.5500,10.1179,0.0153,0.0109,0.0840,-6.06,86.88,38.63,0.0372,9.6382,0.6251,9.6585
11,6,1,3,1,27.328,27328,1.3000,9.6800,0.6100,9.7859,0.0785,0.0284,0.1767,-7.06,86.44,38.69,0.2036,9.6437,0.6231,9.6659
11,6,1,3,1,27.449,27449,0.9700,9.5100,0.7100,9.5857,0.0567,0.0720,0.0491,-7.25,85.94,38.13,0.3046,9.6261,0.6345,9.6518
11,6,1,3,1,27.570,27570,1.4900,9.6700,0.9900,9.8341,0.0316,0.0545,0.0807,-8.19,85.69,38.56,0.4608,9.6319,0.6814,9.6669
11,6,1,3,1,27.691,27691,2.1900,9.3600,0.7300,9.6405,-0.0109,0.0175,0.0164,-9.38,85.63,39.31,0.6887,9.5960,0.6878,9.6453
11,6,1,3,1,27.812,27812,2.2100,9.6200,0.6600,9.8926,-0.0404,-0.0305,-0.0491,-9.75,85.81,39.19,0.8892,9.5992,0.6841,9.6645
11,6,1,3,1,27.934,27934,1.5200,9.2800,0.6600,9.4268,-0.0164,-0.0480,-0.0884,-9.00,86.00,38.75,0.9723,9.5571,0.6809,9.6306
11,6,1,3,1,28.055,28055,1.3300,10.7500,0.6500,10.8514,-0.0142,-0.0458,0.1778,-8.81,86.06,38.69,1.0194,9.7143,0.6769,9.7911
11,6,1,3,1,28.181,28181,1.2600,9.2400,0.8300,9.3624,0.0044,-0.1014,-0.0764,-8.94,85.94,39.38,1.0511,9.6518,0.6970,9.7339
11,6,1,3,1,28.343,28343,2.2400,9.9700,0.8300,10.2522,-0.0196,-0.1156,0.4494,-10.88,85.75,42.25,1.2078,9.6937,0.7146,9.7948
11,6,1,3,1,28.464,28464,2.1000,9.7600,0.4600,9.9940,0.0164,-0.2716,-0.0578,-12.31,85.50,44.88,1.3254,9.7025,0.6810,9.8162
11,6,1,3,1,28.585,28585,2.2800,9.6400,0.7700,9.9358,0.0164,-0.2629,0.4789,-13.75,84.81,48.13,1.4512,9.6942,0.6927,9.8267
11,6,1,3,1,28.707,28707,2.0000,9.5900,0.4900,9.8086,-0.0109,-0.1724,-0.2803,-14.38,84.44,50.25,1.5235,9.6805,0.6660,9.8223
11,6,1,3,1,28.833,28833,0.9300,9.3200,0.9400,9.4133,0.0087,-0.0218,0.0818,-12.81,84.31,49.31,1.4453,9.6330,0.7021,9.7661
11,6,1,3,1,28.954,28954,1.7600,9.5200,1.2400,9.7604,0.0316,0.1789,-0.0033,-13.31,84.38,49.13,1.4867,9.6181,0.7730,9.7630
11,6,1,3,1,29.075,29075,1.8100,8.9500,1.2500,9.2163,0.0196,0.3229,0.0611,-12.94,84.56,46.56,1.5293,9.5301,0.8359,9.6881
11,6,1,3,1,29.195,29195,3.4300,8.6100,1.0500,9.3274,-0.0240,0.2411,-0.0011,-14.13,85.06,45.50,1.7798,9.4088,0.8641,9.6146
11,6,1,3,1,29.357,29357,2.1800,9.2400,0.6000,9.5126,-0.1473,0.0840,0.0807,-12.13,86.25,42.19,1.8325,9.3866,0.8293,9.5997
11,6,1,3,1,29.478,29478,2.2700,9.3700,0.1100,9.6417,-0.0862,0.0404,-0.1560,-12.00,87.13,41.81,1.8902,9.3844,0.7345,9.6010
11,6,1,3,1,29.599,29599,2.1600,10.1000,0.5400,10.3425,-0.0458,-0.0087,0.0065,-10.88,87.56,40.69,1.9257,9.4787,0.7089,9.6983
11,6,1,3,1,29.723,29723,1.7100,9.9900,0.2600,10.1386,-0.0240,-0.0436,-0.2378,-10.00,87.75,40.06,1.8973,9.5461,0.6497,9.7545
11,6,1,3,1,29.847,29847,1.2900,9.7700,0.3900,9.8625,-0.0022,-0.0251,-0.3033,-8.50,87.75,38.88,1.8173,9.5756,0.6155,9.7659
11,6,1,3,1,29.968,29968,1.0100,9.2600,0.4400,9.3253,0.0044,0.0055,-0.1429,-7.06,87.69,37.56,1.7109,9.5340,0.5924,9.7044
11,6,1,3,1,30.088,30088,1.1300,10.0000,0.1300,10.0645,0.0207,0.0284,-0.1364,-6.50,87.63,36.88,1.6344,9.5954,0.5314,9.7481
11,6,1,3,1,30.209,30209,0.8500,10.2200,0.4000,10.2631,0.0240,0.0524,-0.1811,-5.31,87.56,35.38,1.5310,9.6777,0.5141,9.8115
11,6,1,3,1,30.371,30371,0.9800,10.0200,0.6400,10.0881,0.0349,0.0371,-0.0916,-4.31,87.31,33.94,1.4584,9.7228,0.5307,9.8459
11,6,1,3,1,30.492,30492,0.5900,10.1800,0.5900,10.2141,0.0229,0.0055,-0.1014,-3.50,87.13,33.06,1.3440,9.7831,0.5385,9.8896
11,6,1,3,1,30.614,30614,0.1100,10.0900,0.5100,10.1035,0.0109,0.0196,-0.0753,-2.56,86.94,32.06,1.1814,9.8235,0.5348,9.9087
11,6,1,3,1,30.739,30739,0.7900,9.9200,0.5500,9.9666,-0.0273,0.0022,-0.0916,-2.56,87.00,31.88,1.1298,9.8362,0.5368,9.9154
11,6,1,3,1,30.860,30860,1.2000,9.8500,0.3200,9.9280,-0.0305,-0.0458,-0.0153,-2.38,87.25,31.88,1.1390,9.8380,0.5082,9.9168
11,6,1,3,1,30.981,30981,0.3400,10.5200,0.4000,10.5331,0.0175,-0.0349,0.3556,-1.75,87.19,32.06,1.0337,9.9279,0.4939,9.9938
11,6,1,3,1,31.102,31102,0.1300,10.3300,0.5500,10.3454,0.0262,-0.0338,-0.2454,-1.50,87.00,32.25,0.9147,9.9809,0.5013,10.0352
11,6,1,3,1,31.223,31223,0.0000,10.0200,0.6000,10.0379,0.0022,-0.0545,-0.0055,-1.06,86.94,32.50,0.7941,9.9860,0.5143,10.0308
11,6,1,3,1,31.385,31385,0.3900,9.6800,0.4800,9.6997,-0.0055,-0.0131,-0.0415,-1.75,86.94,33.75,0.7409,9.9457,0.5098,9.9863
11,6,1,3,1,31.507,31507,0.5100,10.5800,0.6900,10.6147,0.0164,0.0164,0.0971,-1.81,86.94,33.81,0.7104,10.0293,0.5336,10.0686
11,6,1,3,1,31.632,31632,0.0600,10.8100,0.6900,10.8322,0.0611,0.0011,-0.1538,-1.56,86.63,33.56,0.6247,10.1322,0.5542,10.1665
11,6,1,3,1,31.753,31753,0.6100,10.4500,0.8400,10.5014,0.0447,-0.0076,0.1102,-2.06,86.25,34.19,0.6228,10.1741,0.5918,10.2103
11,7,1,3,1,31.874,31874,0.4700,9.9900,0.7100,10.0262,-0.0273,-0.0589,0.0600,-2.31,86.19,34.75,0.6027,10.1498,0.6074,10.1858
11,7,1,3,1,31.996,31996,0.3800,9.7200,0.6300,9.7478,-0.0273,-0.1233,0.0687,-2.88,86.38,35.94,0.5733,10.0932,0.6104,10.1278
11,7,1,3,1,32.116,32116,0.6900,10.0600,0.4600,10.0941,-0.0131,-0.1287,0.2476,-3.88,86.56,37.75,0.5887,10.0888,0.5906,10.1232
11,7,1,3,1,32.237,32237,1.0800,9.7000,0.4200,9.7690,0.0262,-0.1451,0.1374,-4.81,86.44,39.63,0.6534,10.0376,0.5681,10.0748
11,7,1,3,1,32.405,32405,1.1500,9.3600,0.6900,9.4556,0.0196,-0.1571,-0.0153,-5.50,86.13,41.63,0.7189,9.9483,0.5842,9.9913
11,7,1,3,1,32.525,32525,1.2700,9.2700,0.8700,9.3970,-0.0469,-0.1582,-0.0382,-5.81,86.00,43.00,0.7915,9.8589,0.6218,9.9101
11,7,1,3,1,32.646,32646,0.2600,9.0200,0.5200,9.0387,-0.0796,-0.1789,-0.1724,-5.06,86.31,43.44,0.7215,9.7484,0.6084,9.7939
11,7,1,3,1,32.767,32767,-0.1800,8.8800,0.6400,8.9049,-0.0502,-0.1407,0.0415,-4.19,86.50,43.75,0.6027,9.6339,0.6126,9.6722
11,7,1,3,1,32.888,32888,0.6200,10.0700,0.8400,10.1240,-0.0360,-0.0273,0.1145,-5.19,86.69,45.31,0.6050,9.6914,0.6425,9.7315
11,7,1,3,1,33.009,33009,-0.1900,9.0000,0.3100,9.0073,0.0022,0.0873,-0.5105,-4.50,86.81,44.38,0.5002,9.6003,0.5987,9.6319
11,7,1,3,1,33.130,33130,2.1000,9.8700,0.5100,10.1038,0.0371,0.2302,0.4440,-5.94,86.81,44.63,0.7110,9.6358,0.5870,9.6798
11,7,1,3,1,33.257,33257,0.7500,9.2100,0.4900,9.2535,-0.0371,0.2356,0.1036,-5.19,87.00,42.38,0.7161,9.5797,0.5742,9.6236
11,7,1,3,1,33.419,33419,1.4200,10.0200,0.3400,10.1258,0.0076,0.1909,0.0818,-6.31,87.50,41.50,0.8089,9.6377,0.5434,9.6869
11,7,1,3,1,33.540,33540,1.3900,9.8200,0.1600,9.9192,0.0415,0.1462,-0.0098,-6.94,87.56,40.94,0.8855,9.6617,0.4929,9.7147
11,7,1,3,1,33.661,33661,1.3800,9.7400,0.2100,9.8395,0.0535,0.1396,0.0545,-7.06,87.50,40.13,0.9506,9.6721,0.4556,9.7293
11,7,1,3,1,33.782,33782,1.3200,9.7100,0.4800,9.8111,0.0993,0.1429,-0.0338,-7.19,87.13,39.19,0.9993,9.6771,0.4588,9.7393
11,7,1,3,1,33.909,33909,1.6100,9.8300,0.5300,9.9751,0.0796,0.1309,0.1440,-7.25,86.63,38.31,1.0798,9.6972,0.4682,9.7684
11,7,1,3,1,34.031,34031,0.3100,9.2000,0.6400,9.2274,0.0360,0.0829,-0.1702,-6.81,86.31,37.19,0.9783,9.6317,0.4908,9.6937
11,7,1,3,1,34.151,34151,2.4800,9.7900,0.9100,10.1401,0.0251,0.0971,0.2225,-9.00,86.25,38.63,1.1762,9.6526,0.5461,9.7393
11,7,1,3,1,34.272,34272,2.2400,8.9100,0.6500,9.2102,0.0469,0.0633,-0.0076,-8.75,86.06,37.75,1.3164,9.5547,0.5598,9.6612
11,7,1,3,1,34.434,34434,0.7200,9.5400,0.6900,9.5920,-0.0087,-0.0218,-0.0415,-6.75,85.94,35.75,1.2378,9.5528,0.5769,9.6499
11,7,1,3,1,34.561,34561,0.6000,9.7400,0.8000,9.7912,0.0022,-0.0109,0.0545,-6.31,85.94,35.44,1.1538,9.5774,0.6063,9.6657
11,7,1,3,1,34.682,34682,1.0000,9.5500,0.5800,9.6197,-0.0218,0.0000,-0.0382,-6.63,86.00,35.75,1.1335,9.5738,0.6028,9.6595
11,7,1,3,1,34.803,34803,1.6000,9.4200,0.6100,9.5744,0.0164,0.0000,-0.1047,-6.44,86.06,35.63,1.1950,9.5536,0.6038,9.6469
11,7,1,3,1,34.924,34924,1.1400,8.9900,0.7100,9.0898,0.0251,-0.0513,-0.1473,-5.50,85.88,34.75,1.1877,9.4793,0.6178,9.5734
11,7,1,3,1,35.045,35045,0.4900,10.0600,0.8500,10.1077,0.0044,-0.0524,-0.0131,-4.63,85.75,34.31,1.0958,9.5558,0.6484,9.6403
11,7,1,3,1,35.167,35167,0.5400,9.8600,0.8500,9.9113,0.0229,-0.0185,-0.1189,-4.13,85.63,34.06,1.0225,9.5959,0.6750,9.6738
11,7,1,3,1,35.288,35288,0.8300,9.9300,0.8100,9.9975,-0.0131,0.0196,0.0055,-4.06,85.56,33.94,0.9972,9.6399,0.6927,9.7161
11,7,1,3,1,35.454,35454,0.3100,9.9800,0.7200,10.0107,-0.0076,0.0240,-0.0949,-2.81,85.69,32.44,0.9066,9.6847,0.6963,9.7520
11,7,1,3,1,35.575,35575,0.4700,9.2700,0.7100,9.3090,0.0055,-0.0087,-0.0578,-2.75,85.69,32.38,0.8491,9.6301,0.6981,9.6926
11,7,1,3,1,35.696,35696,0.3100,9.6300,0.5400,9.6501,-0.0011,0.0251,0.0098,-2.69,85.75,32.25,0.7781,9.6301,0.6773,9.6852
11,7,1,3,1,35.817,35817,0.9400,10.4900,0.8000,10.5624,0.0087,0.0611,-0.1974,-2.50,85.75,31.75,0.7994,9.7434,0.6935,9.8007
11,7,1,3,1,35.938,35938,0.1300,9.6200,0.5000,9.6339,0.0305,0.0098,-0.1953,-0.31,85.63,29.31,0.7112,9.7271,0.6680,9.7759
11,7,1,3,1,36.060,36060,-0.2800,9.9600,0.8000,9.9960,0.0687,0.0273,-0.0371,0.88,85.31,28.06,0.5806,9.7578,0.6854,9.7991
11,7,1,3,1,36.181,36181,-0.6200,10.6500,0.8000,10.6980,0.0796,0.0175,-0.1254,2.06,84.81,26.75,0.4224,9.8754,0.7005,9.9092
11,7,1,3,1,36.307,36307,-0.2500,9.3900,1.0500,9.4518,0.0698,-0.0327,-0.3011,2.75,84.25,26.06,0.3338,9.8114,0.7465,9.8454
11,7,1,3,1,36.469,36469,0.2100,9.9300,1.1500,9.9986,-0.0654,-0.0447,0.0884,4.00,84.19,25.31,0.3175,9.8270,0.7997,9.8646
11,7,1,3,1,36.590,36590,-2.3700,9.9700,0.8600,10.2838,-0.0207,-0.0698,-0.4036,7.06,84.50,22.63,-0.0367,9.8459,0.8076,9.8790
11,7,1,3,1,36.711,36711,-0.6600,10.1100,1.1700,10.1989,0.0000,-0.0502,0.1756,6.25,84.63,23.75,-0.1188,9.8807,0.8554,9.9184
11,7,1,3,1,36.833,36833,-1.5900,9.5700,0.8200,9.7358,0.0022,-0.0447,-0.0916,7.19,84.56,23.25,-0.3127,9.8397,0.8507,9.8814
11,7,1,3,1,36.959,36959,-1.7400,9.9300,0.9500,10.1260,-0.0065,-0.0284,0.0065,7.38,84.69,23.31,-0.5008,9.8516,0.8638,9.9021
11,7,1,3,1,37.080,37080,-1.3700,9.8600,0.7800,9.9852,0.0044,-0.0262,-0.2956,7.81,84.69,23.38,-0.6153,9.8527,0.8528,9.9087
11,7,1,3,1,37.200,37200,-2.1500,9.9200,0.7600,10.1787,-0.0109,-0.0164,-0.1898,9.25,84.75,22.13,-0.8175,9.8616,0.8405,9.9311
11,7,1,3,1,37.321,37321,-1.5100,10.8100,0.8600,10.9488,-0.0349,0.0175,0.1309,8.94,84.94,22.75,-0.9088,9.9866,0.8431,10.0632
11,7,1,3,1,37.483,37483,-1.8400,10.9600,1.1000,11.1677,-0.0153,-0.0120,-0.0905,9.19,85.19,22.94,-1.0315,10.1149,0.8770,10.2051
11,8,1,3,1,37.604,37604,-1.7000,10.0300,0.7100,10.1978,-0.0196,-0.0207,-0.1440,9.25,85.31,23.06,-1.1196,10.1037,0.8550,10.2014
11,8,1,3,1,37.726,37726,-1.2300,10.1300,0.4900,10.2162,0.0295,-0.0022,0.2029,9.00,85.31,23.38,-1.1341,10.1071,0.8069,10.2025
11,8,1,3,1,37.851,37851,-1.6600,9.1700,0.7600,9.3500,0.1004,-0.0415,0.2291,8.38,84.81,24.31,-1.2034,9.9836,0.8007,10.0877
11,8,1,3,1,37.973,37973,-1.3400,8.8500,0.9900,9.0055,0.0393,-0.0393,0.1614,6.69,84.38,26.63,-1.2214,9.8343,0.8256,9.9442
11,8,1,3,1,38.094,38094,-0.8000,8.7500,0.9200,8.8345,-0.0262,-0.0076,0.1800,5.44,84.31,28.13,-1.1659,9.6914,0.8381,9.7972
11,8,1,3,1,38.214,38214,-0.5900,9.4200,0.9000,9.4813,-0.0567,0.0305,0.3305,4.19,84.56,29.31,-1.0900,9.6556,0.8462,9.7537
11,8,1,3,1,38.335,38335,-0.8500,9.6100,0.7000,9.6729,-0.0633,0.0251,0.0720,3.13,85.00,30.13,-1.0584,9.6496,0.8270,9.7426
11,8,1,3,1,38.497,38497,-0.3600,9.9400,0.6000,9.9646,-0.0404,0.0556,0.2378,1.56,85.50,31.25,-0.9664,9.6879,0.7971,9.7685
11,8,1,3,1,38.623,38623,-0.2200,9.7300,0.7200,9.7591,0.0109,0.0480,0.2771,0.13,85.56,32.44,-0.8680,9.6934,0.7869,9.7640
11,8,1,3,1,38.745,38745,0.0900,9.9000,0.9300,9.9440,0.0611,0.0327,0.2258,-1.81,85.25,34.13,-0.7418,9.7206,0.8058,9.7822
11,8,1,3,1,38.866,38866,0.5400,8.8400,0.9500,8.9073,0.0425,0.0480,0.3611,-3.81,84.81,35.88,-0.5729,9.6046,0.8248,9.6570
11,8,1,3,1,38.986,38986,0.5000,9.2800,0.9800,9.3450,-0.0349,0.0840,0.4800,-5.94,84.81,37.56,-0.4315,9.5618,0.8452,9.6088
11,8,1,3,1,39.107,39107,0.9200,10.5500,0.7500,10.6166,-0.0415,0.0796,0.0273,-8.50,85.06,39.19,-0.2534,9.6920,0.8327,9.7310
11,8,1,3,1,39.228,39228,2.3100,8.9900,0.8300,9.3191,0.0000,0.0393,0.1233,-10.69,85.25,40.25,0.0844,9.5995,0.8323,9.6359
11,8,1,3,1,39.349,39349,2.2200,10.0700,0.8200,10.3444,-0.0327,0.0284,0.4636,-12.19,85.38,41.38,0.3658,9.6615,0.8307,9.7041
11,8,1,3,1,39.517,39517,2.2900,9.2100,0.6100,9.5100,-0.0175,-0.0131,0.0993,-13.63,85.38,42.31,0.6194,9.6020,0.8016,9.6553
11,8,1,3,1,39.638,39638,2.6900,9.4900,0.8400,9.8996,-0.0316,-0.0316,0.1724,-14.69,85.56,43.25,0.8922,9.5873,0.8067,9.6624
11,8,1,3,1,39.758,39758,2.8800,9.7300,0.6000,10.1650,-0.0142,-0.0415,0.1069,-15.88,85.56,44.69,1.1542,9.6061,0.7794,9.7065
11,8,1,3,1,39.879,39879,2.7700,9.3200,0.6800,9.7467,0.0087,-0.0436,0.0076,-15.94,85.50,44.75,1.3671,9.5684,0.7663,9.6959
11,8,1,3,1,40.000,40000,2.9500,9.5600,0.8900,10.0443,0.0142,-0.0382,0.0153,-16.19,85.31,44.88,1.5757,9.5673,0.7826,9.7277
11,8,1,3,1,40.122,40122,2.4800,9.0400,0.8900,9.4162,0.0120,-0.0480,-0.2629,-15.50,85.06,44.38,1.6948,9.4978,0.7968,9.6807
11,8,1,3,1,40.243,40243,1.6400,9.9900,0.8800,10.1619,-0.0044,-0.0371,-0.4102,-13.88,85.00,43.00,1.6876,9.5627,0.8077,9.7440
11,8,1,3,1,40.369,40369,2.7300,9.5000,0.5700,9.9009,0.0065,-0.0011,0.3262,-14.06,85.00,43.25,1.8250,9.5544,0.7764,9.7581
11,8,1,3,1,40.531,40531,2.3300,9.3600,0.7800,9.6771,0.0142,0.0371,0.0742,-14.19,84.88,43.25,1.8915,9.5288,0.7769,9.7457
11,8,1,3,1,40.652,40652,2.7900,9.3800,0.8500,9.8230,0.0000,0.0469,0.1527,-15.00,84.88,43.81,2.0099,9.5092,0.7865,9.7510
11,8,1,3,1,40.773,40773,2.2900,9.1600,0.7900,9.4749,0.0393,0.0251,-0.2989,-15.06,84.81,43.56,2.0468,9.4632,0.7870,9.7139
11,8,1,3,1,40.895,40895,2.2700,8.8700,0.8400,9.1943,0.0229,0.0087,0.1331,-14.44,84.63,42.81,2.0762,9.3850,0.7940,9.6447
11,8,1,3,1,41.021,41021,2.2100,9.2200,0.8800,9.5219,0.0022,0.0000,-0.0862,-14.38,84.50,42.69,2.0939,9.3633,0.8053,9.6283
11,8,1,3,1,41.143,41143,2.4000,9.4200,0.9900,9.7712,-0.0425,0.0229,-0.0076,-13.75,84.63,42.06,2.1342,9.3707,0.8296,9.6464
11,8,1,3,1,41.263,41263,2.1000,9.8500,1.0000,10.1209,-0.0175,-0.0185,-0.2225,-12.81,84.94,41.13,2.1297,9.4339,0.8521,9.7088
11,8,1,3,1,41.384,41384,1.7200,10.0100,0.9500,10.2010,0.0436,-0.0600,-0.1167,-12.25,84.69,40.81,2.0757,9.5098,0.8650,9.7721
11,8,1,3,1,41.546,41546,1.8700,9.2700,0.9200,9.5014,0.0436,0.0131,-0.2345,-11.31,84.13,40.06,2.0486,9.4782,0.8722,9.7362
11,8,1,3,1,41.668,41668,2.1600,9.6900,1.1200,9.9908,-0.0164,0.0011,-0.0251,-10.63,84.06,39.25,2.0633,9.5061,0.9049,9.7695
11,8,1,3,1,41.789,41789,1.7700,9.8400,1.0100,10.0488,-0.0185,-0.0273,-0.3218,-9.69,84.25,38.38,2.0246,9.5501,0.9187,9.8055
11,8,1,3,1,41.914,41914,1.2200,8.5100,0.6900,8.6247,-0.0305,-0.0120,-0.2869,-7.63,84.38,36.44,1.9186,9.4131,0.8886,9.6476
11,8,1,3,1,42.036,42036,0.4500,10.0700,0.9300,10.1229,-0.0305,-0.0218,-0.0927,-5.88,84.75,34.88,1.7251,9.4996,0.8941,9.6963
11,8,1,3,1,42.157,42157,1.1900,10.6600,0.9800,10.7709,0.0709,-0.0175,-0.0469,-6.13,84.50,35.13,1.6546,9.6525,0.9054,9.8351
11,8,1,3,1,42.277,42277,0.5400,9.8400,0.9400,9.8995,0.0175,-0.0262,-0.4712,-4.81,84.19,34.00,1.5077,9.6772,0.9099,9.8362
11,8,1,3,1,42.398,42398,0.5600,11.0500,0.9400,11.1040,0.0022,0.0185,0.1429,-3.75,84.06,32.94,1.3828,9.8581,0.9139,9.9965
11,8,1,3,1,42.562,42562,0.2100,10.5300,1.0000,10.5795,-0.0098,-0.0502,-0.0535,-2.50,84.00,31.88,1.2283,9.9467,0.9252,10.0648
11,8,1,3,1,42.687,42687,0.1600,10.0600,0.8300,10.0954,-0.0567,-0.0382,-0.2618,-2.00,84.25,31.69,1.0875,9.9616,0.9127,10.0623
11,8,1,3,1,42.808,42808,-0.0100,9.8400,0.8500,9.8766,-0.0545,0.0033,-0.0044,-1.19,84.56,30.94,0.9429,9.9456,0.9044,10.0310
11,8,1,3,1,42.929,42929,0.1400,10.4800,1.0200,10.5305,-0.0044,-0.0044,-0.3174,-1.06,84.81,30.81,0.8371,10.0160,0.9197,10.0929
11,8,1,3,1,43.050,43050,0.1100,10.9700,1.1100,11.0266,-0.0327,0.0076,0.3033,-1.19,84.94,30.94,0.7413,10.1417,0.9447,10.2126
11,8,1,3,1,43.171,43171,0.2600,10.5900,1.0500,10.6451,-0.0022,0.0207,-0.0338,-2.06,85.06,31.69,0.6778,10.2008,0.9586,10.2681
11,9,1,3,1,43.293,43293,0.6000,9.9800,0.8500,10.0341,0.0076,-0.0109,-0.0251,-2.63,85.00,32.19,0.6676,10.1717,0.9443,10.2372
11,9,1,3,1,43.418,43418,-0.3200,9.7500,0.9000,9.7967,0.0284,0.0065,0.1473,-2.19,84.81,31.75,0.5375,10.1161,0.9385,10.1738
11,9,1,3,1,43.581,43581,0.2300,9.7600,0.7500,9.7915,-0.0185,0.0218,0.2214,-3.81,84.69,33.31,0.4969,10.0692,0.9136,10.1228
11,9,1,3,1,43.701,43701,1.6500,9.4200,1.0100,9.6166,-0.0502,-0.0022,0.2520,-6.25,84.88,35.69,0.6489,9.9836,0.9263,10.0475
11,9,1,3,1,43.822,43822,0.2900,9.1500,0.5900,9.1736,-0.0851,-0.0044,0.0916,-6.19,85.31,35.75,0.6016,9.8738,0.8820,9.9313
11,9,1,3,1,43.943,43943,1.6500,10.0100,0.8000,10.1766,-0.0600,0.0316,0.1320,-8.56,85.88,38.06,0.7397,9.8917,0.8712,9.9575
11,9,1,3,1,44.064,44064,1.7200,9.4000,0.4700,9.5676,-0.0065,0.0371,-0.0665,-9.19,86.00,38.38,0.8689,9.8269,0.8183,9.8992
11,9,1,3,1,44.187,44187,1.1100,8.7700,0.7400,8.8709,0.0153,0.0382,0.0851,-8.75,86.06,37.75,0.9007,9.6877,0.8080,9.7629
11,9,1,3,1,44.308,44308,1.1600,9.2200,0.7100,9.3198,0.0611,0.0927,0.3774,-9.44,85.75,38.00,0.9349,9.6260,0.7951,9.7040
11,9,1,3,1,44.433,44433,2.2600,9.2000,0.9400,9.5200,0.0284,0.0884,-0.0753,-11.00,85.56,38.75,1.1095,9.5699,0.8142,9.6683
11,9,1,3,1,44.595,44595,1.1700,9.2100,0.8200,9.3202,-0.0218,0.1200,0.4614,-9.75,85.56,36.81,1.1175,9.5225,0.8150,9.6224
11,9,1,3,1,44.716,44716,2.2900,9.5000,0.4900,9.7844,-0.0360,0.1440,0.0000,-12.31,85.94,38.50,1.2720,9.5195,0.7721,9.6351
11,9,1,3,1,44.837,44837,2.4600,9.5600,0.4200,9.8804,-0.0371,0.1331,0.1789,-12.75,86.50,38.00,1.4285,9.5248,0.7257,9.6587
11,9,1,3,1,44.959,44959,3.0300,9.8200,0.5600,10.2921,-0.0065,0.0589,0.2291,-14.50,86.81,39.19,1.6396,9.5637,0.7039,9.7288
11,9,1,3,1,45.085,45085,3.2900,9.4200,0.4800,9.9895,0.0382,-0.0185,0.0785,-15.88,86.69,40.31,1.8570,9.5448,0.6744,9.7471
11,9,1,3,1,45.206,45206,3.1100,9.6400,0.4500,10.1392,0.0447,-0.1014,-0.0524,-16.00,86.25,40.88,2.0221,9.5573,0.6448,9.7902
11,9,1,3,1,45.327,45327,2.3000,9.1500,0.5600,9.4512,0.0011,-0.1233,-0.0480,-15.25,85.88,40.81,2.0588,9.5037,0.6336,9.7447
11,9,1,3,1,45.447,45447,2.3200,9.5200,0.7900,9.8304,-0.0415,-0.1244,-0.2389,-14.44,85.81,40.88,2.0932,9.5058,0.6542,9.7555
11,9,1,3,1,45.609,45609,1.3800,9.4000,0.6900,9.5258,-0.0371,-0.0993,-0.1963,-12.25,85.81,39.75,1.9992,9.4919,0.6590,9.7225
11,9,1,3,1,45.730,45730,1.1300,8.4600,0.7200,8.5654,-0.0185,-0.0567,-0.4298,-11.00,86.00,39.06,1.8847,9.3559,0.6670,9.5671
11,9,1,3,1,45.852,45852,2.4800,10.9500,0.9000,11.2633,0.0153,0.0022,0.2869,-10.75,86.00,38.88,1.9631,9.5660,0.6977,9.7902
11,9,1,3,1,45.978,45978,1.2700,8.7600,0.7500,8.8833,0.0567,0.0065,-0.2803,-9.50,85.69,37.56,1.8718,9.4598,0.7046,9.6689
11,9,1,3,1,46.099,46099,1.1400,9.6500,0.5900,9.7350,-0.0480,0.0589,0.1527,-8.50,85.75,36.44,1.7754,9.4848,0.6895,9.6742
11,9,1,3,1,46.221,46221,1.1600,10.2000,0.6900,10.2889,-0.0120,0.0589,-0.1582,-8.63,86.00,36.13,1.6943,9.5791,0.6896,9.7522
11,9,1,3,1,46.341,46341,1.2500,10.6600,0.6500,10.7527,0.0491,-0.0109,-0.1342,-8.31,85.94,35.69,1.6357,9.7215,0.6843,9.8819
11,9,1,3,1,46.462,46462,0.6300,9.0000,0.6100,9.0426,0.0753,-0.0753,-0.4669,-7.56,85.38,35.06,1.5032,9.6264,0.6746,9.7664
11,9,1,3,1,46.624,46624,1.6200,8.0800,0.9900,8.3001,0.0622,-0.0415,-0.2498,-7.75,84.75,35.75,1.5186,9.4227,0.7161,9.5711
11,9,1,3,1,46.751,46751,0.8200,10.6500,0.8700,10.7169,-0.0458,0.0393,0.1396,-6.06,84.75,34.00,1.4265,9.5844,0.7364,9.7179
11,9,1,3,1,46.872,46872,0.7400,10.1100,1.0700,10.1934,0.0065,-0.0175,-0.4854,-5.00,84.94,32.81,1.3361,9.6536,0.7804,9.7769
11,9,1,3,1,46.992,46992,-0.2900,10.1400,0.9100,10.1849,-0.0425,-0.0327,-0.2651,-3.06,85.00,31.13,1.1218,9.7177,0.7974,9.8147
11,9,1,3,1,47.113,47113,0.6600,9.7700,0.7200,9.8187,0.0044,-0.0011,-0.0840,-2.81,85.25,30.94,1.0609,9.7246,0.7872,9.8139
11,9,1,3,1,47.234,47234,0.6600,9.2500,0.7000,9.2999,0.0502,-0.0273,0.0600,-2.13,85.00,30.31,1.0081,9.6621,0.7757,9.7455
11,9,1,3,1,47.355,47355,0.2200,10.6400,0.9500,10.6846,0.0851,0.0131,-0.0371,-2.00,84.56,30.38,0.9043,9.7909,0.7987,9.8650
11,9,1,3,1,47.476,47476,-0.5100,8.7200,0.5600,8.7528,0.0055,0.0273,-0.1734,-0.13,84.19,28.31,0.7179,9.6498,0.7672,9.7069
11,9,1,3,1,47.644,47644,0.7300,10.0700,1.1900,10.1663,0.0044,0.0393,0.1680,-0.88,84.38,28.69,0.7195,9.7052,0.8230,9.7666
11,9,1,3,1,47.765,47765,-0.2100,9.9900,1.0000,10.0421,0.0229,-0.0240,-0.2694,0.38,84.25,27.31,0.5970,9.7427,0.8463,9.7976
11,9,1,3,1,47.885,47885,-0.1800,10.4800,1.0800,10.5370,0.0491,-0.0611,-0.2040,1.06,84.13,27.00,0.4946,9.8399,0.8771,9.8913
11,9,1,3,1,48.006,48006,-0.8000,9.8000,1.1300,9.8973,-0.0240,-0.0425,-0.0076,2.25,84.00,26.13,0.3240,9.8346,0.9104,9.8820
11,9,1,3,1,48.127,48127,-0.2100,10.4400,1.0800,10.4978,-0.0284,-0.0273,0.0796,1.69,84.25,26.88,0.2536,9.9144,0.9328,9.9614
11,9,1,3,1,48.249,48249,-0.2000,11.1500,0.8500,11.1841,-0.0589,-0.0404,0.0382,1.56,84.56,27.25,0.1939,10.0772,0.9219,10.1211
11,9,1,3,1,48.370,48370,-0.9500,10.6100,1.0500,10.7041,-0.0262,-0.0349,0.0065,1.81,84.81,27.31,0.0431,10.1474,0.9387,10.1908
11,9,1,3,1,48.496,48496,0.2600,9.6100,0.8600,9.6519,-0.0295,-0.0065,0.1440,0.88,85.00,28.31,0.0717,10.0766,0.9284,10.1195
11,9,1,3,1,48.658,48658,-0.6900,10.8000,1.0700,10.8748,0.0687,0.0251,-0.0153,0.88,84.94,28.31,-0.0287,10.1719,0.9470,10.2160
11,10,1,3,1,48.779,48779,0.0100,8.7600,0.5100,8.7748,0.0785,-0.0262,-0.2051,0.25,84.31,28.88,-0.0236,9.9859,0.8894,10.0254
11,10,1,3,1,48.900,48900,-0.0800,10.1800,1.3000,10.2630,0.0044,-0.0142,0.3480,-0.19,84.19,29.56,-0.0310,10.0115,0.9435,10.0559
11,10,1,3,1,49.022,49022,-0.1200,8.3800,0.7800,8.4171,-0.0022,-0.0076,0.0971,-1.38,84.00,30.88,-0.0427,9.7965,0.9220,9.8399
11,10,1,3,1,49.148,49148,0.6700,9.0900,0.8300,9.1524,-0.0709,-0.0076,0.2694,-3.06,84.38,32.56,0.0512,9.7034,0.9099,9.7461
11,10,1,3,1,49.270,49270,0.7300,10.6000,0.8600,10.6599,-0.0731,0.0480,0.2869,-4.69,84.94,34.13,0.1406,9.8215,0.9033,9.8640
11,10,1,3,1,49.390,49390,0.8400,10.0800,0.8600,10.1514,-0.0120,0.0480,0.1549,-5.69,85.19,34.81,0.2328,9.8556,0.8976,9.8991
11,10,1,3,1,49.511,49511,1.0900,9.7300,0.6900,9.8151,0.0000,0.0305,0.0262,-6.56,85.19,35.44,0.3458,9.8390,0.8702,9.8835
11,10,1,3,1,49.673,49673,0.4800,9.4100,0.6300,9.4433,0.0055,0.0611,0.0055,-6.31,85.25,34.75,0.3634,9.7825,0.8386,9.8251
11,10,1,3,1,49.794,49794,1.1900,10.2000,0.9200,10.3103,0.0338,0.0545,0.0829,-7.38,85.19,35.44,0.4724,9.8375,0.8493,9.8854
11,10,1,3,1,49.916,49916,1.2500,9.6200,0.9900,9.7513,0.0175,0.0535,0.1014,-7.94,85.06,35.63,0.5748,9.8089,0.8678,9.8639
11,10,1,3,1,50.041,50041,1.4600,9.2600,0.8500,9.4128,0.0055,0.0535,0.2585,-8.81,85.06,36.06,0.6915,9.7365,0.8655,9.7993
11,10,1,3,1,50.163,50163,1.4100,8.9100,0.9000,9.0657,0.0011,0.0316,0.1669,-9.63,85.00,36.69,0.7862,9.6276,0.8700,9.6988
11,10,1,3,1,50.284,50284,1.8300,9.7100,0.7200,9.9071,-0.0371,0.0502,0.1963,-10.63,85.13,37.44,0.9237,9.6385,0.8503,9.7199
11,10,1,3,1,50.404,50404,2.1300,9.5100,0.7400,9.7737,-0.0371,0.0382,0.1025,-11.31,85.44,37.88,1.0827,9.6215,0.8357,9.7183
11,10,1,3,1,50.525,50525,2.0200,9.9500,0.6800,10.1757,-0.0087,-0.0175,-0.0295,-11.63,85.63,38.06,1.2062,9.6648,0.8152,9.7739
11,10,1,3,1,50.688,50688,2.0500,9.6100,0.6700,9.8490,0.0360,-0.0698,0.0927,-11.94,85.38,38.81,1.3174,9.6576,0.7961,9.7795
11,10,1,3,1,50.814,50814,1.8200,9.5200,0.8500,9.7296,0.0273,-0.0665,-0.0556,-12.00,85.06,39.31,1.3836,9.6395,0.8032,9.7713
11,10,1,3,1,50.935,50935,1.7200,9.4600,0.7800,9.6467,-0.0109,-0.0360,-0.1985,-11.25,85.00,38.88,1.4279,9.6158,0.8001,9.7541
11,10,1,3,1,51.056,51056,2.0500,8.3300,0.6800,8.6055,-0.0415,-0.0436,0.0305,-10.63,85.13,38.56,1.5099,9.4464,0.7843,9.5984
11,10,1,3,1,51.177,51177,1.5900,9.8400,0.9600,10.0138,-0.0545,-0.0425,0.0000,-10.00,85.50,38.31,1.5205,9.4982,0.8075,9.6530
11,10,1,3,1,51.298,51298,0.8100,9.3500,0.7300,9.4134,0.0393,-0.0120,-0.1745,-8.56,85.44,37.06,1.4268,9.4787,0.7972,9.6186
11,10,1,3,1,51.420,51420,1.7800,10.4600,0.8800,10.6468,0.0131,-0.0131,0.0894,-9.06,85.25,37.56,1.4734,9.6080,0.8082,9.7539
11,10,1,3,1,51.546,51546,1.7400,9.2900,0.9000,9.4943,0.0164,-0.0065,-0.1069,-8.94,85.06,37.44,1.5085,9.5661,0.8203,9.7190
11,10,1,3,1,51.708,51708,1.1700,9.4900,0.8300,9.5978,-0.0033,0.0055,-0.0415,-7.56,85.06,36.13,1.4639,9.5561,0.8215,9.7024
11,10,1,3,1,51.829,51829,0.2700,10.7400,0.7600,10.7702,0.0033,0.0338,0.2302,-7.06,85.06,35.50,1.3066,9.7121,0.8134,9.8333
11,10,1,3,1,51.950,51950,1.3300,8.3900,0.7500,8.5278,0.0382,0.0044,-0.5247,-7.63,84.88,35.88,1.3097,9.5379,0.8051,9.6610
11,10,1,3,1,52.072,52072,1.7600,9.3400,0.8200,9.5397,-0.0175,0.0000,0.2323,-7.31,84.81,35.56,1.3690,9.5118,0.8070,9.6436
11,10,1,3,1,52.198,52198,0.6500,10.5000,1.0400,10.5714,-0.0131,-0.0164,-0.3316,-6.50,84.88,34.88,1.2743,9.6420,0.8377,9.7619
11,10,1,3,1,52.320,52320,1.4700,10.8200,1.0000,10.9651,-0.0076,-0.0218,-0.0295,-6.00,85.00,34.38,1.3001,9.7972,0.8591,9.9204
11,10,1,3,1,52.440,52440,0.8600,9.0200,0.9200,9.1075,0.0654,-0.0502,-0.0654,-5.06,84.81,33.69,1.2421,9.6948,0.8671,9.8125
11,10,1,3,1,52.561,52561,0.1200,9.6900,0.7100,9.7167,-0.0011,-0.0033,0.0644,-4.00,84.50,32.88,1.0942,9.6942,0.8464,9.7924
11,10,1,3,1,52.723,52723,0.4100,9.6000,0.8800,9.6490,0.0033,0.0556,-0.2869,-3.31,84.69,31.88,1.0040,9.6818,0.8509,9.7708
11,10,1,3,1,52.844,52844,0.4000,10.9000,0.9900,10.9522,-0.0076,-0.0229,-0.5105,-1.63,84.69,30.00,0.9244,9.8423,0.8692,9.9238
11,10,1,3,1,52.971,52971,-0.5500,8.3900,0.9100,8.4571,0.0731,-0.0164,0.3305,0.19,84.38,28.31,0.7302,9.6509,0.8746,9.7179
11,10,1,3,1,53.092,53092,-0.1200,10.6000,1.1500,10.6629,-0.0360,-0.0076,0.2214,-1.25,84.25,30.00,0.6181,9.7760,0.9109,9.8378
11,10,1,3,1,53.213,53213,0.3700,10.8700,1.0200,10.9240,-0.0436,0.0153,-0.0753,-1.88,84.50,30.56,0.5854,9.9202,0.9252,9.9804
11,10,1,3,1,53.334,53334,0.7800,9.7500,0.6600,9.8034,-0.0709,-0.0491,-0.2705,-1.63,84.88,30.44,0.6111,9.8977,0.8903,9.9565
11,10,1,3,1,53.455,53455,-0.8700,9.8300,0.5800,9.8855,-0.0229,-0.0305,-0.1451,0.44,85.19,28.56,0.4159,9.8888,0.8494,9.9339
11,10,1,3,1,53.577,53577,-0.5800,10.1800,0.8000,10.2278,-0.0185,0.0535,-0.0742,1.13,85.44,27.88,0.2847,9.9272,0.8429,9.9670
11,10,1,3,1,53.739,53739,0.3200,10.9800,0.9400,11.0248,0.0295,0.0480,0.1756,0.38,85.31,28.00,0.2893,10.0659,0.8557,10.1064
11,10,1,3,1,53.864,53864,-0.1700,10.9900,1.0700,11.0433,0.0360,0.0142,-0.0098,0.13,85.00,28.06,0.2288,10.1877,0.8839,10.2285
11,10,1,3,1,53.985,53985,0.1800,10.3700,0.9000,10.4105,0.0175,0.0000,-0.0393,-0.06,84.88,28.25,0.2224,10.2117,0.8860,10.2525
11,10,1,3,1,54.105,54105,-0.1600,9.2600,0.7100,9.2886,-0.0305,-0.0131,-0.1407,0.19,84.94,28.00,0.1720,10.0863,0.8628,10.1246
11,10,1,3,1,54.226,54226,-0.4900,9.7800,0.7200,9.8187,-0.0229,0.0316,0.1396,0.19,85.13,27.88,0.0847,10.0459,0.8440,10.0817
11,10,1,3,1,54.348,54348,0.5500,9.7300,0.9200,9.7889,-0.0207,0.0305,0.1429,-0.69,85.25,28.63,0.1461,10.0043,0.8540,10.0418
11,10,1,3,1,54.468,54468,0.7800,9.4400,0.8700,9.5120,0.0153,-0.0360,0.1134,-1.38,85.31,29.25,0.2296,9.9299,0.8561,9.9694
11,10,1,3,1,54.590,54590,-0.1600,8.8100,0.7500,8.8433,0.0087,-0.1036,0.0142,-1.13,85.13,29.56,0.1783,9.7824,0.8422,9.8202
11,10,1,3,1,54.757,54757,0.5800,10.0000,0.7200,10.0426,-0.0273,-0.0153,0.3578,-2.25,85.31,31.25,0.2312,9.8110,0.8261,9.8485
11,10,1,3,1,54.878,54878,-0.0400,10.2000,0.6300,10.2195,-0.0109,-0.0109,0.0545,-2.44,85.44,31.50,0.1955,9.8623,0.8002,9.8966
11,10,1,3,1,54.998,54998,0.2300,10.0000,0.6800,10.0257,0.0164,0.0164,0.1233,-2.94,85.44,32.06,0.2000,9.8804,0.7844,9.9135
