participant,rep,equipment_code,exercise_code,quality_code,timestamp,timestamp_ms,accelX,accelY,accelZ,accelMag,gyroX,gyroY,gyroZ,roll,pitch,yaw,filteredX,filteredY,filteredZ,filteredMag
11,1,1,3,1,00.000,0,2.5100,9.5500,-0.1700,9.8758,-0.0196,-0.0404,0.0120,-15.50,90.81,254.06,2.4855,9.6562,-0.0849,9.9713
11,1,1,3,1,00.130,130,2.5800,9.7100,-0.2300,10.0495,-0.0316,-0.0316,-0.0175,-15.69,90.88,254.56,2.4979,9.6633,-0.1040,9.9815
11,1,1,3,1,00.260,260,2.6800,9.4900,-0.2500,9.8643,-0.0273,-0.0404,0.0273,-15.69,91.00,254.94,2.5219,9.6405,-0.1233,9.9656
11,1,1,3,1,00.390,390,2.4500,9.9300,-0.2300,10.2304,-0.0196,-0.0164,0.0196,-15.50,91.13,254.94,2.5124,9.6786,-0.1373,10.0003
11,1,1,3,1,00.564,564,2.5200,8.9900,-0.1500,9.3377,-0.0164,-0.0109,0.1080,-16.00,91.31,255.56,2.5134,9.5879,-0.1390,9.9128
11,1,1,3,1,00.695,695,1.7900,9.8700,-0.5000,10.0435,-0.0022,-0.0175,-0.2989,-15.69,91.38,255.44,2.4181,9.6251,-0.1866,9.9259
11,1,1,3,1,00.830,830,1.7100,8.6000,-0.5400,8.7850,-0.0644,-0.0305,0.0076,-15.81,91.56,255.69,2.3248,9.4900,-0.2331,9.7734
11,1,1,3,1,00.961,961,2.0100,10.3900,-0.4200,10.5910,-0.0109,0.0316,0.2771,-16.50,91.94,256.63,2.2833,9.6086,-0.2578,9.8795
11,1,1,3,1,01.091,1091,3.8200,8.8400,-0.0800,9.6304,0.0698,0.0360,0.4701,-18.56,91.81,258.19,2.4858,9.5073,-0.2343,9.8297
11,1,1,3,1,01.221,1221,3.4800,8.5700,-0.2100,9.2520,0.0360,-0.0458,0.0862,-20.63,91.38,260.31,2.6168,9.3838,-0.2311,9.7446
11,1,1,3,1,01.352,1352,3.8200,9.4600,-0.1200,10.2029,0.0425,0.0164,0.0709,-21.81,91.13,261.50,2.7754,9.3938,-0.2165,9.7976
11,1,1,3,1,01.482,1482,3.5700,9.3500,0.0200,10.0084,0.0709,0.0491,0.0764,-22.44,90.69,261.75,2.8801,9.3881,-0.1853,9.8216
11,1,1,3,1,01.655,1655,4.2200,8.5900,0.1300,9.5715,0.0022,0.0491,0.2498,-23.88,90.50,261.88,3.0566,9.2829,-0.1438,9.7742
11,1,1,3,1,01.785,1785,4.2600,9.1700,-0.0800,10.1115,-0.0415,-0.0076,0.1167,-25.06,90.81,262.94,3.2152,9.2680,-0.1354,9.8108
11,1,1,3,1,01.915,1915,4.6200,9.2500,-0.2200,10.3419,0.0229,-0.0098,0.0044,-25.19,90.88,262.50,3.4003,9.2656,-0.1465,9.8710
11,1,1,3,1,02.045,2045,4.0800,9.1300,-0.0600,10.0003,-0.0240,-0.0611,-0.2105,-24.50,90.75,261.81,3.4899,9.2478,-0.1351,9.8853
11,1,1,3,1,02.175,2175,3.3500,8.9200,0.0500,9.5285,-0.0262,-0.0425,-0.0458,-23.75,90.69,261.44,3.4715,9.2046,-0.1107,9.8381
11,1,1,3,1,02.305,2305,3.6000,10.1700,-0.1000,10.7888,-0.0491,-0.0109,0.0654,-24.31,91.25,262.06,3.4884,9.3318,-0.1093,9.9631
11,1,1,3,1,02.435,2435,3.9800,9.1200,-0.3800,9.9579,0.0589,0.0120,0.0731,-25.00,91.06,262.56,3.5532,9.3039,-0.1450,9.9603
11,1,1,3,1,02.565,2565,5.7400,9.2700,-0.0500,10.9033,0.0338,-0.0611,0.4091,-26.06,90.69,263.44,3.8413,9.2994,-0.1325,10.0624
11,1,1,3,1,02.738,2738,4.4000,8.6700,0.1400,9.7236,0.0305,-0.0960,-0.2214,-27.19,89.88,265.19,3.9150,9.2165,-0.0966,10.0140
11,1,1,3,1,02.868,2868,4.3500,9.7100,-0.0300,10.6399,-0.0436,-0.0742,0.1713,-26.19,89.63,264.81,3.9723,9.2815,-0.0878,10.0962
11,1,1,3,1,02.999,2999,4.3500,8.5100,0.2800,9.5614,-0.0251,-0.0295,0.0774,-27.63,89.75,266.63,4.0221,9.1798,-0.0393,10.0224
11,1,1,3,1,03.129,3129,4.0800,8.9200,0.0000,9.8088,-0.0349,-0.0098,-0.1920,-27.38,89.69,266.56,4.0297,9.1456,-0.0341,9.9941
11,1,1,3,1,03.260,3260,4.8000,9.1600,0.1900,10.3432,-0.0425,0.0338,0.1702,-27.38,90.13,266.63,4.1312,9.1475,-0.0046,10.0371
11,1,1,3,1,03.391,3391,4.3900,9.2000,-0.0100,10.1937,-0.0338,0.0262,-0.0120,-27.38,90.50,266.56,4.1653,9.1544,-0.0053,10.0575
11,1,1,3,1,03.526,3526,4.8000,8.4600,-0.2300,9.7296,0.0022,0.0131,-0.0382,-27.25,90.69,266.31,4.2489,9.0629,-0.0349,10.0096
11,1,1,3,1,03.656,3656,4.5800,10.2400,-0.2400,11.2201,-0.0120,-0.0185,-0.1931,-26.50,90.69,265.63,4.2926,9.2180,-0.0619,10.1687
11,2,1,3,1,03.829,3829,5.1700,8.7100,0.2100,10.1310,0.0142,-0.0393,0.0131,-27.25,90.50,266.69,4.4082,9.1511,-0.0261,10.1575
11,2,1,3,1,03.959,3959,4.3100,8.4200,-0.0400,9.4591,-0.0305,0.0076,0.0753,-26.38,90.44,265.56,4.3953,9.0547,-0.0279,10.0652
11,2,1,3,1,04.089,4089,4.7300,9.2000,-0.1900,10.3464,0.0000,0.0229,0.0524,-25.56,90.63,264.50,4.4394,9.0739,-0.0493,10.1018
11,2,1,3,1,04.219,4219,5.0100,8.9200,0.0900,10.2311,0.0120,-0.0153,0.0011,-26.19,90.63,265.00,4.5146,9.0536,-0.0309,10.1168
11,2,1,3,1,04.349,4349,4.3600,9.4200,-0.0200,10.3801,0.0382,-0.0044,-0.1091,-24.69,90.38,263.38,4.4942,9.1019,-0.0295,10.1510
11,2,1,3,1,04.480,4480,3.9500,8.3800,0.0600,9.2645,0.0087,-0.0011,-0.1844,-24.88,90.19,263.50,4.4225,9.0068,-0.0177,10.0340
11,2,1,3,1,04.610,4610,4.1900,9.9700,0.0800,10.8150,-0.0284,0.0076,-0.1996,-23.69,90.31,262.31,4.3918,9.1337,-0.0048,10.1347
11,2,1,3,1,04.741,4741,4.5900,8.3500,0.1600,9.5298,0.0131,0.0022,0.3392,-24.63,90.38,263.25,4.4180,9.0304,0.0169,10.0532
11,2,1,3,1,04.913,4913,3.9500,10.0400,-0.1500,10.7901,-0.0556,0.0436,-0.0425,-22.75,90.56,261.19,4.3563,9.1635,-0.0051,10.1462
11,2,1,3,1,05.044,5044,3.5600,9.0000,-0.2600,9.6820,-0.0262,0.0284,0.0502,-22.75,91.00,261.13,4.2514,9.1419,-0.0387,10.0822
11,2,1,3,1,05.174,5174,3.7300,9.6300,-0.1200,10.3278,0.0316,0.0185,-0.3720,-22.25,91.06,260.44,4.1827,9.2062,-0.0494,10.1120
11,2,1,3,1,05.305,5305,2.7200,9.0600,-0.0800,9.4598,0.0567,0.0076,-0.1647,-20.56,90.69,258.56,3.9899,9.1870,-0.0534,10.0161
11,2,1,3,1,05.435,5435,1.7100,9.9100,-0.0200,10.0565,0.0316,0.0185,-0.4134,-19.19,90.44,257.00,3.6895,9.2822,-0.0490,9.9887
11,2,1,3,1,05.568,5568,4.4500,8.7200,0.0700,9.7901,-0.0305,0.0316,-0.1931,-20.38,90.50,257.94,3.7897,9.2082,-0.0333,9.9576
11,2,1,3,1,05.699,5699,6.2100,8.8500,-0.2400,10.8141,-0.0425,0.0360,0.3971,-20.06,90.81,257.56,4.1086,9.1610,-0.0606,10.0403
11,2,1,3,1,05.833,5833,0.9800,9.1600,-0.0900,9.2127,-0.0218,0.0251,0.8596,-16.69,91.19,254.13,3.6964,9.1608,-0.0645,9.8787
11,2,1,3,1,06.005,6005,1.0700,10.7100,-0.0600,10.7635,-0.0142,0.0284,-0.6785,-15.50,91.50,252.94,3.3503,9.3650,-0.0639,9.9464
11,2,1,3,1,06.135,6135,3.2500,9.2000,-0.2100,9.7594,0.0316,-0.0185,0.0796,-15.88,91.44,253.19,3.3371,9.3432,-0.0831,9.9216
11,2,1,3,1,06.265,6265,2.1300,9.7000,-0.3300,9.9366,0.0142,0.0229,-0.1353,-14.63,91.25,252.06,3.1780,9.3902,-0.1157,9.9141
11,2,1,3,1,06.395,6395,2.6500,9.6200,0.1800,9.9799,-0.0022,-0.0011,-0.1854,-14.63,91.25,252.31,3.1084,9.4205,-0.0767,9.9204
11,2,1,3,1,06.525,6525,2.1000,9.6600,-0.1200,9.8864,-0.0055,0.0044,0.0098,-14.06,91.19,251.75,2.9755,9.4521,-0.0824,9.9097
11,2,1,3,1,06.655,6655,2.0900,9.6100,-0.1700,9.8361,-0.0207,0.0305,0.0153,-14.13,91.25,251.75,2.8588,9.4729,-0.0939,9.8953
11,2,1,3,1,06.785,6785,2.3800,9.6400,-0.3000,9.9340,-0.0436,0.0055,0.1822,-14.50,91.56,252.19,2.7957,9.4949,-0.1211,9.8987
11,2,1,3,1,06.916,6916,2.4400,9.9500,-0.1700,10.2462,-0.0087,-0.0218,0.0000,-15.00,91.81,252.88,2.7489,9.5549,-0.1275,9.9433
11,2,1,3,1,07.089,7089,1.2500,8.2700,-0.2100,8.3666,0.0185,-0.0229,0.2105,-15.69,91.69,253.81,2.5514,9.3856,-0.1384,9.7271
11,2,1,3,1,07.222,7222,1.1800,11.3500,-0.2600,11.4141,0.0185,-0.0360,-0.3774,-15.25,91.56,253.63,2.3706,9.6444,-0.1544,9.9327
11,2,1,3,1,07.353,7353,3.3100,7.4800,-0.4500,8.1920,0.0044,0.0000,0.3949,-18.63,91.38,257.06,2.4944,9.3592,-0.1934,9.6878
11,2,1,3,1,07.487,7487,2.9900,10.0300,-0.1200,10.4669,-0.0022,-0.0011,0.0305,-18.63,91.44,257.06,2.5597,9.4476,-0.1837,9.7900
11,2,1,3,1,07.617,7617,3.7900,9.9800,0.2000,10.6773,0.0251,0.0098,0.0207,-20.13,91.38,258.56,2.7219,9.5178,-0.1331,9.9002
11,2,1,3,1,07.748,7748,3.3300,7.7500,0.0000,8.4351,0.0000,0.0284,0.2443,-21.38,91.31,259.56,2.8020,9.2848,-0.1156,9.6991
11,2,1,3,1,07.878,7878,3.1700,10.4000,-0.0400,10.8725,-0.0229,0.0000,-0.3262,-21.25,91.56,259.38,2.8505,9.4318,-0.1056,9.8537
11,2,1,3,1,08.008,8008,3.7400,9.0900,-0.3200,9.8345,-0.0327,0.0175,0.2880,-21.88,91.75,259.88,2.9677,9.3867,-0.1339,9.8456
11,2,1,3,1,08.181,8181,3.2600,9.5700,-0.5100,10.1229,-0.0065,0.0055,0.1374,-22.25,92.13,260.25,3.0062,9.4109,-0.1834,9.8811
11,2,1,3,1,08.311,8311,3.6300,9.5600,-0.0700,10.2262,0.0415,0.0273,-0.0164,-23.25,92.13,260.94,3.0884,9.4305,-0.1685,9.9248
11,2,1,3,1,08.441,8441,4.2300,8.8500,-0.2000,9.8110,0.0469,-0.0175,0.3185,-23.94,91.69,261.44,3.2388,9.3540,-0.1726,9.9004
11,2,1,3,1,08.571,8571,3.4900,8.9200,-0.1600,9.5798,0.0382,0.0000,0.1320,-25.13,91.38,262.63,3.2719,9.2968,-0.1710,9.8573
11,2,1,3,1,08.701,8701,4.5400,9.8500,0.0000,10.8459,0.0556,0.0196,-0.0436,-25.13,91.13,262.25,3.4390,9.3697,-0.1485,9.9820
11,2,1,3,1,08.831,8831,4.8400,9.2700,0.0400,10.4575,0.0687,-0.0229,0.1254,-25.94,90.50,262.94,3.6237,9.3566,-0.1236,10.0345
11,2,1,3,1,08.961,8961,3.9500,8.8300,0.3000,9.6779,0.0153,0.0251,0.0513,-26.00,90.25,262.88,3.6667,9.2872,-0.0678,9.9850
11,2,1,3,1,09.091,9091,5.3500,8.9100,0.1900,10.3946,-0.0251,0.0360,-0.0076,-27.00,90.44,263.69,3.8885,9.2375,-0.0338,10.0226
11,2,1,3,1,09.264,9264,5.2100,9.0400,-0.1200,10.4346,-0.0785,0.0229,0.1876,-27.63,91.25,264.31,4.0626,9.2115,-0.0452,10.0677
11,2,1,3,1,09.394,9394,4.3000,8.8200,-0.2000,9.8144,-0.0185,0.0033,0.0644,-27.00,91.63,263.75,4.0939,9.1599,-0.0656,10.0333
11,2,1,3,1,09.524,9524,4.6400,9.2600,-0.1300,10.3583,-0.0120,-0.0295,-0.0185,-27.00,91.56,263.88,4.1659,9.1731,-0.0741,10.0750
11,2,1,3,1,09.654,9654,4.6600,8.1400,-0.0800,9.3799,0.0087,-0.0753,0.2258,-27.63,91.38,264.88,4.2310,9.0369,-0.0749,9.9786
11,2,1,3,1,09.784,9784,4.2700,10.1100,-0.3000,10.9788,-0.0033,-0.0698,-0.3360,-26.31,91.06,264.00,4.2361,9.1783,-0.1045,10.1093
11,2,1,3,1,09.914,9914,5.0300,8.8400,0.2500,10.1739,0.0327,-0.0698,0.2367,-26.94,90.75,265.13,4.3407,9.1338,-0.0578,10.1129
11,2,1,3,1,10.044,10044,3.9300,8.5400,0.2000,9.4030,0.0065,-0.0229,-0.1156,-26.25,90.38,264.69,4.2866,9.0555,-0.0238,10.0189
11,2,1,3,1,10.174,10174,3.9800,8.8700,-0.0200,9.7220,-0.0589,0.0175,-0.1178,-26.06,90.56,264.56,4.2462,9.0311,-0.0233,9.9795
11,2,1,3,1,10.347,10347,4.6000,9.5600,-0.2000,10.6110,-0.0502,0.0535,0.1222,-26.13,91.38,264.50,4.2928,9.1008,-0.0466,10.0625
11,2,1,3,1,10.478,10478,4.9200,9.1100,-0.1300,10.3545,-0.0175,0.0425,-0.0578,-26.56,91.81,264.25,4.3755,9.1020,-0.0576,10.0992
11,2,1,3,1,10.608,10608,4.3100,8.8700,-0.2800,9.8657,0.0229,-0.0055,0.0513,-25.50,91.69,262.88,4.3668,9.0714,-0.0869,10.0681
11,2,1,3,1,10.738,10738,4.0400,9.3100,-0.0300,10.1488,0.0131,-0.0098,-0.0273,-24.94,91.69,262.25,4.3238,9.1029,-0.0794,10.0779
11,2,1,3,1,10.869,10869,3.9100,8.2700,0.1000,9.1483,0.0469,-0.0164,0.1080,-25.31,91.25,262.50,4.2692,8.9931,-0.0558,9.9552
11,2,1,3,1,10.999,10999,4.4500,9.5100,-0.1300,10.5005,-0.0338,0.0175,-0.1527,-24.25,91.25,261.19,4.2931,9.0612,-0.0655,10.0270
11,2,1,3,1,11.130,11130,3.0500,8.1200,-0.0100,8.6739,-0.0273,0.0011,0.1713,-23.69,91.50,260.75,4.1293,8.9372,-0.0582,9.8452
11,2,1,3,1,11.261,11261,2.7000,8.6400,-0.2500,9.0555,-0.0316,0.0436,-0.3545,-23.06,91.75,259.94,3.9409,8.8980,-0.0835,9.7320
11,2,1,3,1,11.437,11437,3.7000,9.9300,-0.3700,10.6034,0.0033,-0.0055,0.6054,-21.56,92.06,258.31,3.9092,9.0340,-0.1213,9.8443
11,2,1,3,1,11.567,11567,4.7500,8.1900,-0.0600,9.4680,0.0185,0.0153,0.0142,-22.94,92.06,259.63,4.0200,8.9228,-0.1132,9.7872
11,2,1,3,1,11.698,11698,2.5000,10.0100,-0.4700,10.3282,0.0164,0.0425,-0.0796,-19.50,92.00,255.94,3.8197,9.0661,-0.1602,9.8392
11,2,1,3,1,11.848,11848,3.1000,9.7100,-0.2100,10.1950,-0.0240,0.0218,-0.1440,-19.19,92.25,255.56,3.7248,9.1509,-0.1668,9.8814
11,2,1,3,1,11.978,11978,1.7100,9.6000,-0.3100,9.7560,0.0305,0.0633,0.0665,-17.94,92.25,254.00,3.4593,9.2101,-0.1856,9.8401
11,2,1,3,1,12.110,12110,3.8800,7.8800,-0.1400,8.7846,0.0218,0.0851,-0.1745,-19.38,92.25,255.00,3.5148,9.0348,-0.1796,9.6961
11,2,1,3,1,12.240,12240,3.1900,9.6600,-0.2200,10.1755,0.0371,0.0327,-0.0742,-16.94,92.13,252.25,3.4720,9.1172,-0.1849,9.7577
11,2,1,3,1,12.370,12370,3.5600,8.4000,-0.1300,9.1242,-0.0120,-0.0164,0.0633,-17.31,92.00,252.69,3.4836,9.0227,-0.1777,9.6735
11,2,1,3,1,12.543,12543,2.1200,9.2300,-0.4600,9.4815,-0.0044,-0.0109,-0.0905,-13.31,92.00,249.00,3.3039,9.0500,-0.2149,9.6366
11,3,1,3,1,12.674,12674,2.2600,9.8900,0.0200,10.1450,-0.0196,-0.0436,0.0404,-12.88,92.13,248.94,3.1663,9.1607,-0.1839,9.6942
11,3,1,3,1,12.804,12804,2.4100,9.3700,-0.2800,9.6790,-0.0469,-0.0404,0.1516,-13.00,92.19,249.63,3.0667,9.1883,-0.1966,9.6885
11,3,1,3,1,12.935,12935,2.4400,9.7900,-0.2800,10.0934,-0.0480,-0.0415,0.0185,-13.25,92.56,250.31,2.9841,9.2676,-0.2076,9.7384
11,3,1,3,1,13.065,13065,2.2500,9.8500,-0.2800,10.1076,-0.0065,-0.0447,-0.0262,-13.13,92.63,250.56,2.8874,9.3443,-0.2171,9.7827
11,3,1,3,1,13.195,13195,2.1100,9.7600,-0.2700,9.9891,0.0229,-0.0393,-0.0393,-12.88,92.44,250.69,2.7849,9.3991,-0.2241,9.8056
11,3,1,3,1,13.326,13326,1.9800,9.7500,-0.1900,9.9508,0.0207,-0.0327,0.0687,-13.00,92.19,251.13,2.6789,9.4453,-0.2196,9.8203
11,3,1,3,1,13.456,13456,1.6500,9.3400,-0.2100,9.4869,0.0076,-0.0153,0.0654,-13.31,91.94,251.69,2.5433,9.4315,-0.2183,9.7708
11,3,1,3,1,13.629,13629,4.0300,9.8100,-0.5300,10.6188,-0.0513,0.0295,0.1265,-16.63,92.19,254.94,2.7392,9.4813,-0.2594,9.8725
11,3,1,3,1,13.763,13763,3.1000,9.0500,0.0000,9.5662,0.0818,-0.0120,0.4701,-17.50,92.25,255.75,2.7867,9.4245,-0.2252,9.8305
11,3,1,3,1,13.894,13894,3.0100,9.2900,-0.3300,9.7710,-0.0371,0.0469,-0.0545,-19.25,92.00,257.38,2.8162,9.4068,-0.2390,9.8222
11,3,1,3,1,14.024,14024,2.0300,9.4600,-0.4700,9.6868,0.0000,0.0654,0.2367,-19.63,92.38,257.31,2.7126,9.4138,-0.2695,9.8005
11,3,1,3,1,14.170,14170,4.6000,9.9400,0.1200,10.9534,0.0262,-0.0044,-0.3251,-22.63,92.44,259.94,2.9613,9.4831,-0.2181,9.9371
11,3,1,3,1,14.305,14305,3.3600,9.5200,-0.1400,10.0965,0.0371,-0.0567,0.2083,-22.31,92.00,259.50,3.0138,9.4880,-0.2078,9.9573
11,3,1,3,1,14.435,14435,4.4700,8.0600,-0.0700,9.2168,-0.0458,-0.0687,-0.1724,-24.38,91.88,262.00,3.2057,9.2998,-0.1897,9.8387
11,3,1,3,1,14.566,14566,3.9700,9.2200,-0.1700,10.0398,-0.0578,-0.0589,0.1342,-23.88,92.06,262.00,3.3064,9.2893,-0.1871,9.8620
11,3,1,3,1,14.739,14739,4.2700,10.8600,-0.2900,11.6729,-0.0240,-0.0022,-0.0774,-23.75,92.44,262.00,3.4334,9.4963,-0.2007,10.0999
11,3,1,3,1,14.870,14870,4.6200,7.8800,-0.1400,9.1356,0.0262,0.0000,0.4483,-26.31,92.44,264.31,3.5898,9.2833,-0.1927,9.9550
11,3,1,3,1,15.000,15000,3.9200,8.3700,-0.1800,9.2442,0.0284,0.0044,-0.0142,-26.56,92.25,264.31,3.6333,9.1629,-0.1910,9.8588
11,3,1,3,1,15.131,15131,4.8300,8.9800,-0.1800,10.1981,-0.0033,-0.0022,0.2160,-27.19,92.13,264.88,3.7910,9.1388,-0.1895,9.8957
11,3,1,3,1,15.263,15263,4.6100,9.2300,-0.2200,10.3196,0.0011,-0.0044,0.0022,-27.56,92.13,265.25,3.8989,9.1508,-0.1936,9.9487
11,3,1,3,1,15.394,15394,4.5500,9.5000,-0.1700,10.5348,0.0240,0.0295,-0.1800,-27.13,92.06,264.69,3.9847,9.1969,-0.1905,10.0248
11,3,1,3,1,15.525,15525,4.1100,8.3500,-0.0600,9.3069,0.0273,0.0087,0.2029,-27.56,91.94,264.94,4.0012,9.0853,-0.1733,9.9288
11,3,1,3,1,15.658,15658,4.9900,9.5000,-0.1400,10.7317,0.0622,0.0556,-0.0567,-27.69,91.69,264.63,4.1315,9.1399,-0.1689,10.0317
11,3,1,3,1,15.831,15831,4.1600,7.7800,0.1400,8.8235,0.0196,-0.0229,0.1440,-28.25,91.38,264.94,4.1353,8.9607,-0.1282,9.8697
11,3,1,3,1,15.961,15961,4.4800,9.6600,-0.2400,10.6510,-0.0087,0.0120,-0.2934,-27.69,91.25,264.38,4.1807,9.0529,-0.1429,9.9726
11,3,1,3,1,16.091,16091,5.0400,8.8900,0.1000,10.2198,-0.0153,0.0327,0.0665,-28.44,91.44,265.00,4.2939,9.0314,-0.1109,10.0008
11,3,1,3,1,16.221,16221,4.3300,8.8900,0.0000,9.8884,-0.0218,0.0175,-0.0469,-27.94,91.56,264.38,4.2987,9.0128,-0.0963,9.9859
11,3,1,3,1,16.351,16351,4.9800,8.9200,-0.1700,10.2174,-0.0567,0.0207,-0.0447,-28.44,91.81,265.00,4.3885,9.0005,-0.1060,10.0140
11,3,1,3,1,16.481,16481,5.1500,9.2700,-0.1600,10.6057,-0.0087,0.0142,0.0698,-28.63,92.13,265.13,4.4888,9.0361,-0.1131,10.0902
11,3,1,3,1,16.611,16611,4.6500,8.8300,-0.2200,9.9820,0.0065,-0.0229,-0.1320,-28.31,92.00,264.88,4.5101,9.0089,-0.1272,10.0756
11,3,1,3,1,16.742,16742,4.2700,8.8700,-0.1900,9.8461,0.0076,-0.0349,-0.1069,-27.94,91.88,264.69,4.4784,8.9906,-0.1355,10.0452
11,3,1,3,1,16.914,16914,4.8800,9.3600,-0.0900,10.5561,0.0404,-0.0436,0.2443,-27.69,91.44,264.63,4.5313,9.0393,-0.1295,10.1123
11,3,1,3,1,17.044,17044,4.8200,8.1900,0.0600,9.5033,0.0055,-0.0425,-0.1134,-28.31,91.06,265.50,4.5694,8.9274,-0.1045,10.0294
11,3,1,3,1,17.174,17174,4.3500,9.2100,-0.0400,10.1857,-0.0316,-0.0076,-0.1625,-26.94,91.00,264.31,4.5405,8.9646,-0.0960,10.0493
11,3,1,3,1,17.304,17304,4.0500,8.9700,-0.0500,9.8420,-0.0251,0.0076,0.0185,-25.75,91.25,263.25,4.4758,8.9653,-0.0900,10.0209
11,3,1,3,1,17.434,17434,5.2000,9.2700,0.0000,10.6289,-0.0055,0.0425,0.0774,-25.31,91.44,262.75,4.5713,9.0055,-0.0781,10.0996
11,3,1,3,1,17.564,17564,4.4700,8.8200,-0.0900,9.8884,0.0055,0.0469,-0.0556,-24.38,91.63,261.44,4.5579,8.9810,-0.0797,10.0717
11,3,1,3,1,17.694,17694,4.3200,9.1800,0.0500,10.1458,0.0109,0.0033,0.1004,-23.31,91.69,260.19,4.5266,9.0072,-0.0626,10.0809
11,3,1,3,1,17.825,17825,4.8500,9.3500,-0.0300,10.5331,0.0033,-0.0120,-0.2683,-22.88,91.63,259.75,4.5692,9.0524,-0.0583,10.1404
11,3,1,3,1,17.997,17997,3.0100,8.6400,-0.1300,9.1502,0.0142,0.0033,0.0284,-20.63,91.50,257.56,4.3637,8.9981,-0.0677,10.0006
11,3,1,3,1,18.128,18128,3.6100,9.6800,-0.0300,10.3313,0.0131,0.0000,-0.3403,-20.44,91.44,257.38,4.2644,9.0879,-0.0628,10.0389
11,3,1,3,1,18.258,18258,3.2400,8.5600,-0.1000,9.1532,0.0142,0.0153,0.0774,-19.31,91.31,256.19,4.1294,9.0184,-0.0677,9.9190
11,3,1,3,1,18.389,18389,3.4200,9.3500,-0.1000,9.9564,-0.0425,0.0382,-0.4494,-17.81,91.50,254.50,4.0359,9.0621,-0.0719,9.9204
11,3,1,3,1,18.519,18519,3.1600,8.8000,-0.1700,9.3517,-0.0753,0.0415,-0.2193,-15.75,92.00,252.25,3.9205,9.0275,-0.0849,9.8425
11,3,1,3,1,18.652,18652,1.3000,9.8000,-0.1800,9.8875,-0.0382,-0.0295,-0.2542,-13.13,92.31,249.63,3.5752,9.1293,-0.0974,9.8049
11,3,1,3,1,18.783,18783,1.6800,10.3300,-0.2400,10.4685,0.0415,-0.0535,-0.0382,-12.56,92.25,249.44,3.3255,9.2875,-0.1162,9.8656
11,3,1,3,1,18.917,18917,2.1500,9.5300,-0.2500,9.7727,0.1124,-0.0055,0.0458,-12.94,91.56,249.88,3.1706,9.3195,-0.1338,9.8450
11,3,1,3,1,19.089,19089,2.1300,9.5300,-0.1600,9.7664,0.0011,0.0425,-0.0022,-13.00,91.13,249.63,3.0334,9.3472,-0.1373,9.8281
11,3,1,3,1,19.219,19219,2.2100,9.7200,-0.4600,9.9787,0.0011,0.0425,0.0622,-12.94,91.25,249.31,2.9249,9.3964,-0.1798,9.8427
11,3,1,3,1,19.349,19349,2.2300,9.2700,-0.5800,9.5521,-0.0676,0.0676,0.0644,-13.25,91.75,249.19,2.8334,9.3797,-0.2325,9.8011
11,3,1,3,1,19.479,19479,2.5000,9.7400,-0.1700,10.0572,-0.1298,0.0120,0.1069,-13.75,92.69,249.63,2.7894,9.4272,-0.2243,9.8338
11,3,1,3,1,19.609,19609,2.6300,10.0400,0.1300,10.3796,-0.0764,-0.0305,-0.0022,-14.56,92.75,250.75,2.7684,9.5079,-0.1776,9.9044
11,3,1,3,1,19.739,19739,3.3400,9.9200,0.7300,10.4926,-0.0698,-0.0818,0.0644,-15.38,92.88,252.06,2.8437,9.5622,-0.0580,9.9763
11,3,1,3,1,19.870,19870,2.3100,10.0300,0.8800,10.3301,0.0524,-0.1244,0.0011,-14.75,92.69,252.19,2.7734,9.6239,0.0656,10.0157
11,3,1,3,1,20.000,20000,2.7400,10.1800,0.6900,10.5649,0.1113,-0.0862,0.0131,-14.44,90.75,252.44,2.7690,9.6972,0.1479,10.0858
11,3,1,3,1,20.173,20173,3.9300,8.6400,-0.8100,9.5263,0.0164,-0.1004,0.2956,-17.00,89.56,255.69,2.9220,9.5579,0.0217,9.9945
11,3,1,3,1,20.304,20304,2.0900,8.7300,-2.4000,9.2920,-0.0753,-0.0109,0.0709,-16.69,89.69,255.81,2.8124,9.4488,-0.2975,9.8629
11,3,1,3,1,20.435,20435,2.6700,10.1900,-0.0400,10.5341,-0.0633,-0.0033,-0.3087,-17.00,90.31,256.31,2.7936,9.5464,-0.2635,9.9503
11,3,1,3,1,20.568,20568,3.0200,9.1200,-0.1800,9.6087,-0.0229,0.0327,0.0164,-18.00,90.50,257.25,2.8234,9.4902,-0.2525,9.9046
11,3,1,3,1,20.699,20699,3.9900,9.9400,0.0300,10.7110,-0.0164,0.1025,0.0164,-18.56,90.88,257.25,2.9772,9.5495,-0.2153,10.0051
11,3,1,3,1,20.832,20832,2.4900,8.8300,0.0000,9.1744,0.0556,0.0633,0.3185,-18.69,90.88,256.75,2.9130,9.4547,-0.1869,9.8950
11,3,1,3,1,20.982,20982,3.0400,9.9700,-0.2400,10.4259,0.0087,0.0567,-0.2487,-19.50,90.81,257.00,2.9297,9.5226,-0.1939,9.9650
11,3,1,3,1,21.113,21113,3.3300,9.4400,-0.1900,10.0119,0.0458,0.0033,-0.0284,-20.06,90.69,257.31,2.9825,9.5117,-0.1934,9.9702
11,3,1,3,1,21.286,21286,3.5300,8.9500,0.0600,9.6212,0.0502,0.0153,0.1822,-20.38,90.25,257.38,3.0546,9.4377,-0.1600,9.9210
11,3,1,3,1,21.416,21416,3.8500,8.6900,-0.1000,9.5052,-0.0033,-0.0185,0.1134,-20.94,90.13,257.88,3.1594,9.3392,-0.1521,9.8603
11,3,1,3,1,21.547,21547,3.1500,9.2800,-0.2100,9.8023,-0.0469,-0.0404,0.0240,-21.19,90.25,258.44,3.1582,9.3314,-0.1597,9.8526
11,3,1,3,1,21.677,21677,3.7700,9.5200,0.0400,10.2394,-0.0033,-0.0284,0.1287,-22.06,90.38,259.56,3.2388,9.3562,-0.1334,9.9018
11,3,1,3,1,21.807,21807,4.1500,9.4900,-0.1500,10.3588,0.0284,-0.0349,0.2149,-22.81,90.13,260.56,3.3589,9.3739,-0.1356,9.9584
11,3,1,3,1,21.937,21937,4.1100,9.3300,-0.0100,10.1952,-0.0033,0.0033,0.0949,-23.63,90.00,261.44,3.4579,9.3681,-0.1190,9.9866
11,3,1,3,1,22.067,22067,4.2600,8.8900,0.0000,9.8580,0.0076,-0.0393,0.2454,-24.31,89.88,262.25,3.5636,9.3051,-0.1034,9.9646
11,3,1,3,1,22.197,22197,3.6900,8.9200,-0.1100,9.6537,-0.0305,-0.0033,0.0262,-25.13,89.94,263.25,3.5802,9.2543,-0.1042,9.9233
11,3,1,3,1,22.370,22370,4.5200,9.4100,0.0500,10.4394,-0.0011,0.0458,0.0371,-25.81,90.38,263.44,3.7041,9.2748,-0.0839,9.9875
11,3,1,3,1,22.501,22501,4.9900,10.2400,-0.0100,11.3911,0.0382,0.0229,-0.0120,-25.75,90.31,262.63,3.8735,9.4020,-0.0742,10.1690
11,3,1,3,1,22.636,22636,4.3700,7.9100,0.0300,9.0369,0.0175,0.0164,0.2291,-26.81,90.19,263.44,3.9389,9.2054,-0.0604,10.0129
11,3,1,3,1,22.767,22767,4.2100,8.4400,-0.0200,9.4318,-0.0251,0.0087,-0.1440,-26.56,90.25,263.00,3.9747,9.1046,-0.0551,9.9345
11,3,1,3,1,22.897,22897,4.5800,9.5000,-0.2100,10.5485,-0.0393,0.0022,-0.0087,-26.00,90.50,262.38,4.0544,9.1567,-0.0755,10.0144
11,3,1,3,1,23.028,23028,4.4700,9.6500,-0.1900,10.6367,-0.0022,-0.0098,0.0142,-25.63,90.63,262.06,4.1092,9.2217,-0.0906,10.0962
11,3,1,3,1,23.158,23158,4.5400,8.5400,-0.1500,9.6729,0.0055,-0.0218,0.0327,-26.13,90.63,262.50,4.1660,9.1318,-0.0984,10.0377
11,3,1,3,1,23.289,23289,4.2100,9.4100,-0.0900,10.3092,0.0175,-0.0371,-0.1080,-25.31,90.44,261.75,4.1718,9.1685,-0.0973,10.0735
11,3,1,3,1,23.462,23462,5.0600,9.6900,-0.0400,10.9317,-0.0295,-0.0120,0.0469,-24.88,90.38,261.63,4.2888,9.2372,-0.0898,10.1847
11,3,1,3,1,23.593,23593,4.4800,8.6600,0.0600,9.7504,-0.0251,0.0175,-0.0196,-25.06,90.56,261.81,4.3140,9.1612,-0.0700,10.1263
11,3,1,3,1,23.723,23723,4.1300,9.8700,-0.1700,10.7006,-0.0153,0.0480,-0.1789,-23.81,90.81,260.38,4.2898,9.2546,-0.0832,10.2008
11,3,1,3,1,23.854,23854,4.1300,9.3600,-0.2300,10.2332,0.0131,0.0349,0.0382,-23.25,90.94,259.50,4.2687,9.2685,-0.1026,10.2047
11,3,1,3,1,23.986,23986,4.0000,8.9400,-0.0700,9.7943,0.0578,-0.0175,-0.2203,-23.06,90.69,259.19,4.2333,9.2252,-0.0983,10.1506
11,3,1,3,1,24.120,24120,3.2400,8.7100,0.0800,9.2934,0.0513,-0.0196,-0.1713,-22.06,90.13,258.19,4.1024,9.1573,-0.0748,10.0345
11,3,1,3,1,24.251,24251,2.8000,9.5100,-0.0300,9.9137,-0.0065,-0.0098,-0.1036,-21.00,89.94,257.19,3.9308,9.2038,-0.0689,10.0083
11,3,1,3,1,24.382,24382,4.4800,9.2200,0.1900,10.2526,-0.0404,0.0044,-0.4156,-21.56,90.13,257.81,4.0032,9.2059,-0.0348,10.0387
11,3,1,3,1,24.554,24554,3.1500,9.9100,-0.0500,10.3987,-0.0774,0.0185,-0.1276,-19.75,90.75,256.13,3.8907,9.2987,-0.0368,10.0799
11,3,1,3,1,24.684,24684,2.6200,9.5600,-0.6200,9.9319,-0.0665,0.0131,-0.2836,-18.88,91.31,255.31,3.7233,9.3331,-0.1136,10.0490
11,3,1,3,1,24.814,24814,3.0400,9.3100,-0.1900,9.7956,-0.0196,0.0218,-0.3785,-18.94,91.63,255.38,3.6332,9.3301,-0.1237,10.0133
11,3,1,3,1,24.944,24944,2.3100,7.3900,-0.2300,7.7460,0.0218,0.0633,0.2945,-18.06,91.63,254.19,3.4589,9.0744,-0.1377,9.7123
11,3,1,3,1,25.074,25074,-0.5800,10.1300,-0.3500,10.1526,0.0425,0.0469,-0.3251,-13.69,91.69,249.38,2.9267,9.2135,-0.1657,9.6686
11,4,1,3,1,25.204,25204,3.2800,10.0700,-0.1000,10.5912,0.0131,-0.0349,-1.2043,-15.31,91.44,251.19,2.9732,9.3264,-0.1570,9.7901
11,4,1,3,1,25.334,25334,1.9000,9.2600,-0.1900,9.4548,0.0338,-0.0535,0.2476,-12.63,91.06,249.13,2.8318,9.3176,-0.1614,9.7398
11,4,1,3,1,25.464,25464,1.4300,9.9100,-0.1200,10.0134,0.0273,-0.0218,-0.3109,-12.06,90.75,249.00,2.6471,9.3957,-0.1559,9.7627
11,4,1,3,1,25.637,25637,2.3000,9.7600,-0.0400,10.0274,-0.0589,-0.0022,-0.0404,-12.50,90.88,249.50,2.6013,9.4437,-0.1406,9.7964
11,4,1,3,1,25.768,25768,2.3300,9.8400,-0.2600,10.1154,-0.0774,-0.0185,0.0556,-12.50,91.44,249.75,2.5656,9.4959,-0.1564,9.8376
11,4,1,3,1,25.898,25898,2.2700,9.8900,-0.3400,10.1529,-0.0535,-0.0349,0.0131,-12.81,91.88,250.38,2.5266,9.5479,-0.1806,9.8782
11,4,1,3,1,26.028,26028,2.2200,9.6700,-0.3700,9.9285,-0.0273,-0.0556,0.1102,-13.19,92.06,251.25,2.4862,9.5639,-0.2055,9.8840
11,4,1,3,1,26.158,26158,2.6100,10.0400,-0.2200,10.3760,-0.0120,-0.0535,0.0447,-14.06,92.06,252.56,2.5025,9.6267,-0.2074,9.9488
11,4,1,3,1,26.288,26288,2.6300,9.2600,-0.3900,9.6341,0.0055,-0.0316,0.1276,-14.69,92.00,253.50,2.5193,9.5784,-0.2315,9.9068
11,4,1,3,1,26.418,26418,2.5600,9.7900,-0.2700,10.1228,-0.0295,-0.0065,0.0654,-14.81,92.13,253.81,2.5247,9.6062,-0.2366,9.9353
11,4,1,3,1,26.548,26548,2.7000,9.4400,-0.3900,9.8263,0.0131,-0.0087,0.1080,-15.44,92.13,254.44,2.5478,9.5843,-0.2568,9.9205
11,4,1,3,1,26.721,26721,2.9100,9.4800,-0.2900,9.9208,-0.0011,0.0044,0.1407,-16.44,92.13,255.44,2.5955,9.5706,-0.2612,9.9197
11,4,1,3,1,26.851,26851,3.2700,9.4000,-0.2000,9.9545,-0.0109,-0.0011,0.1451,-17.69,92.19,256.69,2.6844,9.5481,-0.2531,9.9215
11,4,1,3,1,26.981,26981,2.3000,9.4300,-0.3500,9.7127,0.0022,0.0284,0.1102,-17.88,92.19,256.81,2.6337,9.5325,-0.2659,9.8933
11,4,1,3,1,27.112,27112,3.2900,9.2000,0.0600,9.7708,0.0142,0.0295,0.2367,-18.88,92.13,257.50,2.7202,9.4887,-0.2229,9.8735
11,4,1,3,1,27.244,27244,3.6600,8.7800,-0.2500,9.5156,0.0284,-0.0218,0.3272,-20.25,92.00,258.81,2.8441,9.3953,-0.2265,9.8190
11,4,1,3,1,27.378,27378,4.0300,9.2400,-0.4000,10.0885,0.0185,-0.0513,0.1604,-21.56,91.75,260.38,3.0003,9.3749,-0.2494,9.8464
11,4,1,3,1,27.509,27509,4.4100,10.2500,0.0000,11.1584,0.0382,-0.0567,0.2116,-22.38,91.38,260.88,3.1861,9.4902,-0.2165,10.0131
11,4,1,3,1,27.639,27639,3.9800,8.9100,-0.1900,9.7604,0.0524,-0.0545,0.2673,-23.19,90.88,261.75,3.2907,9.4137,-0.2130,9.9746
11,4,1,3,1,27.812,27812,4.4000,9.6200,-0.0300,10.5785,-0.0469,0.0207,-0.0916,-24.69,90.88,263.38,3.4369,9.4409,-0.1889,10.0488
11,4,1,3,1,27.942,27942,4.9800,9.0300,0.0100,10.3122,0.0556,0.0687,0.4036,-25.56,91.00,263.50,3.6402,9.3868,-0.1627,10.0692
11,4,1,3,1,28.072,28072,4.6400,9.2700,-0.0400,10.3665,0.0578,0.0971,-0.2673,-25.63,90.88,262.50,3.7720,9.3714,-0.1465,10.1031
11,4,1,3,1,28.202,28202,3.9900,8.4600,-0.1600,9.3551,-0.0087,0.0654,0.0665,-24.81,90.94,260.94,3.8007,9.2513,-0.1483,10.0027
11,4,1,3,1,28.332,28332,4.2200,9.0500,-0.0200,9.9856,-0.0131,0.0262,0.1953,-25.19,91.13,261.00,3.8560,9.2248,-0.1314,9.9991
11,4,1,3,1,28.462,28462,4.6800,9.8400,-0.0200,10.8963,0.0327,0.0545,0.0556,-25.19,91.31,260.44,3.9645,9.3058,-0.1167,10.1158
11,4,1,3,1,28.592,28592,4.7100,8.8100,-0.1800,9.9916,0.0273,-0.0600,-0.0382,-26.06,90.94,261.25,4.0628,9.2405,-0.1251,10.0950
11,4,1,3,1,28.722,28722,5.1800,9.4100,-0.1400,10.7424,-0.0065,-0.0731,-0.0382,-26.38,90.63,262.06,4.2100,9.2628,-0.1270,10.1755
11,4,1,3,1,28.895,28895,4.6000,8.7400,-0.0800,9.8769,-0.0316,-0.0698,-0.0622,-26.88,90.44,263.13,4.2614,9.1939,-0.1208,10.1342
11,4,1,3,1,29.026,29026,4.7100,9.1000,-0.0100,10.2467,-0.0491,-0.0916,0.0153,-27.19,90.38,264.13,4.3205,9.1816,-0.1062,10.1479
11,4,1,3,1,29.156,29156,4.7800,9.1700,0.2100,10.3432,0.0087,-0.0774,-0.0120,-27.19,90.19,264.75,4.3811,9.1800,-0.0646,10.1721
11,4,1,3,1,29.286,29286,4.3000,8.9400,0.1700,9.9218,-0.0185,-0.0262,-0.0971,-26.88,90.00,264.81,4.3704,9.1484,-0.0336,10.1388
11,4,1,3,1,29.417,29417,4.4600,9.8600,0.1000,10.8223,-0.0349,0.0349,-0.1724,-26.31,90.25,264.38,4.3822,9.2422,-0.0160,10.2285
11,4,1,3,1,29.547,29547,4.8500,9.6500,0.0800,10.8005,-0.0305,0.0731,-0.1364,-26.25,90.69,264.00,4.4438,9.2959,-0.0034,10.3035
11,5,1,3,1,29.678,29678,4.3100,9.0900,-0.0500,10.0602,-0.0229,0.0720,-0.1473,-25.44,91.13,262.75,4.4262,9.2688,-0.0095,10.2714
11,5,1,3,1,29.809,29809,3.8600,7.9600,-0.2400,8.8498,-0.0011,0.0480,0.0131,-24.75,91.31,261.69,4.3516,9.0963,-0.0399,10.0837
11,5,1,3,1,29.985,29985,3.5300,10.3300,-0.2500,10.9194,-0.0382,-0.0109,-0.2225,-22.94,91.69,259.94,4.2433,9.2589,-0.0676,10.1852
11,5,1,3,1,30.115,30115,4.2400,8.7000,-0.1400,9.6792,0.0022,-0.0382,-0.0687,-23.63,91.63,260.81,4.2429,9.1852,-0.0771,10.1181
11,5,1,3,1,30.246,30246,3.9800,9.4200,-0.0600,10.2265,0.0033,-0.0251,-0.0960,-22.44,91.50,259.88,4.2082,9.2162,-0.0749,10.1318
11,5,1,3,1,30.376,30376,4.2500,8.9100,-0.2200,9.8742,-0.0164,-0.0349,-0.0829,-22.13,91.44,259.75,4.2137,9.1758,-0.0940,10.0975
11,5,1,3,1,30.507,30507,3.5900,9.3900,-0.1900,10.0547,-0.0142,-0.0142,-0.1429,-21.00,91.44,258.81,4.1316,9.2041,-0.1066,10.0894
11,5,1,3,1,30.637,30637,3.1400,9.5200,-0.2100,10.0267,-0.0076,0.0316,-0.1484,-19.63,91.44,257.38,4.0009,9.2457,-0.1203,10.0749
11,5,1,3,1,30.767,30767,2.4700,9.0900,-0.2000,9.4217,-0.0120,0.0764,-0.0251,-18.75,91.63,256.13,3.7992,9.2252,-0.1308,9.9777
11,5,1,3,1,30.898,30898,3.9000,8.4200,-0.2300,9.2822,-0.0273,0.0938,-0.2596,-20.13,92.00,256.94,3.8124,9.1191,-0.1438,9.8850
11,5,1,3,1,31.070,31070,3.9300,9.0500,-0.2400,9.8694,0.0065,0.0502,0.3272,-19.25,92.31,255.38,3.8279,9.1100,-0.1565,9.8828
11,5,1,3,1,31.200,31200,3.2700,9.3600,-0.2600,9.9182,-0.0044,0.0262,-0.0938,-19.06,92.38,255.00,3.7544,9.1429,-0.1702,9.8852
11,5,1,3,1,31.330,31330,3.0400,9.4600,-0.2800,9.9404,-0.0120,0.0764,-0.1254,-18.19,92.50,253.75,3.6603,9.1847,-0.1846,9.8889
11,5,1,3,1,31.460,31460,3.4000,9.5100,-0.3200,10.1046,-0.0229,0.0665,0.0185,-17.63,92.75,252.69,3.6260,9.2276,-0.2025,9.9165
11,5,1,3,1,31.590,31590,3.3700,9.8000,-0.5300,10.3768,-0.0175,0.0338,-0.1407,-17.38,93.00,252.19,3.5922,9.3030,-0.2456,9.9755
11,5,1,3,1,31.720,31720,3.1500,9.4700,-0.4600,9.9907,0.0327,-0.0251,0.0087,-17.25,92.94,252.00,3.5340,9.3250,-0.2739,9.9760
11,5,1,3,1,31.850,31850,3.4500,9.3700,-0.4100,9.9934,0.0076,-0.0916,0.0971,-17.75,92.69,252.88,3.5229,9.3309,-0.2918,9.9781
11,5,1,3,1,31.980,31980,2.9400,8.4300,-0.4500,8.9393,0.0076,-0.1080,0.2825,-18.88,92.44,254.75,3.4461,9.2122,-0.3127,9.8406
11,5,1,3,1,32.153,32153,2.6100,10.4800,-0.0200,10.8001,-0.0164,-0.0633,-0.1647,-19.63,92.31,256.25,3.3359,9.3793,-0.2741,9.9586
11,5,1,3,1,32.284,32284,3.1400,8.0000,-0.3300,8.6005,0.0273,-0.0175,0.2487,-21.63,92.06,258.50,3.3101,9.1975,-0.2815,9.7791
11,5,1,3,1,32.415,32415,3.6200,9.5400,-0.2400,10.2065,-0.0065,0.0251,-0.3109,-21.81,92.06,258.63,3.3509,9.2427,-0.2760,9.8352
11,5,1,3,1,32.546,32546,4.0000,9.5000,-0.2700,10.3113,0.0087,0.0491,0.2062,-21.63,92.19,258.13,3.4365,9.2766,-0.2752,9.8964
11,5,1,3,1,32.681,32681,4.0000,9.4900,-0.1100,10.2991,0.0044,0.0185,0.0044,-21.69,92.25,257.94,3.5107,9.3047,-0.2534,9.9482
11,5,1,3,1,32.812,32812,3.7200,9.3300,-0.2800,10.0482,0.0207,-0.0142,0.1254,-22.06,92.13,258.31,3.5383,9.3080,-0.2569,9.9612
11,5,1,3,1,32.943,32943,4.1600,9.4000,-0.2400,10.2822,-0.0251,-0.0480,-0.0240,-23.00,92.13,259.44,3.6202,9.3201,-0.2547,10.0018
11,5,1,3,1,33.073,33073,4.3400,9.4200,-0.2500,10.3747,-0.0076,-0.0698,0.1222,-23.75,92.06,260.69,3.7151,9.3333,-0.2541,10.0487
11,5,1,3,1,33.246,33246,4.1900,8.7300,-0.2300,9.6862,0.0316,-0.0840,0.2247,-24.94,91.44,262.44,3.7777,9.2538,-0.2509,9.9983
11,5,1,3,1,33.377,33377,3.4300,8.6300,0.0000,9.2866,0.0436,-0.0044,0.2051,-25.56,91.06,263.25,3.7318,9.1716,-0.2178,9.9042
11,5,1,3,1,33.507,33507,4.9500,10.3500,-0.0400,11.4729,0.0654,0.0229,-0.1920,-25.63,90.69,263.00,3.8924,9.3269,-0.1944,10.1084
11,5,1,3,1,33.640,33640,4.3200,8.1400,0.0200,9.2153,0.0262,0.0175,0.3916,-26.75,90.38,263.88,3.9487,9.1705,-0.1662,9.9859
11,5,1,3,1,33.771,33771,4.5600,9.1300,0.0800,10.2057,-0.0076,-0.0044,-0.1233,-27.19,90.44,264.31,4.0293,9.1651,-0.1337,10.0126
11,5,1,3,1,33.904,33904,4.1200,7.6500,-0.0700,8.6892,-0.0251,0.0240,0.3327,-28.13,90.50,265.25,4.0412,8.9655,-0.1253,9.8350
11,5,1,3,1,34.035,34035,4.1700,10.2200,-0.0200,11.0380,-0.0185,0.0436,0.0742,-27.06,90.88,264.00,4.0582,9.1308,-0.1114,9.9926
11,5,1,3,1,34.166,34166,4.8400,8.2600,-0.0200,9.5736,-0.0425,0.0633,0.3709,-29.38,91.31,265.69,4.1612,9.0161,-0.0994,9.9305
11,5,1,3,1,34.338,34338,5.3900,8.2000,-0.2200,9.8153,0.0153,0.0109,0.4811,-31.06,91.50,266.88,4.3231,8.9085,-0.1153,9.9028
11,5,1,3,1,34.468,34468,5.3300,9.1400,-0.3200,10.5854,0.0044,-0.0055,-0.1898,-31.56,91.56,267.19,4.4558,8.9390,-0.1423,9.9890
11,5,1,3,1,34.598,34598,5.6700,8.4700,-0.0600,10.1928,0.0404,-0.0774,0.1549,-32.06,91.13,267.75,4.6158,8.8772,-0.1314,10.0064
11,5,1,3,1,34.728,34728,5.4600,8.2200,0.0200,9.8682,0.0109,-0.0862,0.1047,-32.06,90.50,267.88,4.7271,8.7906,-0.1115,9.9816
11,5,1,3,1,34.858,34858,5.0100,8.7400,0.1500,10.0752,-0.0109,-0.0567,-0.1265,-31.63,90.19,267.81,4.7643,8.7839,-0.0770,9.9931
11,5,1,3,1,34.988,34988,6.1900,9.5000,0.1300,11.3394,-0.0240,-0.0087,0.0120,-31.00,90.19,267.38,4.9522,8.8783,-0.0497,10.1662
11,5,1,3,1,35.118,35118,5.3900,9.5500,0.1600,10.9672,-0.0131,0.0033,-0.2138,-29.75,90.31,266.00,5.0099,8.9668,-0.0221,10.2715
11,6,1,3,1,35.248,35248,4.2100,8.4000,0.0400,9.3960,0.0044,0.0033,-0.1014,-28.81,90.31,265.06,4.9045,8.8921,-0.0139,10.1550
11,6,1,3,1,35.421,35421,4.9000,8.3800,-0.0700,9.7077,-0.0251,0.0218,0.0709,-28.50,90.38,264.63,4.9039,8.8246,-0.0213,10.0957
11,6,1,3,1,35.551,35551,4.6000,8.9400,0.0100,10.0540,-0.0022,0.0109,-0.1167,-27.63,90.56,263.63,4.8639,8.8398,-0.0172,10.0896
11,6,1,3,1,35.681,35681,4.8200,8.8600,0.0800,10.0865,0.0175,-0.0044,-0.1222,-26.94,90.44,262.94,4.8581,8.8425,-0.0044,10.0891
11,6,1,3,1,35.811,35811,4.2500,8.1500,-0.0200,9.1916,0.0033,0.0033,0.0938,-26.06,90.31,262.00,4.7779,8.7512,-0.0064,9.9706
11,6,1,3,1,35.941,35941,3.5300,10.1200,0.0300,10.7180,0.0033,0.0185,-0.3600,-24.13,90.31,260.00,4.6135,8.9316,-0.0016,10.0528
11,6,1,3,1,36.071,36071,4.8600,7.4700,0.1300,8.9128,-0.0196,0.0142,0.4254,-24.31,90.38,260.00,4.6460,8.7390,0.0157,9.8973
11,6,1,3,1,36.201,36201,3.2700,8.7300,-0.3000,9.3272,-0.0633,0.0131,-0.1309,-22.81,90.75,258.69,4.4647,8.7378,-0.0259,9.8124
11,6,1,3,1,36.331,36331,3.1900,10.0300,0.1300,10.5259,-0.0382,0.0338,-0.2193,-20.56,91.31,256.44,4.2967,8.9081,-0.0053,9.8902
11,6,1,3,1,36.504,36504,3.0700,10.0300,-0.1300,10.4901,-0.0098,0.0076,-0.6818,-18.19,91.50,253.94,4.1350,9.0559,-0.0218,9.9554
11,6,1,3,1,36.635,36635,2.8700,8.4100,-0.2300,8.8892,0.0218,0.0033,-0.1124,-17.63,91.31,253.31,3.9683,8.9708,-0.0492,9.8095
11,6,1,3,1,36.766,36766,1.6900,9.7500,-0.3400,9.9012,-0.0153,-0.0098,-0.0098,-15.38,91.31,251.06,3.6681,9.0735,-0.0875,9.7873
11,6,1,3,1,36.901,36901,2.6400,10.0400,-0.1100,10.3819,-0.0065,-0.0305,-0.0513,-15.94,91.38,251.81,3.5326,9.2009,-0.0905,9.8561
11,6,1,3,1,37.031,37031,2.8800,9.5400,-0.0800,9.9656,0.0295,-0.0665,0.1124,-15.81,91.13,252.00,3.4466,9.2455,-0.0891,9.8675
11,6,1,3,1,37.163,37163,2.6100,9.4900,-0.0700,9.8426,0.0120,-0.0131,-0.0862,-15.94,90.81,252.44,3.3364,9.2778,-0.0866,9.8598
11,6,1,3,1,37.293,37293,2.6000,9.4500,-0.0200,9.8012,-0.0153,0.0229,0.0622,-16.00,90.88,252.44,3.2394,9.3005,-0.0778,9.8488
11,6,1,3,1,37.424,37424,2.7200,9.6200,-0.1700,9.9986,-0.0327,0.0480,0.0295,-16.25,91.13,252.50,3.1709,9.3426,-0.0900,9.8664
11,6,1,3,1,37.596,37596,2.8900,9.6500,-0.0500,10.0736,0.0098,0.0098,0.0065,-16.38,91.31,252.38,3.1339,9.3831,-0.0847,9.8930
11,6,1,3,1,37.726,37726,2.7900,9.4900,-0.1900,9.8934,0.0055,0.0011,0.0796,-16.88,91.25,252.81,3.0886,9.3972,-0.0986,9.8922
11,6,1,3,1,37.856,37856,3.0400,9.6700,-0.2300,10.1392,0.0131,-0.0131,0.0458,-17.13,91.13,253.06,3.0822,9.4331,-0.1159,9.9246
11,6,1,3,1,37.986,37986,2.9800,8.5400,-0.1300,9.0459,-0.0229,-0.0175,0.1854,-18.25,91.13,254.31,3.0687,9.3154,-0.1178,9.8086
11,6,1,3,1,38.116,38116,2.6900,9.8900,-0.1000,10.2498,-0.0327,-0.0022,-0.0687,-18.00,91.31,254.19,3.0188,9.3911,-0.1154,9.8651
11,6,1,3,1,38.246,38246,4.6200,9.1300,-0.0300,10.2324,-0.0142,-0.0022,0.0055,-19.81,91.44,256.00,3.2298,9.3567,-0.1042,9.8990
11,6,1,3,1,38.376,38376,3.2400,9.1200,-0.2400,9.6814,0.0393,0.0033,0.2345,-19.75,91.31,255.94,3.2311,9.3255,-0.1221,9.8702
11,6,1,3,1,38.506,38506,3.0800,8.8300,-0.1900,9.3537,-0.0175,0.0120,-0.0829,-21.06,91.25,257.19,3.2112,9.2602,-0.1310,9.8021
11,6,1,3,1,38.679,38679,4.1300,9.8600,-0.0400,10.6901,-0.0044,0.0011,0.2400,-21.69,91.56,257.88,3.3323,9.3393,-0.1190,9.9167
11,6,1,3,1,38.809,38809,3.5900,8.4300,0.0000,9.1626,0.0262,0.0011,0.1898,-22.75,91.50,258.88,3.3663,9.2195,-0.1033,9.8153
11,6,1,3,1,38.939,38939,3.8900,10.1100,-0.3100,10.8370,0.0491,-0.0218,-0.0927,-22.56,91.25,258.69,3.4353,9.3368,-0.1306,9.9496
11,6,1,3,1,39.069,39069,3.8800,8.7100,-0.0200,9.5351,0.0676,-0.0175,0.3294,-23.50,90.69,259.63,3.4939,9.2542,-0.1160,9.8925
11,6,1,3,1,39.199,39199,3.6500,9.0000,0.4200,9.7211,0.0382,-0.0393,0.1854,-24.31,90.25,260.38,3.5145,9.2207,-0.0454,9.8679
11,6,1,3,1,39.329,39329,4.9100,8.5300,0.1600,9.8435,-0.0229,-0.0894,0.1167,-27.06,89.94,263.69,3.6983,9.1297,-0.0183,9.8503
11,6,1,3,1,39.459,39459,3.7300,9.1700,0.1100,9.9002,-0.0436,0.0109,-0.1571,-26.44,90.06,263.38,3.7025,9.1350,-0.0014,9.8568
11,6,1,3,1,39.589,39589,4.2100,9.0800,0.2000,10.0105,0.0098,0.0393,-0.0567,-26.63,90.31,263.44,3.7694,9.1278,0.0251,9.8755
11,6,1,3,1,39.762,39762,4.0800,9.1800,0.1500,10.0470,-0.0447,0.0709,0.0338,-26.63,90.63,262.94,3.8103,9.1346,0.0416,9.8976
11,6,1,3,1,39.893,39893,4.6500,8.5100,-0.0700,9.6978,-0.0567,0.0894,0.3829,-27.44,91.38,263.44,3.9210,9.0523,0.0269,9.8651
11,6,1,3,1,40.023,40023,5.4200,9.8800,-0.2200,11.2712,0.0164,0.0175,-0.2738,-27.81,91.69,263.56,4.1185,9.1614,-0.0056,10.0446
11,6,1,3,1,40.157,40157,4.8700,8.0900,-0.0400,9.4428,0.0044,-0.0251,0.2782,-27.88,91.56,263.56,4.2175,9.0202,-0.0102,9.9575
11,6,1,3,1,40.287,40287,4.4700,9.5100,-0.0200,10.5082,0.0098,-0.0785,-0.1265,-27.50,91.31,263.56,4.2508,9.0848,-0.0115,10.0301
11,6,1,3,1,40.420,40420,4.7700,9.6200,0.0000,10.7377,-0.0229,-0.0633,-0.2269,-27.38,91.00,263.94,4.3192,9.1553,-0.0100,10.1230
11,6,1,3,1,40.551,40551,4.0500,8.5200,-0.1100,9.4342,-0.0305,-0.0229,0.2596,-27.44,91.00,264.31,4.2837,9.0716,-0.0231,10.0322
11,6,1,3,1,40.697,40697,4.9000,10.2200,-0.0600,11.3341,-0.0175,0.0295,-0.1811,-26.63,91.25,263.56,4.3649,9.2229,-0.0280,10.2037
11,6,1,3,1,40.872,40872,3.9700,8.7300,-0.1400,9.5913,-0.0185,0.0055,-0.1156,-26.06,91.63,262.88,4.3129,9.1580,-0.0428,10.1228
11,6,1,3,1,41.002,41002,4.7300,9.6500,-0.1600,10.7481,0.0076,-0.0065,-0.0502,-25.75,91.56,262.50,4.3679,9.2228,-0.0582,10.2050
11,6,1,3,1,41.133,41133,4.6100,7.9700,-0.1900,9.2092,-0.0284,-0.0316,0.2236,-26.06,91.56,263.00,4.3998,9.0577,-0.0756,10.0700
11,6,1,3,1,41.263,41263,3.1100,9.5300,-0.2100,10.0268,0.0044,-0.0229,-0.1124,-24.56,91.63,261.75,4.2298,9.1199,-0.0933,10.0535
11,6,1,3,1,41.393,41393,4.4100,8.1000,0.0000,9.2227,0.0284,-0.0458,0.3392,-25.13,91.31,262.44,4.2536,8.9855,-0.0810,9.9418
11,6,1,3,1,41.524,41524,4.8100,9.1400,-0.1500,10.3295,-0.0185,-0.0327,0.2476,-24.19,91.19,261.88,4.3269,9.0059,-0.0901,9.9918
11,6,1,3,1,41.654,41654,3.9900,8.5700,-0.1200,9.4541,-0.0196,0.0098,0.1614,-23.88,91.31,261.69,4.2825,8.9485,-0.0940,9.9209
11,6,1,3,1,41.785,41785,3.9200,10.0600,0.2000,10.7986,-0.0033,0.0338,-0.2847,-22.56,91.50,260.31,4.2347,9.0949,-0.0553,10.0326
11,6,1,3,1,41.957,41957,2.9700,8.1200,-0.2900,8.6510,-0.0404,0.0567,0.0654,-21.94,91.81,259.25,4.0681,8.9665,-0.0862,9.8465
11,6,1,3,1,42.088,42088,3.5100,9.0200,-0.3500,9.6852,-0.0436,0.0175,-0.4200,-21.25,92.25,258.50,3.9945,8.9735,-0.1210,9.8232
11,6,1,3,1,42.218,42218,3.6500,9.7300,-0.2500,10.3951,-0.0065,-0.0120,0.1222,-20.06,92.38,257.38,3.9491,9.0732,-0.1380,9.8963
11,6,1,3,1,42.349,42349,4.7000,10.1600,-0.3600,11.2002,-0.0251,-0.0142,-0.0589,-19.50,92.38,256.88,4.0481,9.2164,-0.1672,10.0676
11,6,1,3,1,42.479,42479,2.1200,9.4500,-0.2400,9.6879,-0.0011,-0.0251,0.1593,-18.13,92.44,255.69,3.7940,9.2472,-0.1768,9.9968
11,6,1,3,1,42.612,42612,4.3500,7.3400,-0.3700,8.5402,0.0000,-0.0164,-0.1156,-20.75,92.38,258.44,3.8673,8.9959,-0.2023,9.7940
11,6,1,3,1,42.743,42743,1.8900,10.2900,-0.2700,10.4656,0.0065,0.0360,-0.2149,-16.94,92.44,254.50,3.6067,9.1664,-0.2112,9.8527
11,6,1,3,1,42.877,42877,2.8700,9.1300,-0.1700,9.5720,0.0807,-0.0153,-0.7363,-16.56,92.00,254.13,3.5096,9.1616,-0.2058,9.8130
11,6,1,3,1,43.049,43049,3.4200,9.5200,0.0300,10.1157,-0.0131,0.0611,-0.1080,-15.69,91.69,253.19,3.4978,9.2088,-0.1747,9.8523
11,6,1,3,1,43.179,43179,2.2800,9.2200,0.0100,9.4977,-0.0447,0.0665,0.0720,-14.63,92.00,251.69,3.3373,9.2103,-0.1504,9.7975
11,6,1,3,1,43.309,43309,2.2800,9.6900,-0.2000,9.9566,-0.0633,0.0491,-0.0273,-15.13,92.50,252.06,3.1980,9.2735,-0.1569,9.8107
11,6,1,3,1,43.439,43439,3.0000,9.7500,-0.3600,10.2075,-0.0164,0.0371,-0.0087,-15.69,92.88,252.56,3.1719,9.3363,-0.1837,9.8621
11,6,1,3,1,43.569,43569,3.0100,9.5500,-0.3200,10.0182,0.0065,-0.0207,0.0196,-15.88,92.81,252.75,3.1506,9.3645,-0.2016,9.8823
11,6,1,3,1,43.699,43699,3.0900,9.5100,-0.3700,10.0063,0.0044,-0.0469,0.0578,-16.19,92.63,253.38,3.1426,9.3836,-0.2238,9.8984
11,6,1,3,1,43.830,43830,2.4200,9.6500,-0.2400,9.9517,0.0055,-0.0567,0.0458,-16.00,92.44,253.50,3.0474,9.4187,-0.2260,9.9020
11,6,1,3,1,43.960,43960,3.0100,9.3100,-0.2900,9.7888,0.0000,-0.0393,0.2094,-16.94,92.31,254.81,3.0425,9.4044,-0.2344,9.8871
11,6,1,3,1,44.133,44133,2.9700,9.6000,-0.3600,10.0554,0.0000,0.0000,0.0218,-17.38,92.13,255.38,3.0329,9.4302,-0.2509,9.9091
11,6,1,3,1,44.263,44263,2.5200,8.5900,0.0100,8.9520,0.0109,0.0055,0.2858,-18.13,92.19,256.13,2.9653,9.3195,-0.2166,9.7823
11,6,1,3,1,44.393,44393,3.2000,9.5100,-0.5900,10.0513,-0.0251,0.0251,-0.1091,-19.00,92.19,257.00,2.9962,9.3446,-0.2658,9.8168
11,6,1,3,1,44.523,44523,2.6100,9.8300,-0.1600,10.1719,0.0164,0.0436,0.1865,-18.75,92.44,256.50,2.9453,9.4085,-0.2518,9.8620
11,6,1,3,1,44.653,44653,3.8000,8.6300,-0.1700,9.4311,0.0589,0.0196,-0.0087,-20.44,92.13,257.88,3.0580,9.3060,-0.2410,9.7985
11,6,1,3,1,44.783,44783,2.4900,9.9300,-0.0800,10.2377,0.0218,-0.0207,0.0109,-19.25,91.88,256.56,2.9831,9.3882,-0.2198,9.8532
11,6,1,3,1,44.913,44913,3.6900,8.2100,-0.0700,9.0014,-0.0033,-0.0164,0.1865,-21.25,91.75,258.69,3.0763,9.2329,-0.2001,9.7340
11,6,1,3,1,45.043,45043,3.1700,10.0300,-0.2100,10.5211,0.0033,0.0305,0.2793,-20.75,91.88,258.19,3.0886,9.3380,-0.2014,9.8376
11,6,1,3,1,45.216,45216,4.3400,8.7000,-0.1600,9.7237,0.0218,0.0556,-0.0535,-21.94,91.88,258.88,3.2535,9.2539,-0.1959,9.8111
11,6,1,3,1,45.347,45347,3.5400,9.5800,-0.1800,10.2147,-0.0240,-0.0055,-0.0425,-20.75,92.00,257.50,3.2913,9.2969,-0.1938,9.8642
11,6,1,3,1,45.477,45477,3.5200,9.7900,-0.1500,10.4047,-0.0153,-0.0545,0.0251,-20.63,92.06,257.69,3.3214,9.3619,-0.1881,9.9354
11,6,1,3,1,45.608,45608,3.5500,8.9700,-0.0300,9.6470,0.0120,-0.0611,0.0327,-21.63,91.88,259.06,3.3515,9.3102,-0.1672,9.8965
11,6,1,3,1,45.738,45738,3.2300,9.2800,-0.0600,9.8262,0.0011,-0.0164,0.1996,-22.00,91.63,259.75,3.3355,9.3062,-0.1531,9.8871
11,6,1,3,1,45.874,45874,3.6000,9.4200,-0.0400,10.0845,0.0185,0.0284,0.0273,-22.94,91.50,260.56,3.3704,9.3212,-0.1382,9.9128
11,6,1,3,1,46.004,46004,4.0000,9.0100,0.0200,9.8580,0.0218,0.0513,0.1429,-23.44,91.44,260.75,3.4533,9.2802,-0.1174,9.9026
11,6,1,3,1,46.136,46136,3.7600,8.9000,-0.2800,9.6657,-0.0153,0.0393,0.0120,-23.75,91.56,260.63,3.4938,9.2301,-0.1388,9.8702
11,6,1,3,1,46.308,46308,4.9200,10.4900,-0.3000,11.5904,-0.0153,-0.0207,0.0513,-24.38,91.88,261.38,3.6817,9.3961,-0.1600,10.0930
11,6,1,3,1,46.438,46438,4.8200,9.2200,-0.1300,10.4047,0.0447,-0.0360,-0.0033,-24.88,91.63,261.94,3.8317,9.3729,-0.1561,10.1271
11,6,1,3,1,46.568,46568,4.2800,9.0900,-0.0400,10.0473,0.0393,-0.0884,0.0884,-24.81,91.06,262.25,3.8908,9.3356,-0.1408,10.1149
11,6,1,3,1,46.698,46698,4.2200,9.0000,0.1100,9.9408,0.0229,-0.0796,-0.0873,-25.19,90.50,263.06,3.9342,9.2914,-0.1077,10.0906
11,6,1,3,1,46.828,46828,4.3500,8.9600,0.1100,9.9607,0.0273,-0.0415,0.0665,-25.31,90.00,263.50,3.9890,9.2477,-0.0790,10.0717
11,6,1,3,1,46.958,46958,4.1600,9.2800,0.2900,10.1739,0.0196,-0.0153,-0.0382,-24.81,89.75,263.13,4.0115,9.2520,-0.0304,10.0843
11,6,1,3,1,47.088,47088,4.4100,9.7400,0.1600,10.6930,-0.0098,0.0033,-0.0404,-24.25,89.69,262.56,4.0640,9.3163,-0.0053,10.1641
11,6,1,3,1,47.218,47218,4.2700,9.7400,0.0600,10.6350,-0.0578,0.0207,-0.1233,-23.88,89.88,262.19,4.0911,9.3721,0.0033,10.2262
11,7,1,3,1,47.391,47391,3.5300,8.9200,-0.0100,9.5931,-0.0415,0.0044,-0.1571,-23.63,90.50,262.13,4.0172,9.3126,0.0015,10.1421
11,7,1,3,1,47.522,47522,3.4800,8.9700,0.1500,9.6226,0.0065,0.0033,0.0469,-23.31,90.63,261.81,3.9464,9.2674,0.0211,10.0727
11,7,1,3,1,47.653,47653,2.8500,10.1700,0.0100,10.5618,0.0109,-0.0120,-0.3316,-22.88,90.56,261.44,3.8019,9.3864,0.0196,10.1271
11,7,1,3,1,47.785,47785,4.1500,8.5800,0.2800,9.5351,0.0316,-0.0087,0.0065,-23.69,90.44,262.13,3.8478,9.2801,0.0539,10.0463
11,7,1,3,1,47.916,47916,3.0700,8.8100,0.1200,9.3303,0.0196,-0.0295,-0.0600,-22.38,90.19,260.88,3.7453,9.2181,0.0627,9.9502
11,7,1,3,1,48.050,48050,3.5100,9.5600,0.0400,10.1841,-0.0305,0.0076,-0.1527,-21.63,90.25,260.31,3.7143,9.2632,0.0597,9.9803
11,7,1,3,1,48.181,48181,3.4200,9.6900,0.1100,10.2764,-0.0382,0.0360,0.0818,-20.50,90.63,259.06,3.6755,9.3194,0.0663,10.0183
11,7,1,3,1,48.311,48311,3.3800,10.1700,-0.2000,10.7188,-0.0469,0.0273,-0.1702,-19.31,91.06,257.75,3.6366,9.4315,0.0312,10.1084
11,7,1,3,1,48.484,48484,3.2300,7.8000,-0.1700,8.4440,-0.0087,0.0185,-0.3174,-18.56,91.31,256.88,3.5830,9.2165,0.0047,9.8885
11,7,1,3,1,48.615,48615,2.3100,8.8600,-0.0300,9.1562,-0.0033,0.0065,-0.1200,-16.38,91.31,254.56,3.4153,9.1695,0.0001,9.7849
11,7,1,3,1,48.745,48745,2.9800,9.7600,0.0500,10.2049,-0.0240,0.0251,-0.0022,-15.56,91.44,253.75,3.3579,9.2474,0.0067,9.8381
11,7,1,3,1,48.877,48877,2.8500,9.0300,-0.1800,9.4708,0.0109,0.0458,0.2116,-14.44,91.50,252.31,3.2910,9.2187,-0.0179,9.7885
11,7,1,3,1,49.007,49007,2.3800,9.7500,-0.1300,10.0371,-0.0295,0.0000,-0.1473,-14.31,91.69,252.06,3.1709,9.2887,-0.0327,9.8151
11,7,1,3,1,49.142,49142,2.5900,9.7000,-0.1900,10.0416,-0.0262,0.0196,0.0764,-14.00,91.94,251.75,3.0944,9.3429,-0.0534,9.8422
11,7,1,3,1,49.274,49274,2.5000,9.7200,-0.1600,10.0376,-0.0185,0.0164,0.0109,-14.13,92.00,251.81,3.0161,9.3926,-0.0675,9.8652
11,7,1,3,1,49.404,49404,2.6300,9.6400,-0.2800,9.9962,-0.0131,-0.0065,-0.0153,-14.38,92.13,252.06,2.9652,9.4252,-0.0955,9.8811
11,7,1,3,1,49.577,49577,2.3600,9.5900,-0.3700,9.8830,0.0207,-0.0229,0.0338,-14.25,92.00,252.06,2.8854,9.4469,-0.1316,9.8786
11,7,1,3,1,49.707,49707,3.0000,9.7600,0.0100,10.2107,0.0055,-0.0382,0.1767,-15.25,91.94,253.25,2.9005,9.4882,-0.1130,9.9223
11,7,1,3,1,49.837,49837,2.7100,9.4100,-0.5500,9.8079,-0.0273,-0.0502,0.1254,-16.19,91.75,254.50,2.8754,9.4779,-0.1706,9.9059
11,7,1,3,1,49.967,49967,2.4100,9.3600,0.1700,9.6668,-0.0185,-0.0284,0.1942,-16.94,91.94,255.63,2.8141,9.4623,-0.1257,9.8727
11,7,1,3,1,50.097,50097,2.3900,9.4500,-0.2600,9.7510,0.0120,-0.0164,0.0251,-17.56,91.81,256.38,2.7582,9.4607,-0.1434,9.8556
11,7,1,3,1,50.227,50227,2.7400,8.7500,-0.1000,9.1695,0.0120,-0.0142,0.1298,-19.13,91.81,258.00,2.7558,9.3671,-0.1377,9.7650
11,7,1,3,1,50.357,50357,2.7900,8.0400,-0.1300,8.5113,-0.0185,-0.0065,0.2203,-20.50,91.81,259.44,2.7603,9.1922,-0.1367,9.5987
11,7,1,3,1,50.487,50487,3.8500,9.1900,-0.0500,9.9640,-0.0262,0.0240,-0.0305,-21.63,92.00,260.50,2.9039,9.1919,-0.1252,9.6405
11,7,1,3,1,50.660,50660,4.1600,10.9500,-0.2200,11.7157,-0.0491,0.0000,-0.0698,-21.63,92.44,260.56,3.0694,9.4236,-0.1377,9.9118
11,7,1,3,1,50.790,50790,3.4400,9.0300,-0.4200,9.6722,-0.0382,-0.0469,0.3829,-22.88,92.69,262.06,3.1183,9.3717,-0.1749,9.8784
11,7,1,3,1,50.921,50921,3.8900,9.0000,-0.3100,9.8096,0.0284,-0.0404,0.0360,-24.44,92.63,264.00,3.2200,9.3227,-0.1927,9.8650
11,7,1,3,1,51.051,51051,4.4100,9.2300,-0.2500,10.2325,0.0687,-0.0153,0.1549,-24.81,92.13,264.31,3.3768,9.3105,-0.2003,9.9060
11,7,1,3,1,51.182,51182,4.2100,9.1300,0.0500,10.0540,0.0916,-0.0371,0.1713,-25.31,91.44,264.75,3.4866,9.2867,-0.1673,9.9211
11,7,1,3,1,51.312,51312,4.3200,8.8400,0.1200,9.8398,0.0796,-0.0316,0.0349,-26.19,90.63,265.63,3.5964,9.2279,-0.1294,9.9048
11,7,1,3,1,51.442,51442,4.1300,9.0700,0.1500,9.9672,-0.0120,-0.0295,0.0513,-26.56,90.25,265.69,3.6667,9.2071,-0.0926,9.9108
11,7,1,3,1,51.573,51573,4.3600,8.3600,0.0700,9.4289,-0.0491,-0.0229,0.0807,-27.69,90.44,266.25,3.7581,9.0954,-0.0712,9.8415
11,7,1,3,1,51.750,51750,4.7200,8.9500,0.1600,10.1196,-0.0633,0.0142,0.2247,-28.44,91.00,266.88,3.8848,9.0763,-0.0407,9.8728
11,7,1,3,1,51.880,51880,5.2900,9.1100,-0.0300,10.5346,-0.0196,0.0076,0.0567,-29.31,91.25,267.44,4.0700,9.0807,-0.0393,9.9512
11,7,1,3,1,52.011,52011,6.0700,9.4400,-0.0600,11.2233,0.0098,-0.0316,-0.1407,-29.69,91.13,267.50,4.3335,9.1281,-0.0420,10.1046
11,7,1,3,1,52.141,52141,4.6100,9.4000,-0.0300,10.4696,0.0502,-0.0338,0.3033,-28.75,90.75,266.56,4.3700,9.1639,-0.0404,10.1526
11,8,1,3,1,52.272,52272,4.8100,7.8700,0.1700,9.2251,-0.0131,-0.0284,-0.0480,-30.38,90.50,267.81,4.4280,8.9934,-0.0127,10.0244
11,8,1,3,1,52.402,52402,4.8600,8.8700,0.0900,10.1146,0.0044,-0.0022,0.0229,-29.81,90.56,267.31,4.4849,8.9771,0.0008,10.0351
11,8,1,3,1,52.532,52532,4.7600,8.5700,0.0600,9.8034,-0.0055,0.0327,-0.0153,-29.56,90.63,266.81,4.5211,8.9235,0.0086,10.0035
11,8,1,3,1,52.663,52663,5.0600,9.3300,0.0100,10.6138,-0.0033,0.0142,-0.2029,-29.06,90.69,266.25,4.5921,8.9771,0.0088,10.0834
11,8,1,3,1,52.835,52835,5.2800,9.1200,0.1000,10.5386,-0.0065,-0.0098,-0.0600,-28.69,90.69,265.81,4.6828,8.9959,0.0208,10.1417
11,8,1,3,1,52.965,52965,4.9000,8.7200,0.0300,10.0025,-0.0305,-0.0436,-0.0316,-28.25,90.63,265.63,4.7114,8.9595,0.0220,10.1228
11,8,1,3,1,53.095,53095,4.7100,10.5400,-0.1600,11.5456,-0.0262,-0.0404,-0.1833,-26.88,90.69,264.63,4.7112,9.1678,-0.0020,10.3075
11,8,1,3,1,53.225,53225,4.8900,8.4300,0.0900,9.7460,-0.0305,-0.0480,0.1320,-27.44,90.69,265.50,4.7348,9.0706,0.0102,10.2320
11,8,1,3,1,53.355,53355,3.7900,8.3200,-0.1300,9.1435,0.0011,0.0120,-0.0993,-27.13,90.69,265.44,4.6103,8.9717,-0.0083,10.0869
11,8,1,3,1,53.485,53485,4.9300,9.5100,0.0700,10.7121,-0.0262,0.0742,-0.2640,-26.19,91.00,264.19,4.6524,9.0426,0.0020,10.1693
11,8,1,3,1,53.615,53615,4.2100,8.0400,-0.2800,9.0799,-0.0371,-0.0011,0.2836,-25.38,91.31,263.25,4.5941,8.9105,-0.0352,10.0252
11,8,1,3,1,53.746,53746,5.4900,10.2100,-0.1500,11.5934,-0.0393,-0.0567,-0.6218,-24.44,91.50,262.69,4.7122,9.0817,-0.0503,10.2316
11,8,1,3,1,53.919,53919,5.0700,7.9200,0.1500,9.4050,-0.0098,-0.0436,0.0153,-23.19,91.31,261.94,4.7593,8.9286,-0.0239,10.1179
11,8,1,3,1,54.049,54049,3.2400,8.6800,-0.1600,9.2664,0.0218,-0.0415,-0.2694,-21.31,91.19,260.50,4.5591,8.8959,-0.0418,9.9962
11,8,1,3,1,54.180,54180,2.2300,10.0000,-0.2100,10.2478,-0.0196,0.0022,-0.4472,-18.81,91.13,258.38,4.2522,9.0414,-0.0640,9.9916
11,8,1,3,1,54.310,54310,3.9000,10.2200,0.1100,10.9394,-0.0207,-0.0065,-0.4429,-18.81,91.19,258.44,4.2058,9.1967,-0.0411,10.1128
11,8,1,3,1,54.446,54446,0.3600,9.5300,-0.3000,9.5415,0.0076,0.0382,0.0905,-15.06,91.19,254.81,3.6990,9.2406,-0.0752,9.9538
11,8,1,3,1,54.576,54576,3.2200,8.1300,0.0100,8.7444,-0.0436,0.0949,-0.3011,-16.56,91.38,256.06,3.6359,9.0943,-0.0640,9.7944
11,8,1,3,1,54.708,54708,1.9500,9.3900,-0.2400,9.5933,-0.0349,0.1102,-0.0949,-13.94,92.00,253.00,3.4137,9.1332,-0.0872,9.7507
11,8,1,3,1,54.838,54838,1.6200,10.5000,-0.4400,10.6333,-0.0175,0.1298,-0.4636,-12.13,92.44,250.50,3.1774,9.3133,-0.1337,9.8413
11,8,1,3,1,55.011,55011,2.5900,10.0300,-0.3400,10.3646,0.0589,0.0513,0.0687,-12.63,92.44,250.25,3.1000,9.4078,-0.1608,9.9067
11,8,1,3,1,55.142,55142,2.1500,9.5800,-0.2800,9.8223,0.0425,0.0207,0.1091,-12.44,92.06,249.94,2.9748,9.4305,-0.1765,9.8901
11,8,1,3,1,55.273,55273,2.5800,9.5600,-0.1900,9.9038,-0.0207,-0.0295,0.1014,-12.81,92.00,250.50,2.9228,9.4475,-0.1783,9.8909
11,8,1,3,1,55.405,55405,1.8100,9.6600,-0.2300,9.8308,-0.0076,-0.0916,0.0415,-12.88,92.00,251.13,2.7761,9.4755,-0.1851,9.8756
11,8,1,3,1,55.536,55536,2.6000,9.6600,-0.3400,10.0096,-0.0175,-0.0862,0.2313,-14.19,91.88,253.13,2.7529,9.4998,-0.2055,9.8928
11,8,1,3,1,55.670,55670,2.5400,9.4600,-0.0700,9.7953,0.0098,-0.0807,0.2193,-15.56,91.69,255.06,2.7249,9.4946,-0.1877,9.8796
11,8,1,3,1,55.801,55801,2.1600,8.3100,-0.1900,8.5882,-0.0055,-0.0109,0.4047,-17.56,91.50,257.44,2.6504,9.3385,-0.1880,9.7091
11,8,1,3,1,55.931,55931,3.3300,10.6200,-0.3100,11.1342,-0.0153,0.0535,-0.1113,-18.56,91.75,258.31,2.7400,9.5074,-0.2041,9.8964
11,8,1,3,1,56.104,56104,3.3900,9.4500,-0.2100,10.0418,0.0218,0.0338,-0.2727,-20.94,91.75,260.19,2.8256,9.4998,-0.2048,9.9132
11,8,1,3,1,56.235,56235,4.1700,8.9300,-0.0300,9.8557,0.0262,0.0273,0.0011,-21.94,91.63,260.75,3.0028,9.4247,-0.1818,9.8932
11,8,1,3,1,56.365,56365,3.5700,9.9900,0.0000,10.6087,0.0196,-0.0502,-0.2083,-20.94,91.31,259.63,3.0775,9.4992,-0.1578,9.9865
11,8,1,3,1,56.496,56496,3.2400,8.7300,-0.1500,9.3131,-0.0295,0.0000,0.2760,-21.44,91.31,260.31,3.0989,9.3978,-0.1568,9.8968
11,8,1,3,1,56.627,56627,3.5800,9.5800,-0.0200,10.2271,-0.0076,0.0109,0.0894,-22.31,91.50,261.06,3.1623,9.4218,-0.1388,9.9394
11,8,1,3,1,56.762,56762,3.8500,8.6300,0.0300,9.4499,0.0164,0.0153,0.2291,-23.63,91.50,262.25,3.2529,9.3175,-0.1165,9.8697
11,8,1,3,1,56.892,56892,4.2300,9.0200,-0.1900,9.9644,0.0393,0.0065,0.0371,-24.38,91.31,262.63,3.3817,9.2783,-0.1262,9.8762
11,8,1,3,1,57.024,57024,4.0900,9.5800,0.0300,10.4166,0.0556,0.0044,-0.2673,-23.25,90.94,261.19,3.4750,9.3181,-0.1056,9.9455
11,8,1,3,1,57.196,57196,4.4600,8.8200,0.1300,9.8844,0.0338,-0.0371,0.2585,-23.88,90.38,261.75,3.6048,9.2524,-0.0746,9.9301
11,8,1,3,1,57.326,57326,4.1700,8.5600,0.1800,9.5234,0.0436,-0.0545,0.3578,-25.44,89.94,263.56,3.6793,9.1612,-0.0410,9.8725
11,8,1,3,1,57.456,57456,4.3300,9.0800,0.1200,10.0603,0.0098,0.0218,0.0033,-26.50,89.69,264.69,3.7650,9.1505,-0.0198,9.8948
11,8,1,3,1,57.586,57586,4.7300,9.5300,0.1400,10.6402,0.0207,0.0109,-0.0185,-26.31,89.69,264.31,3.8922,9.2005,0.0012,9.9899
11,8,1,3,1,57.716,57716,4.5900,9.5600,0.2800,10.6085,0.0098,0.0251,-0.1767,-26.56,89.63,264.44,3.9842,9.2479,0.0380,10.0697
11,8,1,3,1,57.846,57846,4.0800,9.7300,0.1300,10.5516,0.0164,0.0164,-0.0415,-25.25,89.63,262.94,3.9968,9.3114,0.0501,10.1331
11,9,1,3,1,57.976,57976,3.6200,7.6700,0.4400,8.4928,0.0022,-0.0033,0.0513,-26.19,89.63,263.88,3.9471,9.0951,0.1015,9.9152
11,9,1,3,1,58.107,58107,4.3000,9.3400,0.2700,10.2858,-0.0022,-0.0011,-0.2236,-25.44,89.63,263.06,3.9936,9.1274,0.1237,9.9636
11,9,1,3,1,58.280,58280,4.5200,8.5200,0.1500,9.6459,-0.0175,-0.0153,0.2389,-25.50,89.75,263.25,4.0630,9.0473,0.1272,9.9186
11,9,1,3,1,58.410,58410,3.8800,8.4100,0.2600,9.2655,-0.0175,0.0033,-0.0164,-25.50,89.88,263.31,4.0389,8.9634,0.1447,9.8324
11,9,1,3,1,58.541,58541,4.8300,10.5700,0.0100,11.6213,-0.0371,0.0218,-0.1124,-24.38,90.13,262.19,4.1431,9.1751,0.1269,10.0679
11,9,1,3,1,58.673,58673,4.6900,8.8800,0.2000,10.0444,-0.0229,-0.0218,0.0665,-24.81,90.31,262.69,4.2152,9.1362,0.1365,10.0626
11,9,1,3,1,58.808,58808,4.2100,10.0400,0.0200,10.8870,-0.0120,-0.0087,-0.2520,-23.50,90.38,261.63,4.2145,9.2553,0.1212,10.1704
11,9,1,3,1,58.938,58938,4.3200,9.5400,0.1400,10.4735,0.0044,-0.0131,0.0535,-22.88,90.38,261.00,4.2284,9.2928,0.1237,10.2103
11,9,1,3,1,59.069,59069,3.9600,9.1800,0.1400,9.9987,-0.0055,-0.0371,-0.0873,-22.50,90.25,260.88,4.1930,9.2779,0.1258,10.1822
11,9,1,3,1,59.199,59199,3.6500,9.9000,0.3900,10.5586,0.0087,0.0011,-0.3109,-21.19,90.19,259.69,4.1215,9.3599,0.1606,10.2284
11,9,1,3,1,59.372,59372,2.9100,8.9200,0.2200,9.3852,-0.0120,0.0491,-0.0676,-19.06,90.25,257.25,3.9618,9.3019,0.1685,10.1119
11,9,1,3,1,59.502,59502,3.3100,9.5400,0.0100,10.0979,-0.0087,0.0589,-0.0742,-18.44,90.44,256.31,3.8759,9.3333,0.1476,10.1072
11,9,1,3,1,59.632,59632,3.3000,9.8700,0.0000,10.4071,-0.0164,0.0371,-0.1145,-17.56,90.63,255.13,3.8000,9.4040,0.1281,10.1436
11,9,1,3,1,59.762,59762,2.5100,9.2500,-0.1000,9.5850,-0.0065,-0.0207,-0.2236,-16.06,90.69,253.56,3.6301,9.3837,0.0981,10.0619
11,9,1,3,1,59.892,59892,2.9700,7.6800,-0.1300,8.2353,-0.0393,-0.0469,-0.0033,-16.38,90.69,254.19,3.5431,9.1592,0.0680,9.8209
11,9,1,3,1,60.022,60022,2.0300,10.0000,-0.2700,10.2075,-0.0229,-0.0633,-0.3447,-14.63,90.81,252.88,3.3437,9.2700,0.0235,9.8546
11,9,1,3,1,60.152,60152,2.9500,9.7400,0.4200,10.1856,0.0295,-0.0524,-0.0098,-14.75,90.69,253.44,3.2918,9.3320,0.0757,9.8958
11,9,1,3,1,60.282,60282,1.8800,9.2300,-0.0300,9.4196,0.0229,-0.0273,-0.2443,-13.75,90.31,252.63,3.1058,9.3185,0.0618,9.8226
11,9,1,3,1,60.455,60455,1.9800,9.9400,0.1200,10.1360,-0.0120,0.0142,-0.0993,-13.19,90.44,252.19,2.9574,9.4004,0.0695,9.8549
11,9,1,3,1,60.585,60585,1.9800,9.6400,0.0400,9.8413,-0.0207,0.0305,0.1767,-13.50,90.44,252.38,2.8286,9.4320,0.0656,9.8472
11,9,1,3,1,60.715,60715,2.8500,9.8200,-0.0400,10.2253,-0.0022,0.0480,0.2640,-14.50,90.69,253.06,2.8314,9.4831,0.0517,9.8969
11,9,1,3,1,60.845,60845,2.9700,9.5300,0.1200,9.9828,0.0153,0.0164,0.0338,-15.69,90.56,254.00,2.8497,9.4893,0.0607,9.9081
11,9,1,3,1,60.975,60975,2.8100,9.5500,0.1200,9.9556,0.0098,-0.0022,0.1124,-16.19,90.50,254.44,2.8445,9.4973,0.0685,9.9143
11,9,1,3,1,61.105,61105,2.6600,9.3000,0.0000,9.6729,0.0076,-0.0044,0.1505,-16.88,90.38,255.13,2.8202,9.4713,0.0595,9.8824
11,9,1,3,1,61.235,61235,3.9400,8.0600,0.1800,8.9733,0.0000,0.0044,0.4941,-19.13,90.31,257.38,2.9677,9.2853,0.0753,9.7483
11,9,1,3,1,61.365,61365,2.5300,9.8300,-0.3600,10.1567,-0.0633,0.0535,0.1604,-18.88,90.69,257.06,2.9100,9.3571,0.0180,9.7992
11,9,1,3,1,61.538,61538,3.1400,9.3600,-0.1300,9.8735,-0.0251,-0.0229,-0.0894,-20.75,91.31,258.81,2.9403,9.3575,-0.0015,9.8086
11,9,1,3,1,61.668,61668,3.7600,9.3000,-0.1700,10.0328,0.0153,-0.0785,0.0273,-21.25,91.13,259.75,3.0484,9.3499,-0.0237,9.8343
11,9,1,3,1,61.799,61799,3.5500,9.6400,0.0300,10.2729,0.0153,-0.0785,-0.1134,-21.06,90.81,260.06,3.1145,9.3881,-0.0166,9.8913
11,9,1,3,1,61.929,61929,3.8600,9.0100,-0.0900,9.8024,-0.0065,-0.0807,0.2454,-21.75,90.56,261.25,3.2127,9.3383,-0.0263,9.8755
11,9,1,3,1,62.064,62064,4.6000,9.4400,0.5500,10.5155,0.0513,-0.0644,0.1320,-22.88,90.31,262.81,3.3955,9.3517,0.0496,9.9492
11,9,1,3,1,62.195,62195,3.0600,9.0300,0.0300,9.5344,0.0327,-0.0513,-0.0535,-22.63,89.63,262.88,3.3513,9.3093,0.0470,9.8943
11,9,1,3,1,62.327,62327,4.3100,9.0200,0.5000,10.0093,0.0185,0.0360,0.0851,-24.00,89.56,264.19,3.4776,9.2712,0.1067,9.9025
11,9,1,3,1,62.457,62457,4.0600,9.0300,0.2500,9.9039,0.0175,0.0524,-0.0185,-24.19,89.38,263.94,3.5544,9.2394,0.1256,9.9003
11,9,1,3,1,62.630,62630,4.7100,9.5700,0.1600,10.6675,0.0022,-0.0076,0.0916,-24.63,89.19,264.19,3.7067,9.2830,0.1301,9.9965
11,9,1,3,1,62.760,62760,4.6500,9.3300,0.2800,10.4283,0.0022,-0.0502,-0.0098,-25.25,89.13,265.00,3.8310,9.2892,0.1499,10.0492
11,9,1,3,1,62.890,62890,3.8000,9.3000,0.3200,10.0515,0.0349,-0.0938,0.0393,-25.00,88.69,265.19,3.8269,9.2906,0.1723,10.0494
11,9,1,3,1,63.020,63020,3.4600,8.4200,0.5000,9.1169,-0.0142,-0.0785,0.1985,-25.50,88.19,266.25,3.7785,9.1759,0.2155,9.9257
11,9,1,3,1,63.150,63150,4.8300,8.8600,0.4100,10.0993,-0.0218,-0.0480,0.1724,-27.25,88.00,268.44,3.9171,9.1342,0.2411,9.9416
11,9,1,3,1,63.280,63280,4.4800,9.2200,0.3800,10.2578,-0.0393,0.0055,-0.1102,-27.56,88.13,268.63,3.9913,9.1455,0.2594,9.9819
11,9,1,3,1,63.410,63410,5.0100,9.2400,0.3600,10.5170,0.0076,0.0338,-0.1505,-27.31,88.25,267.56,4.1255,9.1580,0.2727,10.0480
11,9,1,3,1,63.540,63540,4.5200,9.4600,0.5600,10.4993,0.0065,0.0229,0.0120,-26.25,88.31,266.00,4.1775,9.1978,0.3105,10.1068
11,9,1,3,1,63.713,63713,4.2100,8.9600,0.3500,9.9060,-0.0273,0.0349,-0.0567,-25.88,88.44,265.13,4.1818,9.1665,0.3157,10.0802
11,9,1,3,1,63.843,63843,4.6500,10.1100,0.2100,11.1301,-0.0262,0.0393,-0.2476,-25.25,88.81,264.19,4.2435,9.2908,0.3018,10.2185
11,9,1,3,1,63.973,63973,4.3800,8.5200,0.3200,9.5853,-0.0458,0.0022,0.0916,-25.13,89.19,263.88,4.2615,9.1892,0.3042,10.1338
11,9,1,3,1,64.103,64103,4.3200,9.6600,0.1000,10.5824,-0.0480,-0.0109,-0.2509,-24.69,89.44,263.63,4.2692,9.2513,0.2773,10.1926
11,9,1,3,1,64.233,64233,4.4500,10.3400,0.0900,11.2573,-0.0131,-0.0065,-0.1047,-23.44,89.56,262.44,4.2930,9.3947,0.2526,10.3322
11,10,1,3,1,64.363,64363,2.9800,8.2900,0.2500,8.8129,-0.0251,-0.0480,-0.0076,-23.31,89.56,262.56,4.1200,9.2492,0.2523,10.1284
11,10,1,3,1,64.493,64493,3.2000,10.4400,0.0200,10.9194,-0.0262,0.0567,-0.4014,-22.63,89.81,262.00,3.9988,9.4061,0.2217,10.2232
11,10,1,3,1,64.623,64623,4.1500,9.5500,0.1800,10.4143,-0.0011,0.0524,-0.0524,-22.13,90.00,260.94,4.0187,9.4250,0.2162,10.2483
11,10,1,3,1,64.796,64796,3.9200,9.4400,0.1900,10.2233,-0.0240,0.0000,-0.0022,-21.19,90.25,260.00,4.0057,9.4270,0.2127,10.2450
11,10,1,3,1,64.926,64926,2.8100,8.6100,0.0100,9.0569,-0.0076,0.0502,-0.1560,-19.75,90.31,258.44,3.8481,9.3194,0.1860,10.0843
11,10,1,3,1,65.057,65057,3.1400,9.9700,0.0900,10.4532,-0.0218,0.0611,-0.3818,-18.13,90.69,256.44,3.7548,9.4051,0.1734,10.1284
11,10,1,3,1,65.187,65187,3.0500,9.5600,-0.1500,10.0359,-0.0305,0.0229,-0.1963,-17.00,90.88,255.13,3.6619,9.4255,0.1307,10.1127
11,10,1,3,1,65.317,65317,2.4500,9.3700,-0.3200,9.6903,-0.0611,0.0491,-0.1440,-15.88,91.31,253.88,3.5022,9.4182,0.0714,10.0485
11,10,1,3,1,65.447,65447,2.1400,8.3400,-0.1100,8.6109,0.0022,0.0436,-0.1582,-15.31,91.69,253.06,3.3227,9.2761,0.0475,9.8534
11,10,1,3,1,65.577,65577,2.3800,8.9300,-0.2500,9.2451,0.0131,0.0556,0.0818,-14.81,91.69,252.13,3.1985,9.2305,0.0083,9.7690
11,10,1,3,1,65.707,65707,2.2100,9.7100,-0.1500,9.9595,0.0273,0.0545,-0.1745,-13.31,91.69,250.19,3.0682,9.2937,-0.0126,9.7871
11,10,1,3,1,65.885,65885,2.1600,9.9600,-0.1500,10.1926,0.0011,-0.0654,-0.2356,-13.13,91.56,250.25,2.9486,9.3815,-0.0307,9.8340
11,10,1,3,1,66.015,66015,1.9500,9.7500,-0.0800,9.9434,0.0360,-0.0229,-0.0218,-12.13,91.31,249.88,2.8170,9.4301,-0.0372,9.8419
11,10,1,3,1,66.147,66147,2.1900,9.7400,0.0700,9.9834,0.0131,-0.0142,-0.1669,-12.06,91.00,250.06,2.7344,9.4709,-0.0231,9.8577
11,10,1,3,1,66.277,66277,1.9400,9.5600,-0.0700,9.7551,-0.0109,-0.0327,0.0764,-11.94,90.94,250.44,2.6297,9.4826,-0.0293,9.8406
11,10,1,3,1,66.407,66407,1.9000,9.8200,-0.0200,10.0021,-0.0076,0.0000,-0.0622,-12.06,90.88,251.00,2.5335,9.5271,-0.0280,9.8582
11,10,1,3,1,66.538,66538,2.3600,9.7100,-0.0600,9.9929,-0.0044,-0.0076,0.0360,-12.31,90.88,251.38,2.5107,9.5512,-0.0322,9.8757
11,10,1,3,1,66.668,66668,2.1400,9.7500,-0.0500,9.9822,0.0065,-0.0316,0.0676,-12.44,90.81,251.88,2.4618,9.5774,-0.0346,9.8888
11,10,1,3,1,66.799,66799,1.7200,8.8100,-0.0700,8.9766,-0.0011,-0.0327,0.2127,-13.56,90.75,253.50,2.3641,9.4763,-0.0393,9.7668
11,10,1,3,1,66.971,66971,2.2800,10.8200,0.1200,11.0583,0.0196,0.0000,-0.0862,-15.06,90.69,255.25,2.3530,9.6533,-0.0183,9.9360
11,10,1,3,1,67.102,67102,3.1300,7.7800,-0.0900,8.3865,0.0349,0.0022,0.2323,-17.31,90.38,257.44,2.4554,9.4065,-0.0277,9.7217
11,10,1,3,1,67.232,67232,2.9400,9.4900,0.1300,9.9358,-0.0327,-0.0076,0.1047,-17.75,90.50,257.81,2.5192,9.4175,-0.0069,9.7486
11,10,1,3,1,67.363,67363,3.4100,9.5800,-0.0500,10.1689,0.0055,0.0098,0.1756,-19.00,90.56,259.13,2.6366,9.4389,-0.0126,9.8002
11,10,1,3,1,67.493,67493,3.5500,10.0000,0.0400,10.6115,0.0491,0.0120,0.1233,-19.56,90.38,259.50,2.7570,9.5128,-0.0057,9.9043
11,10,1,3,1,67.623,67623,3.0600,8.6300,0.2900,9.1610,0.0611,-0.0338,0.3567,-20.75,89.88,260.63,2.7969,9.3965,0.0333,9.8040
11,10,1,3,1,67.754,67754,3.8000,9.0500,0.1700,9.8169,-0.0109,0.0065,0.1265,-21.88,89.63,261.81,2.9291,9.3508,0.0513,9.7990
11,10,1,3,1,67.884,67884,3.9700,9.8500,0.0900,10.6203,-0.0382,0.0644,0.1963,-22.13,90.00,261.88,3.0663,9.4166,0.0564,9.9034
11,10,1,3,1,68.057,68057,4.0300,9.2300,0.1400,10.0724,-0.0131,-0.0076,0.0633,-23.06,90.25,262.63,3.1933,9.3920,0.0674,9.9203
11,10,1,3,1,68.191,68191,4.1300,9.0300,0.0700,9.9299,-0.0022,-0.0425,0.1025,-23.75,90.13,263.06,3.3167,9.3443,0.0678,9.9157
11,10,1,3,1,68.321,68321,4.5100,9.3500,0.0600,10.3811,0.0447,-0.0687,0.1614,-24.44,89.81,263.81,3.4739,9.3451,0.0667,9.9701
11,10,1,3,1,68.453,68453,4.0900,8.9900,0.3600,9.8832,0.0622,-0.0720,-0.0196,-24.50,89.00,264.06,3.5551,9.2983,0.1054,9.9553
11,10,1,3,1,68.583,68583,4.1000,9.1600,0.3300,10.0411,0.0153,-0.0469,0.0382,-24.56,88.50,264.13,3.6269,9.2801,0.1350,9.9646
11,10,1,3,1,68.713,68713,3.9900,9.1000,0.3600,9.9428,-0.0044,0.0371,0.0240,-24.81,88.38,264.38,3.6748,9.2563,0.1646,9.9605
11,10,1,3,1,68.844,68844,4.4300,9.3400,0.4200,10.3459,0.0175,0.0469,-0.0371,-24.69,88.50,263.69,3.7743,9.2674,0.1983,10.0084
11,10,1,3,1,68.974,68974,4.7300,9.9700,0.3600,11.0410,0.0022,0.0469,0.1265,-24.50,88.56,263.00,3.9002,9.3599,0.2196,10.1424
11,10,1,3,1,69.147,69147,4.9400,8.7100,0.3800,10.0206,-0.0196,0.0055,-0.0644,-25.50,88.69,263.56,4.0372,9.2743,0.2407,10.1178
11,10,1,3,1,69.278,69278,4.6200,9.5900,0.2300,10.6473,-0.0273,-0.0087,0.0131,-24.56,88.94,262.75,4.1140,9.3159,0.2393,10.1867
11,10,1,3,1,69.409,69409,4.3000,9.4400,0.2000,10.3751,-0.0196,-0.0273,-0.0316,-24.75,89.00,263.13,4.1385,9.3323,0.2341,10.2114
11,10,1,3,1,69.541,69541,4.7300,9.6100,0.2800,10.7146,-0.0076,-0.0196,-0.0600,-25.06,88.94,263.63,4.2165,9.3689,0.2402,10.2768
11,10,1,3,1,69.672,69672,4.3400,9.4100,0.3000,10.3670,0.0000,-0.0284,-0.0709,-24.25,88.88,262.94,4.2328,9.3743,0.2481,10.2886
11,10,1,3,1,69.806,69806,4.0800,9.6400,0.3100,10.4724,0.0109,-0.0371,-0.2105,-23.63,88.69,262.56,4.2126,9.4093,0.2562,10.3125
11,10,1,3,1,69.937,69937,3.8100,9.6500,0.4100,10.3830,0.0000,-0.0065,-0.0927,-22.50,88.63,261.63,4.1596,9.4410,0.2765,10.3204
11,10,1,3,1,70.067,70067,3.4300,9.0900,0.2500,9.7188,0.0011,0.0087,-0.1909,-21.56,88.63,260.63,4.0634,9.3948,0.2730,10.2395
11,10,1,3,1,70.240,70240,3.4000,9.6000,0.3700,10.1910,-0.0251,0.0076,-0.1233,-20.00,88.63,259.06,3.9760,9.4218,0.2858,10.2304
11,10,1,3,1,70.370,70370,3.2100,9.4500,0.4700,9.9914,-0.0316,-0.0164,-0.1658,-18.88,88.88,258.06,3.8751,9.4255,0.3101,10.1957
11,10,1,3,1,70.500,70500,2.9300,9.1600,0.2100,9.6195,-0.0535,0.0000,-0.1909,-17.56,89.19,256.94,3.7505,9.3905,0.2969,10.1162
11,10,1,3,1,70.630,70630,2.5400,8.9900,0.0300,9.3420,-0.0535,0.0185,-0.2978,-15.88,89.56,255.25,3.5910,9.3378,0.2617,10.0079
11,10,1,3,1,70.760,70760,2.6500,8.5300,0.3800,8.9402,-0.0164,0.0087,-0.1353,-15.06,89.81,254.38,3.4670,9.2313,0.2773,9.8648
