participant,rep,equipment_code,exercise_code,quality_code,timestamp,timestamp_ms,accelX,accelY,accelZ,accelMag,gyroX,gyroY,gyroZ,roll,pitch,yaw,filteredX,filteredY,filteredZ,filteredMag
1,1,1,2,1,00.000,0,-7.5600,6.2300,0.0600,9.7964,-0.0033,0.0196,0.0033,50.94,89.19,87.88,-7.7165,5.8210,0.1382,9.6668
1,1,1,2,1,00.130,130,-7.3000,6.1500,0.1400,9.5463,0.0164,-0.0055,-0.0971,50.69,89.13,88.13,-7.6616,5.8643,0.1384,9.6493
1,1,1,2,1,00.260,260,-7.8200,6.0100,0.0200,9.8627,0.0316,-0.0251,-0.0960,51.81,89.13,87.25,-7.6825,5.8835,0.1228,9.6773
1,1,1,2,1,00.390,390,-7.6400,6.0000,0.1700,9.7159,0.0600,-0.0218,0.0971,51.50,88.94,87.94,-7.6769,5.8989,0.1290,9.6823
1,1,1,2,1,00.520,520,-7.5800,5.7800,0.2000,9.5344,0.0458,-0.0480,-0.0807,51.63,88.88,88.25,-7.6641,5.8832,0.1384,9.6628
1,1,1,2,1,00.693,693,-7.8000,6.5500,0.0100,10.1854,0.0371,-0.0185,0.2553,50.00,89.00,90.38,-7.6820,5.9711,0.1215,9.7305
1,1,1,2,1,00.824,824,-7.1700,5.8400,-0.0500,9.2475,0.0284,-0.0295,-0.3643,50.75,88.88,89.94,-7.6145,5.9538,0.0989,9.6664
1,1,1,2,1,00.954,954,-8.0900,6.0000,0.1900,10.0739,0.0218,-0.0098,0.0120,52.38,88.94,88.50,-7.6772,5.9599,0.1109,9.7197
1,1,1,2,1,01.085,1085,-7.4000,5.8100,-0.0100,9.4083,0.0076,0.0055,-0.0262,52.00,88.88,88.94,-7.6407,5.9401,0.0949,9.6785
1,1,1,2,1,01.216,1216,-7.8800,5.8300,0.0700,9.8025,-0.0098,0.0109,-0.0513,52.69,88.88,88.25,-7.6722,5.9256,0.0917,9.6945
1,1,1,2,1,01.351,1351,-7.7200,5.9000,0.0500,9.7165,-0.0120,0.0480,0.2269,51.81,88.63,89.00,-7.6785,5.9222,0.0862,9.6974
1,1,1,2,1,01.482,1482,-7.7500,5.9700,0.2000,9.7849,-0.0480,0.0415,-0.2247,51.75,88.50,88.63,-7.6879,5.9285,0.1012,9.7089
1,1,1,2,1,01.613,1613,-7.6800,6.2800,-0.0100,9.9207,-0.0491,0.0785,0.2662,51.94,88.38,87.88,-7.6869,5.9749,0.0865,9.7362
1,1,1,2,1,01.786,1786,-6.3200,4.7300,0.1900,7.8963,-0.0425,0.0458,-0.3840,51.88,88.13,87.19,-7.5068,5.8108,0.1002,9.4935
1,1,1,2,1,01.917,1917,-7.0600,5.8000,0.1400,9.1380,0.0360,0.0840,0.5509,52.06,87.88,86.69,-7.4479,5.8094,0.1054,9.4462
1,1,1,2,1,02.047,2047,-6.8600,7.0200,0.5000,9.8280,0.0633,0.0229,0.6043,47.06,87.25,91.56,-7.3704,5.9689,0.1574,9.4856
1,1,1,2,1,02.178,2178,-6.4100,6.8800,-0.1500,9.4045,-0.0185,-0.1254,-0.3251,46.00,87.63,93.06,-7.2439,6.0890,0.1169,9.4638
1,1,1,2,1,02.308,2308,-7.3400,6.2000,0.6900,9.6328,0.0295,-0.0742,-0.4243,49.69,88.31,90.06,-7.2565,6.1036,0.1924,9.4841
1,1,1,2,1,02.439,2439,-7.7800,5.5400,0.7200,9.5780,0.1200,-0.0349,-0.0611,51.94,87.94,88.44,-7.3255,6.0293,0.2619,9.4913
1,1,1,2,1,02.570,2570,-7.2300,5.3200,0.7100,9.0044,0.0676,-0.1233,0.2116,50.31,88.44,90.69,-7.3129,5.9359,0.3210,9.4242
1,1,1,2,1,02.700,2700,-8.4200,6.7300,-0.3500,10.7848,-0.0185,-0.0633,-0.0338,49.56,89.50,91.94,-7.4588,6.0405,0.2326,9.6008
1,1,1,2,1,02.873,2873,-7.7800,5.7200,-0.7100,9.6825,0.0425,0.1331,-0.1876,52.06,88.38,89.44,-7.5011,5.9983,0.1084,9.6051
1,1,1,2,1,03.007,3007,-7.9200,5.3600,0.4900,9.5758,-0.0447,0.1473,0.0873,52.13,86.75,88.81,-7.5563,5.9142,0.1586,9.5969
1,1,1,2,1,03.138,3138,-7.2800,5.9900,0.7300,9.4558,-0.0393,0.0796,0.1538,50.81,85.88,89.38,-7.5199,5.9242,0.2339,9.5760
1,1,1,2,1,03.269,3269,-7.7000,6.5000,0.4600,10.0872,-0.0524,0.0633,-0.3862,51.88,85.50,87.69,-7.5436,6.0000,0.2637,9.6424
1,1,1,2,1,03.399,3399,-8.9100,5.9200,0.2900,10.7013,-0.0338,0.0196,-0.0480,53.94,85.19,85.25,-7.7237,5.9895,0.2672,9.7776
1,1,1,2,1,03.530,3530,-8.4800,5.6900,0.5700,10.2280,-0.0415,0.0011,-0.1669,54.50,85.38,84.44,-7.8234,5.9500,0.3071,9.8337
1,1,1,2,1,03.660,3660,-8.0700,5.2600,0.3300,9.6385,-0.0371,0.0011,-0.0251,55.50,85.50,83.19,-7.8559,5.8591,0.3101,9.8051
1,1,1,2,1,03.791,3791,-8.2400,5.4800,0.3400,9.9017,-0.0480,0.0087,-0.0654,55.94,85.81,82.44,-7.9065,5.8091,0.3140,9.8162
1,1,1,2,1,03.964,3964,-7.1900,5.4500,0.3900,9.0305,-0.0120,0.0251,0.0447,54.56,85.94,83.38,-7.8121,5.7618,0.3241,9.7125
1,1,1,2,1,04.096,4096,-8.5200,5.9900,0.4500,10.4246,0.0011,-0.0022,-0.1691,55.56,85.75,82.38,-7.9054,5.7919,0.3407,9.8059
1,1,1,2,1,04.227,4227,-9.6900,6.3300,0.2800,11.5777,0.0262,-0.0164,-0.0644,56.19,85.69,81.81,-8.1405,5.8628,0.3327,10.0375
1,2,1,2,1,04.362,4362,-7.7600,5.6500,0.3000,9.6037,-0.0207,-0.0731,-0.0404,55.81,86.06,82.44,-8.0904,5.8348,0.3284,9.9803
1,2,1,2,1,04.493,4493,-8.8900,4.6700,-0.0100,10.0420,-0.0556,-0.1440,-1.1366,63.19,87.50,75.31,-8.1958,5.6813,0.2838,9.9764
1,2,1,2,1,04.624,4624,-8.9100,4.4900,-0.1000,9.9779,0.0240,0.0393,0.8868,60.44,88.25,78.06,-8.2899,5.5243,0.2332,9.9646
1,2,1,2,1,04.754,4754,-8.9500,4.4500,-0.0300,9.9953,0.0502,0.0774,-0.1254,58.19,87.31,80.31,-8.3769,5.3827,0.1985,9.9592
1,2,1,2,1,04.884,4884,-8.6900,5.5900,0.1500,10.3338,0.0251,0.1385,0.6610,56.13,85.81,82.25,-8.4181,5.4100,0.1921,10.0085
1,2,1,2,1,05.057,5057,-7.8800,4.7500,0.9900,9.2540,0.0654,0.0829,-0.4451,55.88,83.69,82.19,-8.3472,5.3231,0.2973,9.9045
1,2,1,2,1,05.187,5187,-6.7900,5.3200,0.5600,8.6441,0.0371,0.0644,0.2498,54.19,83.06,83.63,-8.1420,5.3227,0.3319,9.7331
1,2,1,2,1,05.317,5317,-8.6100,6.0100,0.9200,10.5403,-0.0404,-0.0545,-0.0709,55.38,83.06,82.38,-8.2037,5.4132,0.4094,9.8372
1,2,1,2,1,05.447,5447,-6.6400,5.5500,0.3000,8.6592,-0.0404,-0.0698,0.0502,54.63,84.00,83.31,-7.9976,5.4313,0.3950,9.6756
1,2,1,2,1,05.577,5577,-9.4100,6.4600,0.3800,11.4203,0.0120,-0.0458,-0.1582,56.38,84.31,81.81,-8.1837,5.5668,0.3930,9.9054
1,2,1,2,1,05.708,5708,-7.4000,3.7500,0.9700,8.3524,0.0000,-0.1047,-0.2825,58.19,85.00,80.31,-8.0805,5.3274,0.4690,9.6900
1,2,1,2,1,05.838,5838,-8.0700,4.4000,0.8800,9.2336,0.0425,-0.0098,0.0447,58.88,85.44,79.88,-8.0791,5.2052,0.5232,9.6249
1,2,1,2,1,05.968,5968,-7.8000,5.5400,-0.1700,9.5687,-0.0502,-0.0785,0.3043,57.25,86.75,81.63,-8.0423,5.2493,0.4318,9.6136
1,2,1,2,1,06.141,6141,-6.5100,4.5100,0.3100,7.9257,0.1167,-0.0382,-0.1091,55.25,86.63,84.06,-7.8404,5.1519,0.4158,9.3908
1,2,1,2,1,06.271,6271,-8.0700,5.5100,0.5600,9.7877,0.0196,-0.0076,0.2574,55.25,86.94,84.13,-7.8706,5.1991,0.4348,9.4428
1,2,1,2,1,06.401,6401,-7.9900,5.9900,1.2200,10.0602,0.0949,-0.0033,0.1440,53.63,86.94,85.88,-7.8864,5.3033,0.5383,9.5189
1,2,1,2,1,06.531,6531,-7.5500,5.6600,-0.0200,9.4360,0.0393,-0.0480,-0.1222,54.19,87.00,85.56,-7.8420,5.3503,0.4647,9.5047
1,2,1,2,1,06.661,6661,-7.3300,4.7000,-0.2600,8.7113,0.0611,-0.0207,-0.4254,56.38,87.00,83.88,-7.7746,5.2646,0.3692,9.3966
1,2,1,2,1,06.791,6791,-8.9600,6.5900,0.0900,11.1229,0.0109,-0.0109,0.4734,56.50,87.06,84.00,-7.9308,5.4393,0.3324,9.6225
1,2,1,2,1,06.922,6922,-6.8500,4.9000,-0.1400,8.4233,0.0131,-0.0371,-0.9883,56.69,87.13,84.00,-7.7884,5.3682,0.2702,9.4630
1,2,1,2,1,07.052,7052,-8.7200,4.4100,-0.0800,9.7720,-0.0567,-0.0513,0.2083,60.56,87.63,80.13,-7.9111,5.2419,0.2240,9.4928
1,2,1,2,1,07.225,7225,-9.2500,4.4300,0.0700,10.2563,-0.0404,-0.0055,-0.3283,60.25,88.94,80.06,-8.0876,5.1349,0.2037,9.5822
1,2,1,2,1,07.356,7356,-9.2000,5.1000,0.1700,10.5204,-0.0044,0.0960,0.4047,59.25,88.56,80.69,-8.2341,5.1303,0.1993,9.7037
1,2,1,2,1,07.487,7487,-8.1000,4.4600,0.4500,9.2577,0.0022,0.0742,-0.2029,58.75,87.38,80.81,-8.2165,5.0420,0.2323,9.6429
1,2,1,2,1,07.617,7617,-8.0900,4.7600,0.2300,9.3893,0.0000,-0.0284,0.1429,59.44,87.13,79.94,-8.1998,5.0048,0.2320,9.6093
1,2,1,2,1,07.748,7748,-8.5800,5.6600,-0.0700,10.2790,-0.0164,-0.1254,-0.0851,58.38,88.31,81.25,-8.2499,5.0912,0.1922,9.6963
1,2,1,2,1,07.878,7878,-9.1100,5.5300,-0.2800,10.6607,0.0011,-0.0753,0.0295,59.50,89.69,80.56,-8.3632,5.1490,0.1300,9.8221
1,2,1,2,1,08.013,8013,-8.1900,4.5100,-0.3300,9.3555,0.0404,0.0622,-0.2574,59.56,89.38,80.69,-8.3404,5.0648,0.0694,9.7580
1,2,1,2,1,08.143,8143,-9.0100,4.4300,0.0000,10.0402,-0.0295,0.0905,-0.0720,61.38,88.44,78.63,-8.4286,4.9811,0.0602,9.7907
1,2,1,2,1,08.316,8316,-8.2900,4.5100,0.3400,9.4435,-0.0840,0.0873,0.0469,61.31,87.38,77.63,-8.4104,4.9191,0.0971,9.7438
1,2,1,2,1,08.447,8447,-8.3700,4.4400,0.2200,9.4773,-0.0502,0.0458,-0.1953,62.13,86.88,76.19,-8.4051,4.8559,0.1133,9.7076
1,2,1,2,1,08.577,8577,-8.8400,4.8500,0.0800,10.0834,-0.0316,0.0055,-0.0109,62.38,86.88,75.63,-8.4624,4.8552,0.1089,9.7568
1,2,1,2,1,08.708,8708,-8.3900,4.6900,0.0000,9.6119,-0.0044,-0.0316,-0.0153,62.44,87.31,75.50,-8.4528,4.8334,0.0946,9.7376
1,2,1,2,1,08.839,8839,-9.7000,5.0100,0.0600,10.9176,0.0284,-0.0622,-0.1985,63.31,87.94,74.88,-8.6172,4.8567,0.0900,9.8920
1,2,1,2,1,08.969,8969,-10.8600,4.7200,0.0400,11.8414,0.0273,-0.0065,0.0785,64.19,88.31,74.25,-8.9127,4.8387,0.0834,10.1418
1,3,1,2,1,09.099,9099,-8.2000,4.1500,0.0700,9.1906,-0.0327,-0.0316,0.3731,61.63,88.56,76.81,-8.8188,4.7479,0.0816,10.0160
1,3,1,2,1,09.230,9230,-7.8900,4.1500,0.1100,8.9155,-0.0545,-0.0665,0.0229,60.44,89.69,77.88,-8.6964,4.6691,0.0854,9.8709
1,3,1,2,1,09.402,9402,-8.7000,4.9200,-0.4700,10.0059,-0.0153,-0.0055,0.2182,60.25,90.44,78.00,-8.6969,4.7022,0.0122,9.8867
1,3,1,2,1,09.532,9532,-8.3800,4.8100,0.0200,9.6623,0.0349,0.0022,0.2618,58.13,90.56,80.13,-8.6551,4.7164,0.0132,9.8568
1,3,1,2,1,09.662,9662,-8.4300,5.3400,-0.0700,9.9792,0.0480,0.0196,0.2520,56.75,90.38,81.69,-8.6255,4.7986,0.0023,9.8704
1,3,1,2,1,09.792,9792,-7.1600,5.3900,-0.2200,8.9647,0.0382,-0.0305,-0.0829,55.25,89.81,83.50,-8.4324,4.8765,-0.0270,9.7409
1,3,1,2,1,09.922,9922,-7.3100,5.3500,0.7200,9.0872,0.0436,-0.0502,0.8825,54.31,89.94,84.81,-8.2845,4.9389,0.0714,9.6452
1,3,1,2,1,10.052,10052,-6.4600,5.0900,0.5300,8.2414,-0.0207,-0.0709,-0.6861,51.75,90.50,87.75,-8.0440,4.9588,0.1318,9.4506
1,3,1,2,1,10.183,10183,-8.1900,5.7900,-0.6400,10.0504,0.0611,-0.0011,0.0327,55.50,90.75,84.31,-8.0633,5.0683,0.0301,9.5239
1,3,1,2,1,10.313,10313,-7.6000,6.2100,-1.2700,9.8963,0.0295,-0.0327,-0.2302,55.69,90.81,84.19,-8.0022,5.2188,-0.1412,9.5546
1,3,1,2,1,10.486,10486,-8.3400,4.5000,-0.2000,9.4787,-0.0993,0.0164,-0.1200,58.31,91.38,81.06,-8.0467,5.1241,-0.1489,9.5409
1,3,1,2,1,10.616,10616,-9.1300,4.2300,0.2900,10.0665,-0.0055,0.1320,-0.7069,61.88,91.44,76.88,-8.1895,5.0062,-0.0911,9.5989
1,3,1,2,1,10.746,10746,-7.0200,5.0900,-0.8500,8.7127,-0.0251,0.1069,0.2323,61.13,89.31,77.00,-8.0354,5.0173,-0.1911,9.4751
1,3,1,2,1,10.876,10876,-8.6100,3.9600,-0.2300,9.4798,0.0338,0.0262,-0.3414,64.38,88.63,73.56,-8.1111,4.8780,-0.1962,9.4669
1,3,1,2,1,11.006,11006,-7.4900,3.5800,0.4000,8.3112,0.1047,0.0851,0.8192,59.94,87.63,78.13,-8.0293,4.7069,-0.1177,9.3079
1,3,1,2,1,11.136,11136,-6.0300,4.6000,0.2900,7.5898,0.0338,-0.0011,-0.0654,58.25,87.13,79.88,-7.7658,4.6928,-0.0639,9.0738
1,3,1,2,1,11.267,11267,-7.8500,5.0700,0.2400,9.3480,0.2182,0.0938,-0.1636,57.75,86.19,80.88,-7.7769,4.7425,-0.0239,9.1089
1,3,1,2,1,11.398,11398,-6.8800,4.1000,-0.0400,8.0091,0.0480,-0.0556,0.2858,57.31,85.63,81.88,-7.6587,4.6579,-0.0260,8.9639
1,3,1,2,1,11.570,11570,-8.9700,6.5000,0.9300,11.1165,0.0480,-0.0284,0.1004,53.94,85.94,85.69,-7.8315,4.9006,0.1000,9.2390
1,3,1,2,1,11.701,11701,-7.6700,5.4500,0.2300,9.4119,0.0338,0.0589,-0.3000,55.44,85.13,84.38,-7.8102,4.9730,0.1171,9.2598
1,3,1,2,1,11.831,11831,-8.4500,5.8100,0.1800,10.2563,-0.0807,0.0207,-0.1745,57.00,84.69,82.50,-7.8945,5.0833,0.1254,9.3904
1,3,1,2,1,11.962,11962,-7.5800,3.9500,0.6800,8.5745,-0.0622,-0.0164,-0.3436,59.06,85.06,80.00,-7.8531,4.9340,0.1985,9.2765
1,3,1,2,1,12.092,12092,-9.0900,5.4700,0.5500,10.6232,0.0382,0.0000,-0.0175,60.31,85.25,78.50,-8.0161,5.0046,0.2448,9.4532
1,3,1,2,1,12.223,12223,-7.5600,4.3700,0.0700,8.7324,0.0916,-0.0480,0.0185,59.44,85.06,80.00,-7.9560,4.9210,0.2218,9.3575
1,3,1,2,1,12.354,12354,-8.8300,5.3000,0.7300,10.3243,0.1516,-0.0415,-0.3240,61.00,84.75,79.38,-8.0711,4.9709,0.2887,9.4835
1,3,1,2,1,12.484,12484,-9.8000,4.3000,0.2500,10.7048,0.0785,0.0295,-0.0251,62.56,83.56,78.50,-8.2990,4.8825,0.2836,9.6329
1,3,1,2,1,12.657,12657,-8.3900,3.4400,0.8300,9.1057,-0.0469,0.0589,-0.4211,63.44,82.44,77.38,-8.3110,4.6924,0.3556,9.5508
1,3,1,2,1,12.791,12791,-9.2400,4.6200,0.4200,10.3392,-0.0600,0.0458,0.0578,64.69,81.75,75.56,-8.4334,4.6829,0.3641,9.6532
1,3,1,2,1,12.923,12923,-9.2300,4.1100,0.3300,10.1091,-0.0731,-0.0480,-0.1014,64.50,82.44,75.38,-8.5384,4.6074,0.3596,9.7088
1,3,1,2,1,13.053,13053,-9.0100,4.9800,0.2800,10.2985,-0.1014,0.0000,0.3894,63.00,84.06,76.31,-8.6005,4.6565,0.3491,9.7864
1,3,1,2,1,13.184,13184,-9.0200,4.1100,0.2000,9.9143,-0.0774,0.0087,-0.4265,64.00,84.56,74.75,-8.6558,4.5845,0.3295,9.8004
1,3,1,2,1,13.314,13314,-10.0400,4.8900,0.3800,11.1740,-0.0513,0.0469,0.2105,64.25,84.56,73.94,-8.8382,4.6247,0.3361,9.9807
1,3,1,2,1,13.444,13444,-9.8800,4.4200,-0.0600,10.8238,-0.0055,0.0938,0.1320,63.38,83.81,74.50,-8.9755,4.5978,0.2839,10.0886
1,4,1,2,1,13.575,13575,-7.2500,4.5600,0.8200,8.6040,0.0185,0.0785,0.2618,60.13,83.25,77.38,-8.7481,4.5928,0.3546,9.8868
1,4,1,2,1,13.748,13748,-9.5500,3.9600,0.2100,10.3406,-0.0873,0.0022,-0.1080,65.38,81.56,71.88,-8.8538,4.5094,0.3355,9.9417
1,4,1,2,1,13.879,13879,-8.1700,4.3900,0.4200,9.2843,-0.1047,-0.0207,0.1844,63.06,82.88,73.69,-8.7637,4.4937,0.3467,9.8547
1,4,1,2,1,14.010,14010,-9.0400,4.6100,0.3300,10.1530,-0.0393,-0.0316,-0.0993,62.25,83.94,74.13,-8.8001,4.5090,0.3445,9.8940
1,4,1,2,1,14.142,14142,-8.4300,4.4000,0.7100,9.5357,0.0327,-0.0371,0.0851,61.50,84.69,74.88,-8.7513,4.4946,0.3926,9.8459
1,4,1,2,1,14.273,14273,-8.7800,4.7900,0.4700,10.0127,0.0774,-0.0404,0.1385,62.06,84.94,74.69,-8.7551,4.5336,0.4028,9.8675
1,4,1,2,1,14.407,14407,-7.8400,4.4500,0.4800,9.0277,0.0764,-0.0196,0.7919,59.88,84.75,77.69,-8.6345,4.5225,0.4130,9.7560
1,4,1,2,1,14.538,14538,-8.8300,4.4300,0.3600,9.8855,0.0524,-0.0971,-0.7439,60.25,85.00,78.00,-8.6603,4.5103,0.4060,9.7728
1,4,1,2,1,14.668,14668,-8.0200,4.3000,0.3000,9.1050,0.0185,-0.0894,0.0633,60.88,86.00,77.88,-8.5759,4.4826,0.3920,9.6847
1,4,1,2,1,14.841,14841,-8.4600,4.4100,0.3700,9.5476,0.0447,-0.0011,0.0109,61.81,86.19,77.44,-8.5606,4.4731,0.3891,9.6666
1,4,1,2,1,14.972,14972,-7.1700,4.4400,-0.1400,8.4346,0.0295,0.0524,0.5203,61.06,85.88,78.31,-8.3774,4.4687,0.3194,9.5001
1,4,1,2,1,15.102,15102,-8.1300,5.0600,-0.4300,9.5857,0.0164,0.0785,0.2389,61.25,84.94,78.06,-8.3448,4.5466,0.2207,9.5056
1,4,1,2,1,15.232,15232,-8.7400,4.5000,0.2600,9.8339,-0.0033,0.0316,-0.3294,63.50,84.25,75.75,-8.3969,4.5405,0.2258,9.5485
1,4,1,2,1,15.362,15362,-8.1000,4.6200,-0.0700,9.3252,-0.0142,0.0665,0.4821,63.00,83.13,76.06,-8.3577,4.5510,0.1869,9.5183
1,4,1,2,1,15.492,15492,-8.7000,5.0600,0.8200,10.0978,-0.0011,-0.0360,-0.8116,60.50,83.75,78.50,-8.4028,4.6180,0.2703,9.5920
1,4,1,2,1,15.622,15622,-8.5800,4.0800,0.6100,9.5202,0.0807,0.0676,-0.0764,62.44,82.50,76.63,-8.4262,4.5471,0.3151,9.5800
1,4,1,2,1,15.752,15752,-6.5600,5.3300,0.3200,8.4584,0.0229,0.0633,0.9338,56.06,82.69,82.88,-8.1803,4.6503,0.3157,9.4150
1,4,1,2,1,15.925,15925,-7.6500,4.5400,0.5200,8.9109,0.0316,0.1265,0.0578,59.00,80.44,79.56,-8.1104,4.6358,0.3426,9.3481
1,4,1,2,1,16.055,16055,-8.7400,4.6300,0.4300,9.9000,-0.0633,0.0458,0.4614,59.06,79.56,79.06,-8.1934,4.6350,0.3541,9.4202
1,4,1,2,1,16.185,16185,-9.2300,4.4100,1.2700,10.3080,-0.0731,0.0665,-1.3494,59.13,79.44,78.31,-8.3300,4.6054,0.4748,9.5301
1,4,1,2,1,16.315,16315,-7.9500,5.0000,0.8500,9.4300,-0.0284,0.1418,0.5541,57.69,78.50,78.81,-8.2799,4.6574,0.5243,9.5143
1,4,1,2,1,16.445,16445,-8.7500,4.6200,0.9900,9.9442,-0.0327,0.0349,-0.3905,59.56,77.06,76.38,-8.3418,4.6524,0.5856,9.5695
1,4,1,2,1,16.575,16575,-8.1500,4.5600,1.0200,9.3945,-0.0447,-0.1036,-0.4505,60.81,77.13,75.06,-8.3166,4.6403,0.6429,9.5452
1,4,1,2,1,16.705,16705,-8.8900,4.5400,1.1300,10.0459,-0.0251,-0.1494,0.5814,61.25,79.00,75.19,-8.3921,4.6270,0.7071,9.6092
1,4,1,2,1,16.836,16836,-9.8700,4.8400,0.6200,11.0103,0.0196,-0.1494,-0.5651,61.81,80.81,75.38,-8.5869,4.6551,0.6956,9.7923
1,4,1,2,1,17.009,17009,-8.9500,4.3500,0.4900,9.9632,0.0622,-0.0480,-0.0698,61.13,81.81,77.00,-8.6347,4.6149,0.6685,9.8134
1,4,1,2,1,17.140,17140,-8.5700,4.4000,0.2700,9.6373,0.0251,-0.0687,-0.4800,61.00,82.19,77.69,-8.6262,4.5866,0.6160,9.7891
1,4,1,2,1,17.271,17271,-7.6500,4.9100,0.3400,9.0965,0.0000,-0.0349,0.7309,58.38,83.31,80.63,-8.4976,4.6292,0.5796,9.6940
1,4,1,2,1,17.403,17403,-8.4900,4.1900,0.1000,9.4682,-0.0295,-0.0436,-0.3818,61.44,83.38,77.81,-8.4966,4.5713,0.5164,9.6621
1,4,1,2,1,17.533,17533,-9.5800,4.1800,0.4000,10.4599,-0.0556,-0.0676,-0.3927,63.25,83.88,76.00,-8.6393,4.5198,0.5011,9.7631
1,4,1,2,1,17.668,17668,-7.9100,4.8400,0.4700,9.2852,-0.0927,-0.0687,0.1233,60.25,85.88,78.81,-8.5432,4.5620,0.4970,9.6977
1,4,1,2,1,17.799,17799,-9.5800,4.5500,0.1800,10.6071,-0.0567,0.0305,-0.1942,64.06,86.38,74.63,-8.6798,4.5604,0.4552,9.8155
1,4,1,2,1,17.929,17929,-8.8100,4.6000,0.1400,9.9396,-0.0044,0.1069,0.1669,62.81,85.50,75.44,-8.6970,4.5656,0.4137,9.8313
1,4,1,2,1,18.102,18102,-7.8200,4.4000,0.1700,8.9745,0.0044,0.0196,-0.1396,63.06,84.38,74.88,-8.5814,4.5438,0.3816,9.7176
1,4,1,2,1,18.232,18232,-9.3800,4.2700,0.2600,10.3095,0.0065,-0.0535,0.1058,65.56,84.25,72.50,-8.6867,4.5077,0.3655,9.7934
1,4,1,2,1,18.362,18362,-9.8200,4.8400,0.2900,10.9518,-0.0098,0.0022,0.3240,62.19,85.38,76.13,-8.8360,4.5515,0.3556,9.9457
1,4,1,2,1,18.492,18492,-9.5100,4.7200,0.0000,10.6169,-0.0611,0.0218,0.0676,62.31,85.19,75.81,-8.9248,4.5737,0.3087,10.0333
1,4,1,2,1,18.622,18622,-8.3800,4.9900,0.1800,9.7548,-0.0829,-0.0142,-0.3916,61.44,85.56,76.38,-8.8530,4.6286,0.2918,9.9942
1,4,1,2,1,18.752,18752,-10.0600,3.6700,0.4800,10.7193,-0.0916,-0.0065,0.7210,64.13,85.81,73.50,-9.0121,4.5022,0.3166,10.0791
1,5,1,2,1,18.883,18883,-6.9700,4.8000,-0.0900,8.4634,-0.1080,-0.0196,0.0578,58.19,87.06,79.00,-8.7430,4.5415,0.2630,9.8557
1,5,1,2,1,19.013,19013,-8.8700,4.4200,0.2100,9.9125,-0.0927,-0.0764,-0.4909,62.75,88.44,74.00,-8.7597,4.5255,0.2560,9.8630
1,5,1,2,1,19.186,19186,-7.8100,4.7600,-0.0700,9.1465,-0.0142,0.0120,0.4025,61.13,89.56,75.38,-8.6346,4.5564,0.2131,9.7653
1,5,1,2,1,19.316,19316,-9.5000,4.2700,-0.2300,10.4181,0.0731,0.0589,0.0415,62.13,88.81,74.50,-8.7486,4.5186,0.1547,9.8479
1,5,1,2,1,19.446,19446,-7.7700,4.3700,0.3200,8.9203,0.1309,0.0120,-0.2531,60.25,87.63,76.75,-8.6197,4.4991,0.1765,9.7248
1,5,1,2,1,19.576,19576,-8.8900,4.9000,0.2700,10.1546,0.2673,0.0654,0.0818,61.56,85.88,76.44,-8.6553,4.5519,0.1888,9.7811
1,5,1,2,1,19.706,19706,-8.6100,4.3000,0.6700,9.6473,0.1822,-0.1004,-0.0349,61.19,84.50,78.25,-8.6493,4.5187,0.2522,9.7618
1,5,1,2,1,19.836,19836,-5.7800,3.2100,0.5500,6.6344,0.2149,-0.0327,0.3785,58.75,84.25,82.06,-8.2712,4.3462,0.2914,9.3481
1,5,1,2,1,19.966,19966,-9.0600,5.7600,0.4600,10.7458,-0.0349,-0.1276,-0.0065,58.56,85.25,83.06,-8.3752,4.5325,0.3137,9.5281
1,5,1,2,1,20.098,20098,-7.6800,4.6000,0.3000,8.9573,-0.0654,0.0458,-0.2334,58.94,85.81,82.50,-8.2836,4.5414,0.3119,9.4519
1,5,1,2,1,20.273,20273,-8.1200,4.7300,0.0500,9.3973,-0.1614,0.0938,0.1462,59.81,85.75,80.19,-8.2620,4.5663,0.2773,9.4440
1,5,1,2,1,20.407,20407,-8.2200,4.8200,0.3100,9.5340,-0.1265,0.0513,-0.0829,59.38,85.81,79.38,-8.2565,4.5997,0.2816,9.4555
1,5,1,2,1,20.538,20538,-8.3200,4.9800,0.4100,9.7052,-0.0611,0.0044,-0.0785,60.63,85.81,77.50,-8.2648,4.6498,0.2986,9.4878
1,5,1,2,1,20.669,20669,-7.8500,4.5700,0.4500,9.0945,0.0196,-0.0251,-0.3774,61.06,86.00,76.88,-8.2102,4.6393,0.3185,9.4357
1,5,1,2,1,20.799,20799,-7.9900,4.4000,0.1000,9.1220,0.0676,0.0120,0.4407,62.25,85.75,76.06,-8.1812,4.6078,0.2897,9.3940
1,5,1,2,1,20.930,20930,-7.5000,3.7800,0.2400,8.4021,0.0207,-0.0960,-0.3098,61.19,86.00,77.44,-8.0914,4.4987,0.2832,9.2622
1,5,1,2,1,21.060,21060,-8.5000,3.9500,0.7600,9.4037,0.0556,-0.0251,0.0229,63.38,86.75,75.69,-8.1452,4.4264,0.3460,9.2767
1,5,1,2,1,21.191,21191,-8.6600,5.2800,-0.9200,10.1843,-0.0185,0.0175,0.5356,59.56,86.44,79.69,-8.2131,4.5389,0.1792,9.3855
1,5,1,2,1,21.364,21364,-8.9900,5.0000,-0.8300,10.3203,-0.0513,-0.0131,0.1069,60.19,87.00,78.81,-8.3155,4.5996,0.0462,9.5029
1,5,1,2,1,21.495,21495,-7.2300,4.4100,-0.2700,8.4731,0.0774,0.0218,0.1484,57.81,86.94,81.13,-8.1724,4.5746,0.0045,9.3657
1,5,1,2,1,21.625,21625,-9.1800,5.4600,-0.6300,10.6996,0.0240,0.0055,0.0840,58.00,86.56,81.25,-8.3052,4.6913,-0.0791,9.5389
1,5,1,2,1,21.756,21756,-8.5200,6.3400,0.9200,10.6599,0.0065,0.0545,-0.0894,57.31,86.13,82.00,-8.3335,4.9086,0.0526,9.6718
1,5,1,2,1,21.887,21887,-8.5400,5.9700,-0.0800,10.4201,0.0698,0.0415,0.3425,57.81,84.81,81.56,-8.3607,5.0484,0.0351,9.7668
1,5,1,2,1,22.018,22018,-8.2100,5.3100,0.0300,9.7776,0.0404,-0.0633,0.4963,55.69,84.88,84.06,-8.3409,5.0829,0.0344,9.7676
1,5,1,2,1,22.149,22149,-8.2500,5.4400,0.7300,9.9090,-0.0764,-0.1854,-0.6850,56.06,86.63,84.06,-8.3289,5.1300,0.1261,9.7828
1,5,1,2,1,22.284,22284,-8.3700,4.6500,-0.3700,9.5821,-0.0698,-0.1418,0.3556,57.56,88.88,82.94,-8.3343,5.0667,0.0607,9.7538
1,5,1,2,1,22.457,22457,-8.1400,5.8300,-0.0200,10.0124,0.0676,-0.0360,-0.5323,56.69,90.44,84.19,-8.3087,5.1673,0.0501,9.7846
1,5,1,2,1,22.587,22587,-8.7500,4.7900,-0.4000,9.9833,0.0960,0.0218,-0.0360,59.44,89.81,82.00,-8.3668,5.1176,-0.0092,9.8078
1,5,1,2,1,22.717,22717,-8.2600,4.5800,-0.0200,9.4448,0.0404,0.0000,-0.2465,59.63,89.56,82.06,-8.3528,5.0467,-0.0107,9.7590
1,5,1,2,1,22.847,22847,-9.0400,4.4400,-0.1300,10.0723,-0.0076,0.0065,-0.1167,62.00,89.44,79.88,-8.4433,4.9668,-0.0264,9.7959
1,5,1,2,1,22.977,22977,-8.7900,4.1800,0.0800,9.7336,-0.0207,0.0196,-0.1353,62.50,89.44,79.19,-8.4890,4.8631,-0.0124,9.7833
1,5,1,2,1,23.107,23107,-9.5200,4.2400,0.0000,10.4215,-0.0600,-0.0011,-0.0316,63.38,89.69,77.94,-8.6249,4.7810,-0.0107,9.8614
1,5,1,2,1,23.238,23238,-9.3800,4.9500,-0.2200,10.6083,-0.0982,0.0022,0.2640,62.06,90.31,78.75,-8.7244,4.8033,-0.0383,9.9593
1,5,1,2,1,23.368,23368,-8.7900,4.6600,-0.1500,9.9500,-0.0764,-0.0022,-0.1167,61.81,90.94,78.44,-8.7330,4.7844,-0.0530,9.9579
1,5,1,2,1,23.541,23541,-9.5400,5.4100,-0.3900,10.9741,-0.1069,-0.0327,0.0905,62.50,92.00,77.13,-8.8394,4.8668,-0.0974,10.0911
1,6,1,2,1,23.671,23671,-8.2100,4.6000,0.0100,9.4109,-0.0687,0.0491,-0.0371,61.13,92.44,77.88,-8.7564,4.8317,-0.0833,10.0013
1,6,1,2,1,23.801,23801,-8.4100,4.1300,-0.3500,9.3759,-0.0033,0.0687,0.0916,61.31,91.81,77.31,-8.7108,4.7392,-0.1184,9.9172
1,6,1,2,1,23.931,23931,-7.0200,5.6900,-0.4700,9.0486,-0.0458,-0.0491,0.6000,58.19,91.50,80.13,-8.4880,4.8645,-0.1648,9.7845
1,6,1,2,1,24.061,24061,-9.0800,4.7000,-0.4900,10.2360,-0.0251,-0.1604,-0.7941,61.19,93.88,77.44,-8.5660,4.8428,-0.2076,9.8424
1,6,1,2,1,24.191,24191,-8.6600,4.8100,0.1300,9.9070,0.1364,0.0524,0.2662,61.13,94.50,77.81,-8.5784,4.8385,-0.1631,9.8502
1,6,1,2,1,24.322,24322,-7.5600,4.5300,-0.7200,8.8427,0.1451,0.0905,0.0535,60.00,92.19,79.63,-8.4442,4.7978,-0.2365,9.7149
1,6,1,2,1,24.452,24452,-8.0100,4.1800,-0.3000,9.0400,0.0764,0.0196,0.0022,59.81,90.50,80.44,-8.3870,4.7164,-0.2449,9.6253
1,6,1,2,1,24.625,24625,-8.8300,4.2000,-0.1500,9.7791,0.0251,-0.0240,-0.0709,60.69,90.00,80.13,-8.4453,4.6484,-0.2324,9.6429
1,6,1,2,1,24.756,24756,-8.4100,4.7400,-0.1800,9.6555,0.0349,0.0175,0.4145,58.63,89.63,82.50,-8.4407,4.6604,-0.2255,9.6445
1,6,1,2,1,24.886,24886,-7.9500,5.4800,0.6400,9.6769,0.0000,-0.0098,-0.1604,57.56,89.69,83.56,-8.3760,4.7684,-0.1114,9.6389
1,6,1,2,1,25.017,25017,-8.4100,5.3600,-0.1700,9.9743,-0.0262,0.1047,0.0458,58.75,89.13,82.19,-8.3805,4.8464,-0.1191,9.6817
1,6,1,2,1,25.148,25148,-8.1500,4.8400,0.0600,9.4790,-0.0360,0.1014,0.0207,58.31,88.13,81.94,-8.3501,4.8456,-0.0955,9.6547
1,6,1,2,1,25.278,25278,-8.2000,4.9200,0.2900,9.5672,-0.1014,0.0305,-0.0774,58.13,88.06,81.31,-8.3303,4.8554,-0.0447,9.6422
1,6,1,2,1,25.408,25408,-7.6900,4.2900,0.0300,8.8057,-0.1080,0.0676,-0.1527,59.19,88.50,79.44,-8.2460,4.7809,-0.0349,9.5317
1,6,1,2,1,25.538,25538,-9.3500,5.9400,-0.2200,11.0795,-0.0742,0.1440,0.4320,58.06,87.31,79.56,-8.3914,4.9336,-0.0593,9.7345
1,6,1,2,1,25.711,25711,-8.4800,5.5500,0.5300,10.1486,-0.0513,0.0654,-0.5345,58.63,87.06,78.00,-8.4031,5.0148,0.0184,9.7858
1,6,1,2,1,25.846,25846,-7.7700,4.6900,0.3000,9.0807,0.0033,0.0818,-0.0884,61.69,85.69,74.56,-8.3197,4.9720,0.0555,9.6923
1,6,1,2,1,25.977,25977,-7.3600,4.3500,-0.1800,8.5513,0.0862,0.1145,-0.1451,60.81,83.50,75.25,-8.1932,4.8901,0.0245,9.5416
1,6,1,2,1,26.107,26107,-9.1100,4.6500,0.7800,10.2578,0.0327,-0.0425,-0.2160,62.94,82.75,73.38,-8.3140,4.8584,0.1240,9.6303
1,6,1,2,1,26.238,26238,-6.0900,3.2200,0.5100,6.9077,0.0447,-0.0458,0.3938,61.44,82.88,75.25,-8.0210,4.6425,0.1749,9.2693
1,7,1,2,1,26.369,26369,-9.0700,5.1400,0.6300,10.4442,0.0851,-0.0044,-0.1080,60.44,83.06,76.75,-8.1592,4.7081,0.2349,9.4230
1,7,1,2,1,26.500,26500,-8.4100,4.2600,0.8000,9.4613,0.0611,-0.0360,0.0349,60.75,82.81,77.00,-8.1922,4.6490,0.3093,9.4245
1,7,1,2,1,26.630,26630,-7.7400,3.7300,0.4000,8.6012,0.0295,-0.0087,0.1025,60.50,82.56,77.69,-8.1327,4.5279,0.3213,9.3137
1,7,1,2,1,26.803,26803,-8.1500,5.1100,0.4300,9.6291,-0.0545,0.0425,0.2847,59.31,82.88,78.56,-8.1349,4.6046,0.3356,9.3537
1,7,1,2,1,26.933,26933,-8.8200,5.9900,1.5800,10.7782,-0.0371,0.0229,0.0175,58.19,83.44,79.25,-8.2252,4.7872,0.4996,9.5300
1,7,1,2,1,27.064,27064,-7.2100,4.1700,0.2000,8.3314,-0.0785,0.0829,-0.2793,59.06,82.44,77.75,-8.0914,4.7059,0.4601,9.3717
1,7,1,2,1,27.194,27194,-8.0100,4.7600,0.3000,9.3224,-0.0851,-0.0087,0.3098,58.44,82.88,77.81,-8.0807,4.7130,0.4390,9.3650
1,7,1,2,1,27.325,27325,-8.4100,5.5200,0.6300,10.0795,-0.0513,-0.0316,0.0229,57.75,83.94,78.06,-8.1241,4.8193,0.4642,9.4574
1,7,1,2,1,27.456,27456,-7.1500,4.8400,0.0000,8.6341,0.0055,-0.0425,0.0905,57.00,84.38,78.88,-7.9957,4.8221,0.4030,9.3459
1,7,1,2,1,27.586,27586,-8.4200,5.3700,0.4100,9.9951,-0.0240,-0.1167,0.0851,57.00,85.69,79.19,-8.0516,4.8943,0.4039,9.4311
1,7,1,2,1,27.717,27717,-8.9000,5.3000,0.1800,10.3601,0.0360,-0.0404,0.0611,56.88,86.56,79.63,-8.1634,4.9477,0.3744,9.5531
1,7,1,2,1,27.894,27894,-8.4300,5.5200,0.2500,10.0796,0.0185,0.0065,-0.0480,55.69,86.81,81.06,-8.1986,5.0231,0.3580,9.6217
1,7,1,2,1,28.024,28024,-8.4000,5.2000,0.1500,9.8804,0.0316,0.1014,0.0065,56.44,86.00,80.25,-8.2251,5.0464,0.3306,9.6555
1,7,1,2,1,28.156,28156,-8.2600,5.6000,0.5000,9.9919,-0.0022,0.1680,0.3687,55.00,84.63,81.06,-8.2297,5.1194,0.3529,9.6985
1,7,1,2,1,28.286,28286,-6.4900,5.5800,0.6200,8.5814,-0.0982,0.0851,0.2629,51.81,84.19,83.38,-8.0005,5.1801,0.3881,9.5389
1,7,1,2,1,28.416,28416,-7.6000,5.7500,0.9400,9.5763,-0.1604,-0.0098,-0.3174,53.00,84.56,81.31,-7.9477,5.2552,0.4608,9.5391
1,7,1,2,1,28.547,28547,-8.5200,6.6000,0.4400,10.7863,-0.0098,0.0818,0.1320,53.19,84.88,80.50,-8.0231,5.4324,0.4581,9.7001
1,7,1,2,1,28.678,28678,-6.2800,5.1900,0.9700,8.2046,0.0665,0.0491,-0.0982,53.75,83.88,79.69,-7.7934,5.4005,0.5256,9.4962
1,7,1,2,1,28.808,28808,-8.0000,6.2600,0.2100,10.1603,0.0731,-0.0578,-0.2334,54.50,83.13,79.38,-7.8206,5.5137,0.4840,9.5811
1,7,1,2,1,28.981,28981,-7.7000,5.5800,0.6300,9.5301,0.0785,-0.1516,-0.1025,55.75,83.69,79.31,-7.8047,5.5225,0.5032,9.5742
1,7,1,2,1,29.111,29111,-9.0400,5.2000,0.3000,10.4332,0.0796,-0.1516,-0.3796,58.00,84.50,78.25,-7.9675,5.4800,0.4764,9.6819
1,7,1,2,1,29.241,29241,-8.8500,4.3000,0.2800,9.8433,0.0611,-0.0556,-0.0109,59.56,84.88,77.63,-8.0838,5.3245,0.4506,9.6902
1,7,1,2,1,29.371,29371,-8.4600,5.3800,0.4100,10.0341,0.0087,0.0011,0.7887,56.94,85.38,80.56,-8.1334,5.3318,0.4452,9.7354
1,7,1,2,1,29.501,29501,-7.9000,5.5600,0.3500,9.6668,-0.0196,-0.0153,-0.7025,56.63,85.56,80.81,-8.1026,5.3619,0.4327,9.7257
1,7,1,2,1,29.631,29631,-8.2800,4.8500,0.3200,9.6012,-0.0469,-0.0153,-0.0502,59.81,85.75,77.44,-8.1260,5.2944,0.4178,9.7076
1,7,1,2,1,29.762,29762,-8.7900,4.9200,0.1700,10.0747,-0.0447,-0.0295,-0.2869,60.31,86.38,76.75,-8.2135,5.2451,0.3852,9.7530
1,7,1,2,1,29.892,29892,-9.7400,4.7800,0.0600,10.8499,-0.0327,-0.0207,0.1822,61.63,86.94,75.25,-8.4146,5.1838,0.3423,9.8891
1,7,1,2,1,30.065,30065,-8.6300,5.6000,0.1300,10.2885,0.0109,-0.0851,0.2160,58.50,88.13,78.50,-8.4430,5.2386,0.3143,9.9412
1,7,1,2,1,30.195,30195,-8.2100,5.8200,0.2100,10.0658,0.0447,-0.0884,0.3120,56.13,89.13,81.44,-8.4123,5.3152,0.3006,9.9554
1,7,1,2,1,30.326,30326,-8.2200,5.1700,0.1900,9.7125,0.0600,-0.0633,-0.2749,56.13,89.44,82.06,-8.3870,5.2961,0.2860,9.9233
1,7,1,2,1,30.456,30456,-7.2300,4.2200,-0.1700,8.3732,-0.0415,-0.0600,0.0851,56.81,89.88,81.69,-8.2345,5.1543,0.2259,9.7173
1,7,1,2,1,30.587,30587,-7.4700,5.4500,-0.2800,9.2510,-0.1091,-0.1222,-0.0447,55.94,91.63,82.44,-8.1338,5.1933,0.1593,9.6516
1,7,1,2,1,30.718,30718,-8.6600,5.4700,-0.2400,10.2457,-0.1691,-0.1036,0.5411,55.25,93.88,82.63,-8.2031,5.2297,0.1066,9.7290
1,7,1,2,1,30.848,30848,-7.4600,6.1200,-0.3900,9.6570,-0.0556,0.0011,-0.2051,53.06,95.13,84.19,-8.1052,5.3470,0.0412,9.7101
1,7,1,2,1,30.979,30979,-7.9800,6.4400,-1.2100,10.3256,0.0098,0.0633,0.0120,54.56,94.88,82.56,-8.0887,5.4911,-0.1237,9.7772
1,7,1,2,1,31.156,31156,-7.0500,5.1300,-1.0800,8.7855,0.0273,-0.0654,-0.4821,56.38,94.75,81.00,-7.9518,5.4435,-0.2497,9.6398
1,7,1,2,1,31.287,31287,-8.7100,4.6500,0.0800,9.8739,0.0556,-0.0098,0.0175,58.31,95.44,79.50,-8.0517,5.3389,-0.2063,9.6632
1,7,1,2,1,31.418,31418,-8.2800,5.3400,-0.9100,9.8945,0.0600,0.0622,0.2454,56.75,94.00,81.44,-8.0818,5.3391,-0.2990,9.6908
1,7,1,2,1,31.548,31548,-7.0800,4.2400,0.4400,8.2642,0.1200,0.1047,-0.9207,58.94,92.50,79.56,-7.9498,5.1942,-0.2016,9.4984
1,7,1,2,1,31.678,31678,-8.9100,5.0400,-0.3700,10.2434,0.1473,0.1614,0.4145,60.94,89.56,77.88,-8.0763,5.1739,-0.2238,9.5941
1,7,1,2,1,31.809,31809,-6.5600,5.2300,0.4100,8.3997,-0.0360,-0.0273,-0.0251,57.06,88.56,81.75,-7.8765,5.1813,-0.1403,9.4289
1,8,1,2,1,31.939,31939,-8.8300,4.3600,-0.1600,9.8491,-0.0949,-0.1025,-0.5411,61.50,90.06,77.19,-8.0022,5.0731,-0.1429,9.4758
1,8,1,2,1,32.070,32070,-8.6700,4.6800,0.0600,9.8527,-0.0480,0.0120,0.5607,59.88,91.19,78.50,-8.0902,5.0213,-0.1161,9.5225
1,8,1,2,1,32.243,32243,-8.9300,4.8700,-0.5300,10.1854,-0.0742,-0.0207,-0.1811,60.31,91.81,77.63,-8.2008,5.0013,-0.1707,9.6071
1,8,1,2,1,32.374,32374,-7.8500,5.3200,-0.4400,9.4931,-0.0055,0.0153,0.2585,59.13,92.00,78.56,-8.1546,5.0433,-0.2062,9.5904
1,8,1,2,1,32.504,32504,-7.7200,5.3600,-0.1900,9.4002,0.0033,-0.0120,-0.0545,58.69,92.00,79.00,-8.0973,5.0851,-0.2040,9.5638
1,8,1,2,1,32.635,32635,-8.3100,5.2600,0.0300,9.8349,0.0425,0.0175,-0.0938,59.06,91.81,78.75,-8.1254,5.1081,-0.1732,9.5992
1,8,1,2,1,32.765,32765,-7.9700,4.4000,-0.3100,9.1092,0.0087,0.0218,-0.2116,60.13,91.38,77.75,-8.1049,5.0148,-0.1912,9.5328
1,8,1,2,1,32.896,32896,-8.9300,4.6500,0.2200,10.0705,0.0000,0.0742,-0.0556,61.25,91.31,76.38,-8.2136,4.9667,-0.1370,9.5995
1,8,1,2,1,33.027,33027,-8.5400,4.6900,-0.2100,9.7453,-0.0425,0.0764,0.4298,60.25,90.38,77.06,-8.2566,4.9303,-0.1467,9.6177
1,8,1,2,1,33.157,33157,-8.4500,5.4000,-0.3900,10.0357,0.0295,0.1396,-0.0862,58.56,89.00,78.31,-8.2821,4.9922,-0.1787,9.6720
1,8,1,2,1,33.330,33330,-8.0400,4.8100,-0.1300,9.3699,0.0000,0.1014,0.0720,59.31,87.13,77.13,-8.2502,4.9682,-0.1723,9.6321
1,8,1,2,1,33.464,33464,-8.2800,5.0500,0.4200,9.7076,0.0305,0.0785,0.0240,58.63,86.06,77.56,-8.2541,4.9789,-0.0942,9.6400
1,8,1,2,1,33.596,33596,-8.4200,5.1600,0.2900,9.8796,0.0480,0.0502,-0.0131,58.56,84.94,77.63,-8.2760,5.0028,-0.0436,9.6707
1,8,1,2,1,33.726,33726,-8.4500,5.0300,0.7600,9.8631,0.0567,0.0229,-0.0033,58.44,84.19,77.81,-8.2989,5.0064,0.0623,9.6923
1,8,1,2,1,33.856,33856,-7.6300,4.7200,0.7800,9.0058,0.0295,-0.0327,0.2247,57.31,84.06,79.25,-8.2108,4.9686,0.1569,9.5984
1,8,1,2,1,33.988,33988,-7.7700,5.3500,0.3700,9.4410,0.0087,-0.0960,0.0207,56.63,84.75,80.38,-8.1527,5.0189,0.1849,9.5755
1,8,1,2,1,34.118,34118,-8.1400,5.4900,0.5700,9.8349,0.0065,-0.1124,-0.1505,57.00,85.94,80.44,-8.1510,5.0810,0.2357,9.6079
1,8,1,2,1,34.248,34248,-8.4700,5.2400,0.2800,9.9638,0.0240,-0.0993,-0.1298,57.69,86.88,80.25,-8.1931,5.1019,0.2415,9.6547
1,8,1,2,1,34.421,34421,-8.8000,4.9000,-0.1000,10.0727,0.0022,-0.1102,-0.0055,59.25,88.38,79.38,-8.2730,5.0753,0.1965,9.7078
1,8,1,2,1,34.551,34551,-8.7200,4.8500,0.1200,9.9787,-0.0098,-0.1025,-0.1473,59.50,89.94,79.44,-8.3319,5.0456,0.1864,9.7424
1,8,1,2,1,34.681,34681,-8.8000,4.7600,-0.2600,10.0083,-0.0229,-0.0207,-0.1178,60.63,90.88,78.50,-8.3936,5.0080,0.1276,9.7749
1,8,1,2,1,34.811,34811,-8.7700,4.6100,-0.1400,9.9088,-0.0535,0.0502,-0.1996,61.56,90.94,77.19,-8.4432,4.9555,0.0923,9.7905
1,8,1,2,1,34.941,34941,-8.9000,4.1900,-0.0900,9.8374,-0.0742,0.0698,-0.3698,64.13,90.63,74.06,-8.5034,4.8547,0.0683,9.7918
1,8,1,2,1,35.071,35071,-9.0600,4.2000,-0.1500,9.9873,-0.0676,0.0665,0.0796,64.81,90.13,72.63,-8.5767,4.7684,0.0395,9.8132
1,8,1,2,1,35.201,35201,-8.9400,3.9500,0.0700,9.7740,-0.0284,0.0567,-0.2880,66.06,89.63,70.94,-8.6246,4.6606,0.0436,9.8034
1,8,1,2,1,35.332,35332,-8.6700,4.1700,0.1900,9.6226,0.0153,0.0720,0.2105,65.50,88.56,71.25,-8.6306,4.5959,0.0629,9.7782
1,8,1,2,1,35.505,35505,-9.3700,3.9700,0.1900,10.1781,0.0142,0.0349,-0.2149,66.81,87.13,69.88,-8.7280,4.5134,0.0796,9.8263
1,8,1,2,1,35.636,35636,-9.0900,3.7700,0.4000,9.8489,0.0098,-0.0087,0.2149,66.38,86.88,70.31,-8.7757,4.4155,0.1218,9.8247
1,8,1,2,1,35.766,35766,-9.3800,4.2300,0.3200,10.2946,0.0196,-0.0262,0.2138,64.94,87.19,71.94,-8.8554,4.3910,0.1479,9.8854
1,8,1,2,1,35.896,35896,-9.0500,4.7100,0.2000,10.2042,0.0218,-0.0447,0.2062,63.31,87.63,73.81,-8.8810,4.4331,0.1548,9.9271
1,8,1,2,1,36.026,36026,-8.6100,4.5200,0.1100,9.7249,-0.0076,-0.0971,0.2105,61.94,88.69,75.50,-8.8453,4.4445,0.1489,9.9003
1,8,1,2,1,36.156,36156,-7.1500,3.8600,-0.4200,8.1362,-0.0905,-0.1429,0.2258,60.13,90.56,77.44,-8.6219,4.3675,0.0739,9.6653
1,8,1,2,1,36.286,36286,-9.1600,4.9800,-0.2400,10.4290,-0.0971,-0.1287,-0.3720,61.06,93.56,76.31,-8.6928,4.4482,0.0326,9.7649
1,8,1,2,1,36.416,36416,-8.5300,4.4800,-0.2600,9.6384,-0.0338,-0.0305,0.3862,61.56,95.31,75.44,-8.6714,4.4524,-0.0060,9.7476
1,8,1,2,1,36.589,36589,-8.4900,4.8500,-0.4400,9.7876,0.0098,-0.0185,-0.3742,60.38,95.63,76.50,-8.6475,4.5048,-0.0632,9.7507
1,8,1,2,1,36.719,36719,-8.8200,4.9400,-0.5600,10.1247,0.0218,0.0000,0.1473,61.44,96.06,75.50,-8.6702,4.5621,-0.1286,9.7981
1,8,1,2,1,36.850,36850,-8.8600,5.4800,-0.4600,10.4279,0.0840,0.1036,0.2989,58.94,94.63,78.13,-8.6952,4.6831,-0.1723,9.8776
1,8,1,2,1,36.980,36980,-7.5500,4.0100,-0.2900,8.5538,0.0851,0.0785,-0.3163,59.63,92.81,77.69,-8.5443,4.5944,-0.1878,9.7030
1,8,1,2,1,37.111,37111,-8.9600,4.5800,-0.3300,10.0681,0.0393,0.0524,-0.2923,62.19,91.69,75.31,-8.5991,4.5925,-0.2066,9.7508
1,8,1,2,1,37.242,37242,-8.7200,4.8600,-0.1000,9.9834,0.0218,0.0393,0.3807,61.38,90.81,76.25,-8.6150,4.6277,-0.1925,9.7812
1,8,1,2,1,37.372,37372,-8.6700,4.4200,0.3600,9.7383,0.0720,0.0229,-0.2858,61.31,90.00,76.50,-8.6223,4.6004,-0.1197,9.7735
1,8,1,2,1,37.503,37503,-7.9800,3.2700,-0.1400,8.6251,-0.0022,-0.0153,0.0818,61.63,89.75,76.19,-8.5376,4.4251,-0.1224,9.6170
1,8,1,2,1,37.679,37679,-9.3900,4.6400,0.2700,10.4773,0.0065,0.0665,0.0535,62.19,89.88,75.38,-8.6499,4.4534,-0.0707,9.7293
1,8,1,2,1,37.810,37810,-8.3000,4.8100,0.2600,9.5965,-0.0076,0.0600,-0.0447,61.75,88.94,75.63,-8.6038,4.5004,-0.0271,9.7098
1,8,1,2,1,37.941,37941,-6.8700,3.5400,0.0300,7.7285,0.1353,0.1636,-0.0818,61.94,86.56,75.50,-8.3754,4.3738,-0.0196,9.4487
1,9,1,2,1,38.071,38071,-8.4500,4.6600,0.3400,9.6558,-0.0436,-0.1385,0.1233,62.50,86.44,75.00,-8.3852,4.4115,0.0278,9.4749
1,9,1,2,1,38.202,38202,-8.0800,4.6800,0.1800,9.3392,0.0284,-0.0295,-0.0807,61.94,87.75,75.94,-8.3450,4.4469,0.0479,9.4560
1,9,1,2,1,38.332,38332,-8.5500,4.1600,-0.0200,9.5083,0.0284,-0.0545,0.0153,62.63,88.06,75.56,-8.3720,4.4091,0.0389,9.4621
1,9,1,2,1,38.462,38462,-8.6000,4.6800,-0.1400,9.7919,0.0404,-0.0305,0.1527,61.44,88.69,77.00,-8.4020,4.4448,0.0153,9.5053
1,9,1,2,1,38.593,38593,-8.6900,4.7100,-0.1600,9.8856,0.0633,0.0022,0.0578,61.44,89.00,77.44,-8.4400,4.4797,-0.0078,9.5552
1,9,1,2,1,38.766,38766,-8.0700,4.7700,0.1300,9.3752,0.0851,0.0687,-0.0011,60.69,88.00,78.56,-8.3912,4.5180,0.0104,9.5302
1,9,1,2,1,38.897,38897,-8.3400,5.0800,-0.1600,9.7667,0.1113,0.1604,-0.0425,61.06,85.25,78.44,-8.3845,4.5921,-0.0121,9.5596
1,9,1,2,1,39.027,39027,-7.8100,4.3800,1.0800,9.0193,0.0022,0.0000,-0.1920,61.75,84.13,77.69,-8.3088,4.5641,0.1318,9.4807
1,9,1,2,1,39.158,39158,-8.9600,5.0300,0.9000,10.3147,0.0164,0.0524,0.2596,61.50,83.50,77.88,-8.3946,4.6255,0.2331,9.5874
1,9,1,2,1,39.288,39288,-7.9300,4.7600,0.4400,9.2594,-0.0731,0.0480,-0.1047,60.69,83.31,78.25,-8.3334,4.6432,0.2603,9.5432
1,9,1,2,1,39.419,39419,-8.4800,4.3700,0.5400,9.5550,-0.0622,0.0436,-0.3687,63.19,82.50,75.13,-8.3527,4.6072,0.2972,9.5437
1,9,1,2,1,39.550,39550,-8.5900,4.1800,0.4300,9.5627,-0.0611,0.0142,0.0338,63.81,82.31,74.00,-8.3840,4.5509,0.3147,9.5447
1,9,1,2,1,39.683,39683,-8.6900,3.6200,0.5900,9.4323,0.0164,-0.0098,-0.0316,64.06,82.38,73.56,-8.4243,4.4283,0.3510,9.5237
1,9,1,2,1,39.856,39856,-9.0100,4.6300,0.5000,10.1423,0.0927,-0.0687,0.4069,61.88,83.25,76.44,-8.5015,4.4548,0.3706,9.6051
1,9,1,2,1,39.988,39988,-8.1100,4.5500,0.1900,9.3011,0.0665,-0.1276,-0.0284,60.50,84.31,78.81,-8.4499,4.4674,0.3468,9.5644
1,9,1,2,1,40.118,40118,-9.5500,5.2100,0.6100,10.8958,0.0360,-0.0938,-0.1953,61.13,85.38,79.00,-8.5949,4.5652,0.3815,9.7395
1,9,1,2,1,40.249,40249,-8.4100,4.2200,0.3600,9.4163,-0.0065,-0.0349,-0.0927,62.31,85.81,78.19,-8.5705,4.5197,0.3787,9.6966
1,9,1,2,1,40.379,40379,-8.8600,4.4300,0.2800,9.9097,-0.0404,0.0109,-0.0284,62.56,86.06,77.88,-8.6086,4.5079,0.3657,9.7244
1,9,1,2,1,40.510,40510,-8.9500,4.2700,0.2600,9.9198,-0.0676,0.0120,-0.1167,63.50,86.06,76.56,-8.6536,4.4766,0.3517,9.7493
1,9,1,2,1,40.640,40640,-8.5700,4.3700,0.1200,9.6206,-0.0774,-0.0295,-0.1353,64.19,86.69,75.50,-8.6426,4.4625,0.3212,9.7320
1,9,1,2,1,40.771,40771,-9.5400,4.4100,0.2100,10.5121,-0.0415,-0.0327,-0.0851,65.25,87.63,74.13,-8.7609,4.4556,0.3065,9.8336
1,9,1,2,1,40.943,40943,-8.4400,4.2100,0.1000,9.4323,0.0404,-0.0284,-0.0371,64.94,88.13,74.56,-8.7186,4.4232,0.2793,9.7804
1,9,1,2,1,41.073,41073,-8.8800,4.0100,0.0500,9.7436,0.0578,-0.0164,-0.1527,65.25,88.06,74.63,-8.7398,4.3688,0.2491,9.7741
1,9,1,2,1,41.203,41203,-9.6700,3.6800,0.0100,10.3466,0.0436,-0.0087,-0.2923,67.38,87.81,72.88,-8.8624,4.2780,0.2176,9.8433
1,9,1,2,1,41.333,41333,-9.0500,3.1500,0.2200,9.5851,0.0120,0.0109,0.0371,68.38,87.50,72.13,-8.8871,4.1294,0.2179,9.8021
1,9,1,2,1,41.463,41463,-9.0000,3.4500,0.2200,9.6411,-0.0262,-0.0065,-0.1036,68.50,87.38,71.94,-8.9020,4.0399,0.2182,9.7782
1,9,1,2,1,41.594,41594,-9.9900,3.6300,0.2500,10.6320,-0.0415,0.0087,0.1265,68.81,87.56,71.38,-9.0454,3.9858,0.2224,9.8871
1,9,1,2,1,41.724,41724,-10.5600,3.5600,0.0700,11.1442,-0.0753,-0.0436,0.0502,67.88,88.19,71.94,-9.2450,3.9297,0.2023,10.0475
1,9,1,2,1,41.855,41855,-9.1700,3.6900,-0.2500,9.8877,-0.1058,-0.0687,0.4287,67.06,89.94,72.31,-9.2351,3.8981,0.1427,10.0251
1,9,1,2,1,42.027,42027,-8.5800,4.8200,-0.0300,9.8412,-0.0502,-0.0436,-0.3022,63.38,91.94,75.44,-9.1488,4.0196,0.1199,9.9936
1,9,1,2,1,42.157,42157,-8.6200,4.2200,-0.0600,9.5977,0.0251,0.0796,0.2422,65.56,91.81,73.19,-9.0791,4.0460,0.0962,9.9403
1,9,1,2,1,42.287,42287,-7.3600,4.1900,0.0300,8.4692,0.0469,0.0524,-0.0731,63.06,90.06,75.75,-8.8526,4.0650,0.0875,9.7416
1,9,1,2,1,42.417,42417,-9.2300,4.4200,-0.4800,10.2450,-0.0240,-0.0447,-0.2062,65.44,89.69,73.50,-8.9023,4.1118,0.0127,9.8060
1,9,1,2,1,42.547,42547,-9.2500,3.8700,-0.0900,10.0273,-0.0251,-0.0055,0.2749,65.50,90.44,73.44,-8.9481,4.0799,-0.0008,9.8343
1,9,1,2,1,42.678,42678,-8.2800,3.9000,-0.0500,9.1526,0.0622,0.0567,-0.2127,63.56,89.44,75.50,-8.8601,4.0562,-0.0073,9.7444
1,9,1,2,1,42.808,42808,-7.9500,3.3800,-0.1300,8.6397,0.0251,0.0196,0.2683,64.56,88.56,74.56,-8.7401,3.9671,-0.0235,9.5984
1,9,1,2,1,42.939,42939,-9.4600,5.2500,0.1400,10.8201,0.0044,-0.0425,-0.1222,63.44,89.19,75.88,-8.8350,4.1362,-0.0019,9.7553
1,9,1,2,1,43.112,43112,-8.5500,4.7600,-0.5900,9.8035,0.0251,-0.0142,0.1593,64.06,88.88,75.69,-8.7974,4.2184,-0.0794,9.7568
1,9,1,2,1,43.242,43242,-10.7800,6.2000,0.6400,12.4522,0.0611,0.0284,0.2400,64.00,88.81,76.13,-9.0587,4.4795,0.0154,10.1057
1,10,1,2,1,43.373,43373,-6.7600,2.9700,0.1300,7.3848,0.0840,0.0360,-0.7625,64.31,86.75,76.13,-8.7558,4.2806,0.0305,9.7462
1,10,1,2,1,43.503,43503,-10.3100,3.6000,0.4600,10.9301,0.0393,-0.0207,0.0055,68.75,86.13,72.00,-8.9606,4.1909,0.0871,9.8926
1,10,1,2,1,43.634,43634,-8.3300,4.0500,0.5800,9.2805,0.0960,0.1156,0.3785,66.38,85.63,74.56,-8.8775,4.1723,0.1520,9.8103
1,10,1,2,1,43.765,43765,-8.1000,4.5900,-0.5600,9.3269,-0.0524,-0.0709,-0.1909,64.06,84.56,76.81,-8.7750,4.2274,0.0582,9.7404
1,10,1,2,1,43.897,43897,-9.2400,3.8800,0.0300,10.0216,-0.0338,0.0011,-0.1265,67.13,85.50,73.69,-8.8363,4.1816,0.0545,9.7759
1,10,1,2,1,44.028,44028,-8.6300,3.8900,0.2600,9.4698,-0.0109,0.0480,0.2836,65.38,85.19,75.31,-8.8091,4.1432,0.0816,9.7352
1,10,1,2,1,44.203,44203,-9.4100,4.0500,0.2200,10.2469,-0.0044,0.0840,-0.0033,65.81,84.25,74.44,-8.8883,4.1309,0.0998,9.8018
1,10,1,2,1,44.333,44333,-7.9800,3.8700,0.5500,8.8859,-0.0153,0.0491,0.0851,64.50,83.75,75.38,-8.7686,4.0965,0.1591,9.6796
1,10,1,2,1,44.464,44464,-8.3100,4.5500,0.5400,9.4895,0.0349,0.1091,0.2105,63.75,82.31,75.94,-8.7082,4.1563,0.2093,9.6515
1,10,1,2,1,44.594,44594,-7.9200,5.0800,0.0700,9.4094,-0.0600,-0.0436,-0.0229,62.63,82.25,76.81,-8.6043,4.2780,0.1910,9.6110
1,10,1,2,1,44.725,44725,-8.6100,4.1100,0.9800,9.5909,-0.0524,-0.0065,-0.3491,64.69,83.00,74.50,-8.6051,4.2559,0.2949,9.6045
1,10,1,2,1,44.855,44855,-8.8600,4.6100,-0.0500,9.9877,-0.0251,0.0044,0.2127,65.06,82.69,73.88,-8.6387,4.3025,0.2495,9.6540
1,10,1,2,1,44.986,44986,-8.7700,3.8500,1.3400,9.6711,-0.0109,-0.0742,-0.3807,65.44,83.81,73.38,-8.6560,4.2429,0.3932,9.6479
1,10,1,2,1,45.117,45117,-8.8300,3.2300,0.3000,9.4070,-0.0164,-0.0502,-0.1385,68.00,84.38,70.81,-8.6789,4.1094,0.3809,9.6102
1,10,1,2,1,45.289,45289,-8.7200,3.9300,0.3700,9.5718,0.0305,-0.1004,0.1080,66.69,86.31,72.44,-8.6843,4.0858,0.3795,9.6049
1,10,1,2,1,45.419,45419,-9.9000,3.3600,0.1700,10.4560,0.0764,-0.1145,-0.7156,69.63,87.63,70.13,-8.8445,3.9901,0.3519,9.7093
1,10,1,2,1,45.549,45549,-9.2100,2.6000,-0.2100,9.5723,0.0644,-0.0785,0.7418,69.25,88.94,71.31,-8.8927,3.8070,0.2778,9.6773
1,10,1,2,1,45.679,45679,-9.4100,3.7300,-0.2100,10.1245,0.0578,-0.0513,0.0687,65.88,89.75,75.31,-8.9608,3.7968,0.2135,9.7344
1,10,1,2,1,45.809,45809,-9.0800,3.9900,0.1000,9.9185,0.0327,0.0316,0.3382,65.00,89.63,76.50,-8.9765,3.8223,0.1986,9.7585
1,10,1,2,1,45.939,45939,-8.5200,4.4400,0.0000,9.6075,-0.0284,0.0774,0.0447,63.00,88.75,78.31,-8.9164,3.9037,0.1724,9.7350
1,10,1,2,1,46.070,46070,-8.6600,4.2600,0.0600,9.6513,-0.1058,0.0502,-0.3927,64.75,88.06,75.88,-8.8826,3.9506,0.1576,9.7228
1,10,1,2,1,46.200,46200,-8.4600,4.1200,0.0000,9.4099,-0.1713,-0.0131,0.0055,66.38,88.75,73.31,-8.8269,3.9729,0.1368,9.6808
1,10,1,2,1,46.373,46373,-9.2200,4.6400,-0.0200,10.3217,-0.0611,0.0196,-0.2356,65.75,89.94,72.94,-8.8787,4.0608,0.1162,9.7640
1,10,1,2,1,46.503,46503,-9.3600,3.8400,-0.1300,10.1179,0.0338,0.0567,-0.0971,67.56,89.19,71.00,-8.9421,4.0317,0.0837,9.8094
1,10,1,2,1,46.633,46633,-7.9400,3.6200,0.0000,8.7263,0.0785,0.0327,0.1549,66.38,87.94,72.44,-8.8101,3.9775,0.0727,9.6666
1,10,1,2,1,46.763,46763,-10.1600,4.0500,-0.0800,10.9378,0.0916,-0.0742,-0.7505,68.69,87.50,70.81,-8.9880,3.9870,0.0526,9.8327
1,10,1,2,1,46.893,46893,-8.2800,2.1600,0.4000,8.5664,0.0676,-0.0611,0.1265,71.94,88.13,68.25,-8.8947,3.7463,0.0984,9.6519
1,10,1,2,1,47.023,47023,-10.1200,3.4300,-0.0200,10.6855,0.0404,-0.0382,-0.1025,70.00,88.88,70.69,-9.0561,3.7046,0.0828,9.7849
1,10,1,2,1,47.154,47154,-10.3900,2.5300,-0.1200,10.6943,-0.0044,0.0131,-0.1789,72.69,88.94,68.13,-9.2319,3.5498,0.0560,9.8910
1,10,1,2,1,47.284,47284,-9.8400,3.3000,-0.2800,10.3824,-0.0600,0.0185,0.8159,70.00,89.25,70.56,-9.3120,3.5169,0.0118,9.9540
1,10,1,2,1,47.457,47457,-9.0100,3.8000,0.1400,9.7796,-0.0654,-0.0436,0.1254,66.69,91.63,73.25,-9.2722,3.5542,0.0287,9.9301
1,10,1,2,1,47.588,47588,-9.5800,4.4600,0.2000,10.5692,0.0087,0.0873,0.0611,64.81,91.06,74.88,-9.3128,3.6736,0.0512,10.0113
1,10,1,2,1,47.718,47718,-9.1400,3.7900,0.2700,9.8983,-0.0109,0.0578,0.1844,65.56,89.81,73.88,-9.2900,3.6889,0.0801,9.9959
1,10,1,2,1,47.850,47850,-8.2300,4.1500,-0.1600,9.2185,-0.0229,0.0022,0.1385,62.56,89.38,76.56,-9.1503,3.7497,0.0484,9.8889
1,10,1,2,1,47.981,47981,-9.6500,4.9900,0.2500,10.8667,-0.0556,-0.0458,0.0022,64.06,90.31,74.81,-9.2162,3.9131,0.0750,10.0128
1,10,1,2,1,48.116,48116,-7.9300,5.0800,-0.1200,9.4184,0.0469,-0.0295,0.3305,61.69,90.44,77.44,-9.0467,4.0669,0.0493,9.9189
1,10,1,2,1,48.247,48247,-7.8100,4.5400,0.3300,9.0397,0.0644,-0.0873,-0.2793,62.00,91.06,77.63,-8.8837,4.1292,0.0863,9.7969
1,10,1,2,1,48.378,48378,-8.8800,4.2700,-0.0100,9.8533,0.0338,-0.0633,-0.1331,63.88,91.88,76.38,-8.8832,4.1478,0.0736,9.8042
1,10,1,2,1,48.551,48551,-10.1600,3.8700,-0.4500,10.8814,0.0415,0.0218,0.0480,64.88,92.06,75.88,-9.0515,4.1112,0.0046,9.9414
1,10,1,2,1,48.682,48682,-7.9200,3.8200,0.0300,8.7932,-0.0927,0.0131,-0.2313,65.13,91.75,75.31,-8.9024,4.0728,0.0079,9.7898
1,10,1,2,1,48.812,48812,-8.1300,3.4900,-0.1800,8.8493,0.0327,0.1647,0.0033,66.00,90.13,74.19,-8.8006,3.9960,-0.0168,9.6653
1,10,1,2,1,48.943,48943,-9.0300,3.4700,0.2400,9.6767,0.0022,0.0218,0.1189,66.19,88.44,73.75,-8.8308,3.9267,0.0170,9.6645
1,10,1,2,1,49.073,49073,-9.6200,4.1700,0.5000,10.4968,0.0131,0.0687,-0.1647,65.50,88.00,74.25,-8.9348,3.9588,0.0807,9.7729
1,10,1,2,1,49.207,49207,-8.1000,3.0400,-0.4400,8.6629,-0.0556,0.0425,-0.0142,68.00,86.44,71.44,-8.8248,3.8377,0.0121,9.6232
1,10,1,2,1,49.338,49338,-7.3700,4.2300,0.0300,8.4977,-0.0011,0.0535,0.1516,65.31,86.44,73.81,-8.6331,3.8894,0.0144,9.4688
1,10,1,2,1,49.471,49471,-9.7900,4.6800,0.3000,10.8553,0.0633,-0.0142,-0.1374,67.13,86.00,72.25,-8.7856,3.9936,0.0521,9.6508
1,10,1,2,1,49.644,49644,-9.5800,3.5200,0.3100,10.2109,0.0316,-0.0349,-0.0818,67.88,85.44,71.94,-8.8902,3.9312,0.0860,9.7210
1,10,1,2,1,49.774,49774,-8.7700,3.2200,0.1900,9.3444,0.0109,0.0240,0.0982,67.13,85.56,72.69,-8.8744,3.8374,0.0997,9.6691
1,10,1,2,1,49.904,49904,-9.0600,3.5600,0.1800,9.7360,-0.0338,0.0382,0.1014,66.69,85.31,72.94,-8.8989,3.8009,0.1103,9.6772
1,10,1,2,1,50.034,50034,-8.6500,3.7200,0.3000,9.4208,-0.0622,0.0633,0.0044,66.13,84.81,73.00,-8.8661,3.7902,0.1353,9.6432
1,10,1,2,1,50.164,50164,-8.8600,3.9500,0.4800,9.7125,-0.1004,0.0687,-0.0785,66.44,84.38,71.94,-8.8653,3.8113,0.1807,9.6515
1,10,1,2,1,50.294,50294,-7.9700,3.7800,0.1800,8.8228,-0.1353,0.0371,0.0000,66.94,84.19,70.50,-8.7473,3.8072,0.1806,9.5416
