participant,rep,equipment_code,exercise_code,quality_code,timestamp,timestamp_ms,accelX,accelY,accelZ,accelMag,gyroX,gyroY,gyroZ,roll,pitch,yaw,filteredX,filteredY,filteredZ,filteredMag
1,1,1,2,1,00.000,0,-2.4700,9.6000,0.3100,9.9175,-0.0491,0.0382,0.1974,20.25,86.50,1.81,-2.8905,9.3537,0.3800,9.7975
1,1,1,2,1,00.130,130,-3.1400,8.9400,0.6000,9.4944,0.0065,0.0131,0.2378,20.63,86.63,1.06,-2.9234,9.2992,0.4090,9.7564
1,1,1,2,1,00.261,261,-3.6500,9.3900,0.3000,10.0789,-0.0382,-0.0240,-0.0753,20.94,86.81,1.06,-3.0192,9.3111,0.3946,9.7963
1,1,1,2,1,00.396,396,-2.7900,9.1000,0.4900,9.5307,-0.0065,-0.0382,-0.3033,19.44,86.94,2.81,-2.9890,9.2833,0.4072,9.7611
1,1,1,2,1,00.569,569,-3.3500,9.5400,0.1800,10.1127,-0.0065,-0.0545,-0.1342,21.19,87.06,1.50,-3.0365,9.3171,0.3772,9.8067
1,1,1,2,1,00.699,699,-2.5700,7.9500,0.3900,8.3642,0.0327,-0.0131,0.7232,19.88,87.19,3.06,-2.9751,9.1370,0.3789,9.6166
1,1,1,2,1,00.829,829,-5.2900,9.3300,0.3600,10.7314,-0.0545,-0.0927,-1.6581,22.44,87.50,0.94,-3.2801,9.1624,0.3764,9.7391
1,1,1,2,1,00.959,959,-3.1200,9.5500,0.3500,10.0528,0.0175,0.0120,0.7570,21.88,87.63,1.63,-3.2590,9.2135,0.3729,9.7800
1,1,1,2,1,01.089,1089,-1.3700,8.0200,0.6800,8.1645,0.0316,-0.0262,-0.4527,19.00,87.38,4.75,-3.0101,9.0562,0.4134,9.5523
1,1,1,2,1,01.219,1219,-4.1400,9.6800,-0.0800,10.5285,0.0076,0.0207,0.5541,23.06,87.63,0.94,-3.1590,9.1384,0.3484,9.6753
1,1,1,2,1,01.349,1349,-2.7700,8.2100,0.2300,8.6678,-0.0709,-0.0011,0.2236,19.94,87.69,4.19,-3.1077,9.0161,0.3328,9.5425
1,1,1,2,1,01.480,1480,-5.9800,9.6600,0.1300,11.3619,-0.0033,0.0229,-0.2040,22.94,87.94,1.13,-3.4862,9.1009,0.3061,9.7506
1,1,1,2,1,01.653,1653,-4.8600,9.9700,0.3300,11.0964,-0.0044,0.0436,-0.0982,21.00,87.63,2.81,-3.6672,9.2155,0.3092,9.9231
1,1,1,2,1,01.786,1786,-2.4800,8.9800,0.5600,9.3330,0.0676,0.0535,-0.3174,19.56,87.00,4.06,-3.5108,9.1844,0.3423,9.8385
1,1,1,2,1,01.917,1917,-3.0000,9.4900,0.2200,9.9553,0.0305,0.0644,0.1036,19.00,86.44,4.13,-3.4435,9.2247,0.3262,9.8518
1,1,1,2,1,02.051,2051,-3.8100,8.9300,0.6700,9.7319,-0.0044,0.0447,-0.2422,19.13,86.00,3.56,-3.4918,9.1859,0.3715,9.8342
1,1,1,2,1,02.181,2181,-2.8900,8.5800,0.6000,9.0735,0.0415,0.0164,-0.1254,17.88,85.75,4.56,-3.4125,9.1060,0.4016,9.7327
1,1,1,2,1,02.312,2312,-3.5900,10.2500,0.4400,10.8694,0.0284,-0.0164,-0.0709,17.56,85.81,4.81,-3.4359,9.2568,0.4066,9.8822
1,1,1,2,1,02.442,2442,-3.6700,9.1000,0.9100,9.8543,0.0404,-0.0175,0.3327,16.00,85.63,6.38,-3.4667,9.2361,0.4730,9.8766
1,1,1,2,1,02.573,2573,-2.6000,9.4400,0.4900,9.8038,-0.0120,-0.0316,0.4363,15.38,85.63,7.00,-3.3525,9.2630,0.4752,9.8625
1,1,1,2,1,02.746,2746,-3.8100,8.9000,0.6600,9.7037,0.0131,-0.0524,-0.1080,14.44,85.94,8.00,-3.4128,9.2151,0.4996,9.8395
1,1,1,2,1,02.877,2877,-1.4400,10.3500,0.6300,10.4687,-0.1440,-0.0382,0.6000,12.69,86.44,9.94,-3.1528,9.3647,0.5168,9.8947
1,1,1,2,1,03.008,3008,-1.7900,9.5600,0.8800,9.7659,-0.0251,-0.0415,0.4669,13.81,87.00,9.06,-2.9732,9.3904,0.5646,9.8661
1,1,1,2,1,03.138,3138,-3.1700,11.3100,0.1800,11.7472,-0.0873,-0.0513,-0.1942,14.13,87.69,8.81,-2.9992,9.6434,0.5139,10.1121
1,1,1,2,1,03.269,3269,-3.4200,10.0600,0.2300,10.6279,-0.0305,-0.0316,-0.2585,15.06,88.06,7.94,-3.0546,9.6983,0.4765,10.1791
1,2,1,2,1,03.404,3404,-2.0100,8.7900,0.2400,9.0201,0.0076,-0.0131,-0.2891,14.94,88.25,8.13,-2.9170,9.5786,0.4454,10.0228
1,2,1,2,1,03.534,3534,-2.7100,10.4500,0.0600,10.7958,-0.0120,0.0207,0.2160,17.19,88.44,5.69,-2.8897,9.6934,0.3946,10.1227
1,2,1,2,1,03.666,3666,-2.4800,9.1700,0.3400,9.5055,-0.0044,0.0425,0.2334,17.13,88.31,5.69,-2.8357,9.6244,0.3874,10.0410
1,2,1,2,1,03.838,3838,-0.3600,8.2900,0.7900,8.3353,0.0295,0.0327,0.2803,18.69,88.31,3.88,-2.5095,9.4486,0.4404,9.7861
1,2,1,2,1,03.968,3968,-1.6100,9.4600,0.5000,9.6090,-0.0600,0.0360,0.2923,20.00,88.75,2.31,-2.3909,9.4501,0.4483,9.7582
1,2,1,2,1,04.098,4098,-4.8300,8.7100,-0.1000,9.9601,-0.0785,0.0218,0.1691,20.56,89.38,1.81,-2.7124,9.3526,0.3760,9.7452
1,2,1,2,1,04.228,4228,-4.7400,10.1900,0.2600,11.2415,-0.0175,0.0185,-0.0295,19.00,89.88,3.50,-2.9795,9.4629,0.3607,9.9275
1,2,1,2,1,04.358,4358,-2.6400,8.6300,-0.3800,9.0328,-0.0415,0.0164,0.5651,17.56,90.13,4.75,-2.9348,9.3532,0.2631,9.8063
1,2,1,2,1,04.488,4488,-4.9400,8.2500,0.2300,9.6187,0.0251,-0.0109,-0.6469,19.00,90.19,3.50,-3.1990,9.2078,0.2588,9.7511
1,2,1,2,1,04.618,4618,-3.1400,9.2100,-0.7200,9.7572,0.0131,-0.0295,-0.8268,17.06,89.69,5.38,-3.1913,9.2081,0.1298,9.7463
1,2,1,2,1,04.748,4748,-2.3200,9.3500,0.2000,9.6356,0.0665,-0.0098,-0.1156,18.31,89.25,4.38,-3.0764,9.2268,0.1390,9.7272
1,2,1,2,1,04.921,4921,-2.3500,8.9700,0.0300,9.2728,0.0873,0.0087,0.2400,18.81,88.56,4.19,-2.9807,9.1930,0.1247,9.6649
1,2,1,2,1,05.051,5051,-2.9700,9.0300,0.2300,9.5087,0.0087,-0.0120,0.2422,19.00,88.25,4.06,-2.9793,9.1715,0.1386,9.6442
1,2,1,2,1,05.181,5181,-3.6800,9.3800,0.4200,10.0848,0.0207,-0.0196,-0.2149,19.81,88.06,3.44,-3.0716,9.1990,0.1756,9.6998
1,2,1,2,1,05.311,5311,-3.0700,8.5900,0.2900,9.1267,0.0240,-0.0262,0.0142,19.63,87.88,3.75,-3.0714,9.1187,0.1907,9.6240
1,2,1,2,1,05.441,5441,-3.2800,9.4500,0.2200,10.0055,-0.0371,-0.0305,-0.0545,19.75,88.00,3.69,-3.0989,9.1624,0.1946,9.6742
1,2,1,2,1,05.571,5571,-2.7800,8.8200,0.4100,9.2568,-0.0153,-0.0196,0.1265,19.06,88.19,4.56,-3.0569,9.1173,0.2230,9.6187
1,2,1,2,1,05.701,5701,-3.2900,9.3900,-0.0900,9.9501,-0.0240,-0.0229,0.1865,19.00,88.50,4.75,-3.0876,9.1532,0.1817,9.6616
1,2,1,2,1,05.831,5831,-2.6500,9.0000,0.2900,9.3865,-0.0556,-0.0251,-0.1091,18.38,88.75,5.19,-3.0299,9.1330,0.1960,9.6245
1,2,1,2,1,06.004,6004,-3.4200,9.4000,0.1800,10.0044,0.0349,-0.0055,-0.0578,18.94,89.00,4.63,-3.0813,9.1682,0.1939,9.6741
1,2,1,2,1,06.135,6135,-3.0900,8.8900,-0.1700,9.4132,-0.0011,0.0044,-0.0633,18.94,88.94,4.56,-3.0825,9.1315,0.1459,9.6389
1,2,1,2,1,06.265,6265,-3.4200,9.3700,0.1400,9.9756,0.0349,0.0175,-0.2465,19.13,88.81,4.25,-3.1270,9.1630,0.1451,9.6829
1,2,1,2,1,06.396,6396,-4.2700,9.4400,-0.1000,10.3613,0.0535,0.0382,0.1953,20.00,88.50,3.38,-3.2776,9.1995,0.1128,9.7665
1,2,1,2,1,06.527,6527,-1.8900,8.5800,0.1900,8.7878,0.0033,0.0142,-0.1571,18.44,88.13,4.88,-3.0947,9.1178,0.1230,9.6295
1,2,1,2,1,06.660,6660,-5.0500,9.2100,0.3200,10.5085,0.0567,0.0240,-0.3927,21.44,88.00,1.75,-3.3524,9.1300,0.1490,9.7271
1,2,1,2,1,06.791,6791,-2.3800,8.6100,0.6000,8.9530,0.0644,0.0240,-0.2411,18.75,87.50,4.31,-3.2243,9.0615,0.2084,9.6203
1,2,1,2,1,06.924,6924,-2.7400,10.1300,0.3300,10.4992,0.0196,0.0109,-0.2531,22.19,87.25,0.94,-3.1604,9.2023,0.2244,9.7324
1,2,1,2,1,07.097,7097,-1.4500,7.6300,0.3700,7.7754,0.0316,0.0393,0.8530,18.31,86.94,4.88,-2.9350,8.9951,0.2436,9.4650
1,2,1,2,1,07.228,7228,-3.1300,10.5900,0.0700,11.0431,-0.1069,-0.0545,-0.9719,22.38,87.31,0.94,-2.9607,9.2053,0.2207,9.6722
1,2,1,2,1,07.358,7358,0.2200,7.8200,0.5300,7.8410,-0.0251,0.0938,2.2809,18.94,87.50,4.38,-2.5416,9.0227,0.2615,9.3775
1,2,1,2,1,07.489,7489,-6.8600,8.5100,0.2100,10.9327,-0.0665,-0.0436,-0.5181,23.63,88.13,359.38,-3.1107,8.9551,0.2547,9.4834
1,2,1,2,1,07.619,7619,-4.2600,8.5900,0.1000,9.5888,-0.0884,0.0055,0.0960,20.06,88.63,2.81,-3.2621,8.9070,0.2343,9.4885
1,2,1,2,1,07.750,7750,-0.0600,9.5400,0.0500,9.5403,-0.0676,-0.0164,-0.4581,18.69,89.00,4.19,-2.8402,8.9904,0.2100,9.4307
1,2,1,2,1,07.881,7881,-4.6700,9.7000,-0.4100,10.7734,0.0469,0.0404,0.4560,21.75,89.00,1.38,-3.0813,9.0839,0.1283,9.5932
1,2,1,2,1,08.016,8016,-1.4500,8.4300,0.1400,8.5549,0.1134,0.0469,0.2607,18.31,88.13,4.81,-2.8663,8.9978,0.1299,9.4442
1,2,1,2,1,08.189,8189,-3.0800,10.2700,-0.1400,10.7228,0.0971,0.0611,0.3262,20.44,87.13,2.75,-2.8945,9.1654,0.0943,9.6121
1,2,1,2,1,08.319,8319,-1.8900,9.1300,0.7300,9.3521,0.0611,0.0218,0.0284,16.19,86.31,6.88,-2.7621,9.1607,0.1781,9.5698
1,2,1,2,1,08.449,8449,-3.8000,10.2100,0.9700,10.9373,0.0622,0.0131,0.3360,17.81,85.94,5.25,-2.8989,9.2990,0.2824,9.7445
1,2,1,2,1,08.579,8579,-2.1900,9.7600,0.9800,10.0506,0.0305,-0.0251,0.0065,14.56,85.69,8.50,-2.8055,9.3598,0.3743,9.7783
1,2,1,2,1,08.709,8709,-3.2000,10.4100,0.5600,10.9051,-0.0469,-0.0567,-0.1604,16.19,85.81,7.13,-2.8575,9.4982,0.3988,9.9267
1,2,1,2,1,08.839,8839,-2.5700,9.5200,0.6400,9.8815,-0.0687,-0.0829,-0.3992,16.50,86.19,7.00,-2.8196,9.5010,0.4306,9.9199
1,2,1,2,1,08.970,8970,-1.6400,8.9100,0.4000,9.0685,-0.0960,-0.0698,0.2378,17.31,86.94,6.50,-2.6641,9.4232,0.4266,9.8018
1,2,1,2,1,09.100,9100,-7.9500,10.0600,-0.3400,12.8266,-0.0785,-0.1113,-0.0262,21.63,87.94,2.38,-3.3607,9.5071,0.3256,10.0888
1,3,1,2,1,09.273,9273,0.0800,8.3300,0.9300,8.3821,-0.0393,-0.0589,0.2313,17.63,88.94,6.69,-2.9073,9.3520,0.4052,9.8018
1,3,1,2,1,09.405,9405,-2.1000,9.3100,-0.0900,9.5443,-0.0425,-0.0164,1.2086,17.63,89.56,6.94,-2.8009,9.3464,0.3399,9.7630
1,3,1,2,1,09.536,9536,-6.3600,9.0700,-0.3100,11.0820,-0.1058,-0.0960,-1.5010,20.13,90.25,4.81,-3.2699,9.3100,0.2543,9.8708
1,3,1,2,1,09.671,9671,-3.1800,8.2400,0.0700,8.8326,0.0120,-0.0055,0.0971,18.38,90.56,6.63,-3.2581,9.1690,0.2300,9.7334
1,3,1,2,1,09.801,9801,-5.8000,9.7100,-1.0000,11.3545,-0.0600,0.0142,-0.2618,20.50,90.94,4.38,-3.5930,9.2403,0.0679,9.9145
1,3,1,2,1,09.932,9932,-2.9600,9.3400,-0.3100,9.8027,-0.0076,0.0469,-0.2029,19.00,90.75,5.44,-3.5096,9.2534,0.0181,9.8967
1,3,1,2,1,10.063,10063,-4.7200,10.4000,-0.6000,11.4367,0.1156,0.1004,0.7669,18.44,90.13,5.63,-3.6691,9.4045,-0.0633,10.0951
1,3,1,2,1,10.193,10193,-5.6000,7.0900,-0.1600,9.0362,0.1865,0.1549,0.8825,20.69,89.00,3.13,-3.9235,9.0995,-0.0761,9.9097
1,3,1,2,1,10.366,10366,-5.5200,9.7900,-1.3000,11.3139,-0.1080,-0.0164,-1.8882,20.75,87.75,2.44,-4.1339,9.1905,-0.2373,10.0802
1,3,1,2,1,10.497,10497,-1.8800,8.5400,1.2300,8.8306,0.0785,0.0349,0.8094,17.81,87.44,5.06,-3.8369,9.1048,-0.0440,9.8803
1,3,1,2,1,10.627,10627,-4.8000,9.2800,0.5200,10.4608,0.0262,-0.0044,-0.6436,20.00,87.31,3.13,-3.9638,9.1279,0.0303,9.9514
1,3,1,2,1,10.758,10758,-2.7800,9.0000,0.2700,9.4234,-0.0055,0.0153,0.2956,18.94,86.94,4.25,-3.8078,9.1110,0.0619,9.8749
1,3,1,2,1,10.889,10889,-3.3700,8.8200,0.8000,9.4757,0.0327,-0.0295,-0.4745,19.06,86.81,4.13,-3.7501,9.0727,0.1592,9.8185
1,3,1,2,1,11.024,11024,-3.3800,9.4300,0.1500,10.0186,0.0229,0.0098,0.5640,19.44,86.75,3.69,-3.7014,9.1198,0.1580,9.8435
1,3,1,2,1,11.154,11154,-2.4200,8.8800,0.2000,9.2060,-0.0284,-0.0327,0.0196,17.13,86.75,6.00,-3.5325,9.0882,0.1635,9.7519
1,3,1,2,1,11.286,11286,-4.1200,9.5600,0.4800,10.4211,0.0142,-0.0371,0.2847,18.50,87.06,4.88,-3.6099,9.1503,0.2052,9.8388
1,3,1,2,1,11.458,11458,-4.4700,9.0900,0.3800,10.1367,0.0185,-0.0513,-0.3512,19.38,87.19,4.13,-3.7233,9.1424,0.2282,9.8741
1,3,1,2,1,11.588,11588,-3.0700,9.1900,0.3000,9.6939,-0.0055,-0.0284,-0.0829,19.38,87.25,4.38,-3.6372,9.1487,0.2377,9.8480
1,3,1,2,1,11.718,11718,-4.2100,9.0900,0.2300,10.0202,0.0207,-0.0207,0.0153,20.44,87.25,3.44,-3.7127,9.1409,0.2367,9.8690
1,3,1,2,1,11.848,11848,-2.9200,8.5400,0.2700,9.0294,-0.0109,-0.0120,-0.0764,20.81,87.31,3.19,-3.6082,9.0617,0.2411,9.7567
1,3,1,2,1,11.978,11978,-3.9700,8.7400,0.2700,9.6032,-0.0087,0.0033,0.0262,21.44,87.38,2.63,-3.6559,9.0193,0.2449,9.7352
1,3,1,2,1,12.108,12108,-3.0000,8.7600,0.5800,9.2776,0.0022,0.0284,0.0447,22.38,87.50,1.69,-3.5695,8.9852,0.2890,9.6725
1,3,1,2,1,12.238,12238,-4.7300,9.6300,0.1700,10.7303,0.0087,0.0218,-0.3796,24.00,87.44,359.88,-3.7224,9.0701,0.2734,9.8081
1,3,1,2,1,12.368,12368,-3.1900,8.1200,0.1300,8.7251,0.0098,0.0393,0.1331,21.63,87.13,2.38,-3.6522,8.9449,0.2545,9.6652
1,3,1,2,1,12.541,12541,-5.8000,9.1300,0.1500,10.8176,0.0109,0.0458,0.1767,25.44,87.00,358.25,-3.9353,8.9693,0.2407,9.7976
1,3,1,2,1,12.671,12671,-3.0500,8.6100,0.4500,9.1453,0.0120,0.0327,-0.0415,23.31,86.75,0.13,-3.8186,8.9220,0.2683,9.7085
1,3,1,2,1,12.801,12801,-3.5800,8.1600,0.4700,8.9232,0.0251,0.0524,-0.1396,23.63,86.50,359.56,-3.7872,8.8216,0.2949,9.6047
1,3,1,2,1,12.931,12931,-5.2800,8.4400,0.6800,9.9787,-0.0065,0.0545,-0.1527,24.38,86.25,358.63,-3.9839,8.7713,0.3456,9.6398
1,3,1,2,1,13.061,13061,-1.0000,8.8300,0.4200,8.8964,-0.0142,0.0589,0.6796,21.31,86.13,1.38,-3.5907,8.7790,0.3554,9.4916
1,3,1,2,1,13.191,13191,-5.3100,8.9100,0.9300,10.4139,0.0153,0.0164,0.0295,23.06,86.25,359.44,-3.8172,8.7963,0.4311,9.5985
1,3,1,2,1,13.321,13321,-5.5100,9.3300,0.5800,10.8511,-0.0436,0.0284,0.1189,22.00,86.56,0.50,-4.0403,8.8666,0.4507,9.7542
1,3,1,2,1,13.451,13451,-0.8900,8.8900,0.4600,8.9463,-0.0731,0.0665,0.5923,18.81,86.94,3.31,-3.6252,8.8697,0.4520,9.5926
1,3,1,2,1,13.624,13624,-1.2100,9.4900,0.3500,9.5732,-0.0633,0.0524,0.3851,18.75,87.94,2.44,-3.3069,8.9514,0.4385,9.5528
1,3,1,2,1,13.755,13755,-2.3100,10.1900,0.0800,10.4489,-0.0753,0.0480,0.2171,16.81,88.44,4.06,-3.1755,9.1146,0.3913,9.6599
1,3,1,2,1,13.885,13885,-1.7800,10.5200,0.1100,10.6701,-0.0273,0.0622,0.3218,15.63,88.69,4.75,-2.9916,9.2998,0.3542,9.7756
1,3,1,2,1,14.018,14018,-5.2200,11.1300,0.1600,12.2943,0.0120,0.0218,-0.3327,17.25,88.69,2.69,-3.2853,9.5410,0.3286,10.0961
1,3,1,2,1,14.149,14149,-3.7800,10.9100,-0.0200,11.5463,0.0633,-0.0240,-0.4712,17.13,88.38,2.19,-3.3505,9.7214,0.2827,10.2865
1,4,1,2,1,14.283,14283,-2.1500,9.0200,0.0200,9.2727,0.0971,-0.0120,-0.0578,17.69,87.69,1.81,-3.1923,9.6290,0.2481,10.1474
1,4,1,2,1,14.413,14413,-4.7500,8.5100,0.2900,9.7502,0.0807,-0.0622,-0.3425,19.75,87.00,0.19,-3.3976,9.4815,0.2536,10.0751
1,4,1,2,1,14.544,14544,-5.1700,9.0500,0.5700,10.4382,0.0316,-0.0829,-0.2313,20.19,86.75,0.31,-3.6311,9.4247,0.2953,10.1043
1,4,1,2,1,14.717,14717,-2.3900,8.7400,0.4300,9.0711,-0.0207,-0.1058,0.1102,19.69,87.06,1.75,-3.4676,9.3344,0.3130,9.9626
1,4,1,2,1,14.848,14848,-4.4400,8.2400,0.1500,9.3613,-0.0491,-0.1254,-0.0011,20.19,87.50,2.00,-3.5957,9.1902,0.2916,9.8729
1,4,1,2,1,14.978,14978,-3.8000,8.2500,0.5800,9.1016,0.0196,-0.0982,0.4603,19.50,88.13,3.75,-3.6226,9.0663,0.3296,9.7688
1,4,1,2,1,15.109,15109,-2.1500,9.4700,0.1100,9.7116,-0.0404,-0.0611,-0.1691,18.75,88.69,4.75,-3.4286,9.1195,0.3006,9.7474
1,4,1,2,1,15.239,15239,-2.7500,9.5800,-0.4900,9.9789,0.0251,-0.0262,0.1396,18.63,88.88,5.06,-3.3392,9.1802,0.1964,9.7706
1,4,1,2,1,15.370,15370,-2.4000,8.1200,0.4900,8.4814,0.0535,-0.0295,-0.1680,16.44,88.75,7.31,-3.2154,9.0405,0.2351,9.5982
1,4,1,2,1,15.501,15501,-4.4900,9.1200,-0.3300,10.1707,-0.0535,0.0000,0.3687,18.06,88.88,5.69,-3.3834,9.0510,0.1607,9.6640
1,4,1,2,1,15.636,15636,-3.3800,9.0900,0.5400,9.7131,-0.0044,0.0164,-0.3403,18.44,88.94,5.00,-3.3829,9.0561,0.2106,9.6696
1,4,1,2,1,15.809,15809,-2.6800,8.5700,-0.2300,8.9822,-0.0262,0.0295,0.0142,17.38,88.81,5.75,-3.2903,8.9921,0.1526,9.5763
1,4,1,2,1,15.939,15939,-4.7300,9.7000,0.2000,10.7937,-0.0436,-0.0011,-0.4429,18.81,89.06,4.19,-3.4800,9.0853,0.1588,9.7303
1,4,1,2,1,16.069,16069,-2.5700,8.7900,0.0300,9.1581,-0.0109,0.0436,0.3992,17.63,89.13,5.13,-3.3601,9.0464,0.1419,9.6513
1,4,1,2,1,16.199,16199,-3.6700,9.5600,-0.0600,10.2404,-0.0480,0.0131,-0.4374,18.50,89.25,3.88,-3.4009,9.1141,0.1153,9.7286
1,4,1,2,1,16.329,16329,-2.8700,9.1400,0.0000,9.5800,0.0065,0.0535,0.4080,18.06,89.38,3.88,-3.3310,9.1175,0.1001,9.7074
1,4,1,2,1,16.459,16459,-3.3100,9.0300,0.0000,9.6175,-0.0633,0.0098,-0.6021,18.88,89.38,2.69,-3.3282,9.1060,0.0869,9.6955
1,4,1,2,1,16.590,16590,-3.3400,9.2300,0.0000,9.8157,-0.0076,0.0175,-0.0949,18.81,89.44,2.56,-3.3298,9.1223,0.0754,9.7113
1,4,1,2,1,16.720,16720,-3.3400,9.1800,0.0000,9.7687,-0.0120,0.0175,-0.0524,18.94,89.44,2.38,-3.3311,9.1299,0.0655,9.7189
1,4,1,2,1,16.893,16893,-3.6700,8.7900,0.0000,9.5254,0.0295,0.0273,0.1047,19.44,89.44,1.81,-3.3758,9.0851,0.0569,9.6922
1,4,1,2,1,17.024,17024,-2.7700,8.5100,0.0600,8.9497,0.0185,0.0218,-0.0927,19.75,89.25,1.56,-3.2959,9.0093,0.0573,9.5935
1,4,1,2,1,17.155,17155,-5.3800,8.7100,-0.1600,10.2389,0.0109,-0.0131,-0.1069,21.88,89.13,359.38,-3.5706,8.9699,0.0286,9.6545
1,4,1,2,1,17.287,17287,-5.5300,8.9000,-0.4000,10.4857,-0.0349,-0.0589,-0.9916,21.63,89.00,359.94,-3.8288,8.9607,-0.0278,9.7444
1,4,1,2,1,17.418,17418,-4.0200,9.7200,0.1600,10.5197,0.0076,-0.0316,0.2858,22.44,89.00,359.31,-3.8540,9.0607,-0.0031,9.8463
1,4,1,2,1,17.552,17552,-2.6100,8.7800,-0.1300,9.1606,-0.0011,-0.0273,0.0044,20.75,88.75,1.63,-3.6900,9.0237,-0.0198,9.7491
1,4,1,2,1,17.683,17683,-2.5600,8.9200,0.3500,9.2867,-0.0022,-0.0196,-0.3523,20.88,88.50,1.75,-3.5411,9.0101,0.0289,9.6810
1,4,1,2,1,17.813,17813,-3.7900,10.2800,0.2600,10.9595,0.0938,0.0109,0.2389,19.50,88.06,3.31,-3.5739,9.1774,0.0594,9.8489
1,4,1,2,1,17.986,17986,-2.7700,9.2100,0.0700,9.6178,0.0185,0.0305,0.4025,17.75,87.44,5.13,-3.4680,9.1817,0.0608,9.8150
1,4,1,2,1,18.117,18117,-3.5800,9.3100,0.2400,9.9775,0.0360,0.0120,-0.1244,18.38,87.19,4.44,-3.4828,9.1986,0.0844,9.8362
1,4,1,2,1,18.247,18247,-4.2300,10.0200,-0.0100,10.8763,-0.0055,0.0349,0.0055,18.13,87.13,4.44,-3.5812,9.3069,0.0720,9.9724
1,4,1,2,1,18.378,18378,-2.0200,8.4300,0.2900,8.6735,-0.0545,0.0524,-0.2520,16.69,87.00,5.25,-3.3755,9.1913,0.1007,9.7920
1,4,1,2,1,18.509,18509,-4.5400,10.2100,0.6400,11.1922,-0.0087,0.0665,0.3600,18.44,87.06,3.31,-3.5289,9.3255,0.1718,9.9724
1,4,1,2,1,18.644,18644,-2.7700,9.2600,0.3700,9.6725,-0.0022,0.0851,0.4451,16.19,86.94,5.00,-3.4289,9.3169,0.1979,9.9298
1,4,1,2,1,18.774,18774,-2.1600,10.8900,0.9200,11.1402,0.0273,0.0393,-0.3611,15.56,86.88,5.13,-3.2617,9.5242,0.2930,10.0715
1,4,1,2,1,18.906,18906,-1.4800,9.7600,0.3100,9.8764,0.0447,0.0284,-0.2509,16.19,86.63,4.00,-3.0269,9.5553,0.2953,10.0276
1,4,1,2,1,19.079,19079,-3.4000,10.0600,0.3800,10.6258,-0.0142,-0.0131,-0.2498,17.56,86.63,2.44,-3.0761,9.6218,0.3064,10.1062
1,5,1,2,1,19.209,19209,-2.0500,9.7600,0.5400,9.9876,-0.0164,-0.0404,-0.0524,16.38,86.69,3.75,-2.9409,9.6400,0.3372,10.0842
1,5,1,2,1,19.339,19339,-2.8200,8.9100,0.6800,9.3703,0.0273,-0.0524,0.3992,18.31,86.94,2.13,-2.9250,9.5438,0.3824,9.9893
1,5,1,2,1,19.470,19470,-3.3200,8.3700,0.0000,9.0044,-0.0698,-0.0982,-0.2487,19.25,87.44,1.88,-2.9770,9.3891,0.3320,9.8554
1,5,1,2,1,19.600,19600,-2.1100,8.9600,0.6000,9.2246,-0.0884,-0.1134,-0.1713,18.69,88.13,3.00,-2.8628,9.3326,0.3673,9.7687
1,5,1,2,1,19.731,19731,-2.8500,9.2800,0.2400,9.7107,-0.0109,-0.0818,0.1134,20.13,88.88,2.31,-2.8611,9.3256,0.3505,9.7610
1,5,1,2,1,19.862,19862,-3.1300,9.2900,-0.3500,9.8094,-0.0284,-0.0611,-0.4821,20.25,89.06,2.56,-2.8965,9.3210,0.2582,9.7640
1,5,1,2,1,19.995,19995,-5.2300,9.1800,-0.2900,10.5693,0.0993,-0.0065,-0.1920,21.38,88.75,2.00,-3.2040,9.3024,0.1860,9.8405
1,5,1,2,1,20.168,20168,-4.5100,10.1600,-0.1900,11.1176,0.0611,0.0164,-0.1854,22.50,88.13,1.06,-3.3761,9.4154,0.1364,10.0033
1,5,1,2,1,20.299,20299,-2.3100,5.9200,0.0900,6.3554,0.1680,0.1004,1.6384,18.06,87.19,5.31,-3.2356,8.9548,0.1303,9.5223
1,5,1,2,1,20.430,20430,-5.3600,9.9500,0.1700,11.3031,-0.0785,-0.0785,-2.5994,21.56,87.00,1.88,-3.5156,9.0859,0.1355,9.7433
1,5,1,2,1,20.560,20560,-1.8800,7.6800,0.7900,7.9461,0.1407,0.0742,1.3701,19.00,86.63,4.44,-3.3000,8.9007,0.2218,9.4953
1,5,1,2,1,20.691,20691,-6.6900,9.8200,-0.5500,11.8950,-0.2083,-0.0644,-1.6635,21.31,86.69,2.06,-3.7467,9.0218,0.1201,9.7696
1,5,1,2,1,20.821,20821,-1.9700,8.7100,0.8400,8.9694,0.0698,0.0087,0.5716,20.00,86.88,3.38,-3.5126,8.9807,0.2150,9.6456
1,5,1,2,1,20.951,20951,-3.7800,9.8400,-0.0300,10.5411,-0.0644,-0.0295,-0.3316,20.31,87.13,2.94,-3.5479,9.0940,0.1827,9.7632
1,5,1,2,1,21.081,21081,-4.2900,8.7300,0.5200,9.7410,-0.0033,0.0065,0.5465,20.44,87.13,2.88,-3.6456,9.0460,0.2271,9.7556
1,5,1,2,1,21.254,21254,-4.7400,9.6400,0.3600,10.7483,0.0207,-0.0153,-0.0087,20.94,87.44,2.44,-3.7899,9.1243,0.2446,9.8831
1,5,1,2,1,21.385,21385,-2.9900,8.8200,0.3300,9.3189,-0.0087,-0.0120,-0.0829,19.13,87.44,4.25,-3.6845,9.0842,0.2559,9.8063
1,5,1,2,1,21.516,21516,-2.7600,9.6300,-0.0500,10.0178,-0.0044,-0.0011,0.0818,19.56,87.38,3.56,-3.5626,9.1561,0.2156,9.8272
1,5,1,2,1,21.647,21647,-3.0100,8.8500,0.4100,9.3569,0.0436,0.0011,0.1865,19.63,87.31,3.50,-3.4898,9.1158,0.2412,9.7639
1,5,1,2,1,21.778,21778,-4.1000,9.2800,0.2000,10.1473,0.0447,-0.0022,0.0273,20.25,87.19,2.94,-3.5702,9.1374,0.2358,9.8130
1,5,1,2,1,21.913,21913,-2.8700,8.5200,0.2700,8.9945,0.0218,-0.0022,-0.1767,19.69,86.94,3.69,-3.4779,9.0560,0.2403,9.7039
1,5,1,2,1,22.044,22044,-4.4800,10.1200,0.4300,11.0756,0.0153,0.0000,0.0480,21.56,86.94,1.81,-3.6100,9.1962,0.2653,9.8830
1,5,1,2,1,22.174,22174,-2.3000,7.5800,0.3400,7.9286,0.0502,0.0524,0.7450,19.56,86.56,4.06,-3.4374,8.9833,0.2751,9.6224
1,5,1,2,1,22.347,22347,-5.7800,9.3900,0.3400,11.0316,0.0349,0.0349,0.2673,23.44,86.56,0.25,-3.7461,9.0369,0.2837,9.7866
1,5,1,2,1,22.478,22478,-3.3100,7.7100,0.6300,8.4141,-0.0338,-0.0022,-0.2760,20.56,86.50,2.81,-3.6886,8.8620,0.3293,9.6047
1,5,1,2,1,22.608,22608,-5.3400,9.4900,0.2600,10.8924,-0.0862,0.0229,0.0109,23.94,86.88,359.50,-3.9062,8.9448,0.3202,9.7658
1,5,1,2,1,22.739,22739,-2.8100,8.6500,0.4000,9.1038,0.0033,0.0676,0.8945,21.94,86.88,1.44,-3.7618,8.9059,0.3307,9.6735
1,5,1,2,1,22.870,22870,-2.0200,7.5700,0.5600,7.8549,0.0240,0.0502,0.2062,21.06,86.75,2.06,-3.5322,8.7299,0.3609,9.4243
1,5,1,2,1,23.003,23003,-4.2900,10.1100,0.0000,10.9825,-0.0404,0.0382,-0.0960,23.50,86.75,359.56,-3.6321,8.9117,0.3134,9.6286
1,5,1,2,1,23.134,23134,-5.6700,8.6900,0.3200,10.3811,0.0240,0.0327,0.0022,23.13,86.50,359.69,-3.9006,8.8825,0.3142,9.7063
1,5,1,2,1,23.267,23267,-3.8500,8.9400,0.2300,9.7365,-0.0742,0.0120,-0.3098,22.44,86.56,0.06,-3.8940,8.8901,0.3031,9.7102
1,5,1,2,1,23.440,23440,-2.9400,8.4400,0.7600,8.9697,0.0164,0.0164,-0.0087,24.31,86.75,357.81,-3.7683,8.8308,0.3633,9.6081
1,5,1,2,1,23.571,23571,-4.7800,9.1700,0.2300,10.3436,-0.0207,0.0491,0.4167,23.94,86.69,358.19,-3.9016,8.8755,0.3458,9.7013
1,5,1,2,1,23.701,23701,-3.4500,9.4700,0.5400,10.0933,0.0415,0.0393,-0.2323,23.31,86.38,358.63,-3.8421,8.9538,0.3714,9.7504
1,5,1,2,1,23.832,23832,-5.3200,9.2100,0.4800,10.6469,0.0774,0.0567,-0.1047,22.81,85.75,359.06,-4.0368,8.9876,0.3857,9.8601
1,5,1,2,1,23.962,23962,-4.5500,9.8300,0.4600,10.8417,0.0633,0.0480,0.0022,21.38,85.06,0.31,-4.1044,9.0986,0.3955,9.9894
1,5,1,2,1,24.093,24093,-2.5500,8.9000,0.6700,9.2823,0.0905,0.0567,0.4483,19.88,84.56,1.50,-3.8996,9.0724,0.4316,9.8844
1,5,1,2,1,24.224,24224,-1.9700,8.4600,1.0000,8.7437,-0.0087,-0.0076,-0.1222,18.19,84.31,3.06,-3.6453,8.9917,0.5065,9.7158
1,5,1,2,1,24.359,24359,-3.9600,11.2400,1.1700,11.9745,0.0087,-0.0153,0.2793,18.13,84.63,3.13,-3.6868,9.2880,0.5940,10.0106
1,5,1,2,1,24.532,24532,-3.7800,10.2200,0.9100,10.9346,-0.0753,-0.0796,-0.0818,19.50,85.25,1.94,-3.6991,9.4108,0.6356,10.1317
1,5,1,2,1,24.662,24662,-5.8700,8.6500,0.2400,10.4564,-0.0982,-0.1102,-0.5640,21.63,86.00,0.13,-3.9852,9.3105,0.5835,10.1444
1,5,1,2,1,24.792,24792,-7.5800,9.9600,-0.3100,12.5201,-0.0796,-0.0873,-0.1331,23.88,86.88,358.56,-4.4589,9.3961,0.4657,10.4108
1,6,1,2,1,24.922,24922,-3.2000,8.8500,-0.0100,9.4108,-0.0491,-0.0480,0.2127,22.81,87.44,0.06,-4.2930,9.3242,0.4031,10.2729
1,6,1,2,1,25.052,25052,-4.2100,8.6700,-0.1100,9.6387,-0.1025,-0.0633,-0.0240,23.44,87.94,359.75,-4.2820,9.2380,0.3354,10.1877
1,6,1,2,1,25.182,25182,-5.9100,9.2500,0.2100,10.9788,0.0000,-0.0305,0.0676,25.19,88.38,358.31,-4.4966,9.2395,0.3189,10.2806
1,6,1,2,1,25.312,25312,-3.0900,9.4300,0.5800,9.9403,0.0567,0.0120,0.0404,23.63,88.25,0.06,-4.3112,9.2646,0.3533,10.2247
1,6,1,2,1,25.443,25443,-5.4300,9.3800,0.1100,10.8389,0.0753,0.0589,0.8770,24.94,87.81,358.94,-4.4586,9.2798,0.3213,10.3004
1,6,1,2,1,25.616,25616,-1.7300,5.3700,0.0000,5.6418,0.0316,0.0065,0.6403,21.69,87.19,2.50,-4.0991,8.7646,0.2789,9.6798
1,6,1,2,1,25.749,25749,-8.3600,9.5100,0.0000,12.6621,-0.0982,-0.1244,-1.6090,24.31,87.69,0.13,-4.6606,8.8628,0.2422,10.0165
1,6,1,2,1,25.879,25879,-1.7800,8.6000,0.4900,8.7959,0.0011,0.0000,0.8290,20.94,87.88,3.63,-4.2810,8.8282,0.2748,9.8153
1,6,1,2,1,26.013,26013,-5.2100,8.8600,0.2800,10.2821,0.0305,-0.0229,0.4603,22.31,88.13,2.63,-4.4034,8.8324,0.2755,9.8731
1,6,1,2,1,26.144,26144,-3.7600,8.9100,0.1000,9.6714,-0.0295,-0.0360,0.1527,20.63,88.44,4.31,-4.3186,8.8426,0.2524,9.8441
1,6,1,2,1,26.275,26275,-3.9600,10.0100,-0.2000,10.7667,-0.0371,-0.0175,-0.1124,20.56,88.88,4.38,-4.2714,8.9965,0.1928,9.9608
1,6,1,2,1,26.425,26425,-2.2500,8.8900,0.0200,9.1703,-0.0785,-0.0055,0.0044,19.44,89.13,5.25,-4.0050,8.9824,0.1700,9.8363
1,6,1,2,1,26.556,26556,-4.0400,9.5300,0.0200,10.3510,-0.0469,0.0142,-0.0131,21.00,89.50,3.63,-4.0096,9.0546,0.1502,9.9038
1,6,1,2,1,26.728,26728,-2.9800,8.6800,-0.1500,9.1785,0.0011,0.0251,-0.0360,20.63,89.50,3.69,-3.8739,9.0052,0.1107,9.8038
1,6,1,2,1,26.858,26858,-3.6400,9.2100,-0.1900,9.9050,0.0109,0.0207,0.0764,21.19,89.56,3.06,-3.8431,9.0322,0.0711,9.8161
1,6,1,2,1,26.988,26988,-2.6300,8.2400,0.1100,8.6502,-0.0065,0.0153,-0.0796,21.25,89.50,3.00,-3.6832,8.9278,0.0762,9.6581
1,6,1,2,1,27.118,27118,-5.1200,9.0800,0.1000,10.4245,0.0196,0.0131,0.0720,22.75,89.56,1.44,-3.8726,8.9479,0.0793,9.7503
1,6,1,2,1,27.248,27248,-3.7900,8.3300,0.0800,9.1520,-0.0142,-0.0076,-0.3196,22.19,89.50,1.88,-3.8617,8.8664,0.0794,9.6712
1,6,1,2,1,27.378,27378,-4.4600,8.9700,-0.2400,10.0205,0.0044,-0.0109,-0.1756,23.50,89.69,0.63,-3.9405,8.8801,0.0373,9.7152
1,6,1,2,1,27.528,27528,-6.3600,10.0000,-0.6200,11.8674,-0.0425,-0.0120,-0.1320,24.88,89.88,359.31,-4.2594,9.0277,-0.0493,9.9822
1,6,1,2,1,27.659,27659,-3.1500,7.2200,0.0800,7.8776,0.0415,0.0404,1.2359,20.56,89.50,3.88,-4.1132,8.7895,-0.0323,9.7043
1,6,1,2,1,27.831,27831,-5.8900,9.7000,-0.1300,11.3490,0.0993,0.0295,0.1014,24.81,89.38,359.63,-4.3473,8.9095,-0.0451,9.9136
1,6,1,2,1,27.961,27961,-3.1200,8.9700,0.1700,9.4986,0.1309,0.0415,0.5934,22.81,88.56,2.19,-4.1856,8.9174,-0.0168,9.8509
1,6,1,2,1,28.091,28091,-3.2200,9.2600,0.1600,9.8052,0.1167,0.0382,0.2913,23.50,87.63,1.56,-4.0583,8.9626,0.0065,9.8386
1,6,1,2,1,28.221,28221,-5.8100,8.9300,0.1700,10.6550,0.1516,0.0207,-0.0676,24.94,86.56,0.31,-4.2892,8.9583,0.0281,9.9322
1,6,1,2,1,28.351,28351,-4.0700,8.6700,0.3800,9.5853,0.1320,0.0011,-0.0665,24.19,85.50,1.50,-4.2603,8.9203,0.0744,9.8857
1,6,1,2,1,28.481,28481,-2.7600,8.4600,1.1000,8.9666,0.0556,0.0218,0.1625,24.25,84.81,1.69,-4.0626,8.8596,0.2096,9.7489
1,6,1,2,1,28.612,28612,-3.9900,8.8400,1.0800,9.7587,0.0371,0.0316,-0.0491,24.25,84.31,1.63,-4.0530,8.8570,0.3243,9.7457
1,6,1,2,1,28.742,28742,-4.4000,8.6400,0.9600,9.7433,-0.0753,0.0502,0.3545,24.19,84.13,1.38,-4.0987,8.8284,0.4080,9.7421
1,6,1,2,1,28.915,28915,-4.4100,8.5500,1.0200,9.6742,-0.0295,0.0720,0.5018,23.38,84.50,1.63,-4.1398,8.7918,0.4887,9.7299
1,6,1,2,1,29.046,29046,-3.5800,9.1600,0.9600,9.8815,-0.0785,0.0665,0.0120,23.75,85.06,0.63,-4.0660,8.8403,0.5508,9.7461
1,6,1,2,1,29.176,29176,-4.9000,9.2800,0.7000,10.5175,-0.1014,0.0338,-0.2640,21.88,85.50,2.00,-4.1759,8.8982,0.5705,9.8459
1,6,1,2,1,29.307,29307,-4.4500,10.1800,0.7200,11.1334,-0.0349,0.0622,0.3316,21.56,85.94,1.44,-4.2120,9.0671,0.5902,10.0151
1,6,1,2,1,29.438,29438,-3.4200,10.2600,0.1600,10.8162,-0.0589,0.0164,-0.1833,21.56,86.31,1.00,-4.1077,9.2243,0.5335,10.1116
1,6,1,2,1,29.573,29573,-4.3500,9.6100,0.1000,10.5492,-0.0262,-0.0218,-0.1342,23.19,86.50,359.44,-4.1396,9.2751,0.4764,10.1682
1,6,1,2,1,29.703,29703,-5.6700,9.0200,0.6800,10.6758,0.0415,-0.0164,0.1854,25.06,86.56,357.63,-4.3413,9.2415,0.5032,10.2228
1,7,1,2,1,29.835,29835,-2.0600,8.6900,0.1900,8.9328,0.1145,-0.0502,0.3600,23.13,86.25,359.94,-4.0406,9.1688,0.4619,10.0303
1,7,1,2,1,30.007,30007,-2.6000,8.7400,0.3700,9.1260,0.0436,-0.1167,0.0425,23.88,86.38,0.13,-3.8508,9.1123,0.4498,9.9028
1,7,1,2,1,30.137,30137,-3.7300,9.6500,0.1600,10.3470,-0.0873,-0.1331,0.2782,24.94,87.00,359.94,-3.8349,9.1832,0.4116,9.9603
1,7,1,2,1,30.267,30267,-5.3000,9.4000,0.1600,10.7924,-0.0371,-0.1494,-0.5454,25.19,87.69,0.56,-4.0280,9.2118,0.3785,10.0610
1,7,1,2,1,30.397,30397,-5.2300,9.3100,-0.0200,10.6785,0.0229,-0.0840,-0.6087,26.00,88.13,0.44,-4.1863,9.2247,0.3260,10.1354
1,7,1,2,1,30.527,30527,-3.7300,8.5000,0.3900,9.2906,0.0055,-0.0469,-0.4581,25.75,88.13,1.25,-4.1262,9.1292,0.3344,10.0240
1,7,1,2,1,30.657,30657,-6.6000,7.3700,0.0800,9.8936,0.0927,0.0055,-0.1178,27.44,87.94,359.88,-4.4522,8.8974,0.3009,9.9537
1,7,1,2,1,30.788,30788,-2.1100,7.6200,-0.0400,7.9068,0.0076,0.0087,-0.3894,22.69,87.38,4.56,-4.1436,8.7291,0.2560,9.6660
1,7,1,2,1,30.918,30918,-5.9700,8.6900,0.1700,10.5445,0.0153,0.0698,0.4963,26.38,86.94,0.81,-4.3842,8.7239,0.2446,9.7667
1,7,1,2,1,31.091,31091,-4.2100,8.1100,0.7100,9.1652,0.0076,0.0087,-0.5149,24.88,86.50,2.06,-4.3613,8.6430,0.3060,9.6859
1,7,1,2,1,31.221,31221,-4.0800,9.5200,0.3600,10.3637,-0.0109,0.0425,0.3534,24.94,86.63,1.69,-4.3242,8.7586,0.3131,9.7729
1,7,1,2,1,31.352,31352,-4.7400,8.6900,0.4600,9.9094,-0.0316,0.0131,-0.4538,24.94,86.56,1.13,-4.3790,8.7495,0.3324,9.7898
1,7,1,2,1,31.482,31482,-4.7300,8.7600,0.4800,9.9670,-0.0044,0.0153,0.0316,25.56,86.69,0.38,-4.4253,8.7509,0.3519,9.8125
1,7,1,2,1,31.613,31613,-4.2200,9.0500,0.0300,9.9856,-0.0971,0.0153,-0.0818,25.25,86.94,0.69,-4.3982,8.7903,0.3095,9.8341
1,7,1,2,1,31.744,31744,-4.8400,8.5700,0.6000,9.8606,0.0087,0.0196,0.2858,25.44,87.13,0.38,-4.4564,8.7613,0.3477,9.8357
1,7,1,2,1,31.879,31879,-3.9400,8.6400,0.1900,9.4979,-0.0175,0.0011,-0.0360,25.00,87.25,0.75,-4.3884,8.7453,0.3270,9.7901
1,7,1,2,1,32.009,32009,-4.1800,9.0500,-0.0100,9.9687,-0.0644,-0.0011,0.0720,25.00,87.50,0.63,-4.3609,8.7855,0.2826,9.8123
1,7,1,2,1,32.182,32182,-4.4000,9.1200,0.0500,10.1261,-0.0447,-0.0120,-0.3098,25.38,87.88,0.00,-4.3661,8.8295,0.2519,9.8533
1,7,1,2,1,32.312,32312,-4.2300,8.4000,0.4300,9.4148,0.0644,0.0131,0.1876,25.19,87.88,0.13,-4.3481,8.7729,0.2754,9.7952
1,7,1,2,1,32.442,32442,-6.6400,9.6200,0.0000,11.6891,-0.0207,-0.0098,-0.7527,26.19,87.81,359.06,-4.6501,8.8846,0.2391,10.0308
1,7,1,2,1,32.572,32572,-2.7700,7.5300,0.3100,8.0293,0.0251,0.0175,0.4047,23.81,87.56,1.44,-4.4024,8.7061,0.2484,9.7590
1,7,1,2,1,32.702,32702,-6.1500,8.9400,-0.1000,10.8515,-0.0524,-0.0153,-0.6141,26.81,87.69,358.31,-4.6327,8.7369,0.2025,9.8912
1,7,1,2,1,32.833,32833,-3.7100,8.5900,0.2700,9.3608,-0.0284,0.0098,0.2727,24.94,87.75,0.31,-4.5111,8.7175,0.2114,9.8178
1,7,1,2,1,32.963,32963,-3.2900,8.3900,0.9200,9.0588,0.0240,-0.0076,-0.2705,25.69,87.81,359.50,-4.3502,8.6744,0.3048,9.7089
1,7,1,2,1,33.093,33093,-3.9200,9.2700,0.3100,10.0695,0.0011,0.0458,0.3392,26.81,87.88,358.25,-4.2935,8.7529,0.3055,9.7540
1,7,1,2,1,33.266,33266,-5.5600,9.6600,-0.7800,11.1731,-0.1014,0.0273,0.2749,26.25,87.81,358.38,-4.4604,8.8724,0.1624,9.9318
1,7,1,2,1,33.397,33397,-1.6400,7.7700,0.5900,7.9631,0.0065,0.0425,0.5640,23.69,87.69,0.81,-4.0887,8.7271,0.2188,9.6399
1,7,1,2,1,33.527,33527,-4.9900,9.1500,0.3500,10.4281,-0.0175,0.0098,0.1647,26.56,87.88,357.81,-4.2075,8.7829,0.2361,9.7415
1,7,1,2,1,33.658,33658,-4.8000,9.6700,-0.1500,10.7968,-0.0098,0.0251,-0.2029,25.19,87.88,359.19,-4.2856,8.8998,0.1852,9.8796
1,7,1,2,1,33.788,33788,-3.6600,9.8600,0.8500,10.5517,0.0600,0.0491,0.2618,22.31,87.50,1.81,-4.2031,9.0263,0.2728,9.9607
1,7,1,2,1,33.920,33920,-2.4900,9.0500,0.2800,9.3905,0.0393,0.0665,0.1833,22.69,87.13,0.88,-3.9774,9.0294,0.2737,9.8704
1,7,1,2,1,34.050,34050,-5.7600,8.8600,-0.0700,10.5680,0.0120,0.0447,-0.1680,23.56,86.69,359.75,-4.2123,9.0071,0.2285,9.9460
1,7,1,2,1,34.185,34185,-3.7800,9.3900,0.6200,10.1412,0.0360,0.0720,0.3523,21.50,86.25,1.50,-4.1553,9.0576,0.2800,9.9692
1,7,1,2,1,34.358,34358,-3.5800,8.7300,0.7200,9.4630,-0.0044,0.0076,-0.0818,20.94,86.19,1.63,-4.0795,9.0144,0.3380,9.9003
1,7,1,2,1,34.488,34488,-3.5600,10.0300,0.7500,10.6694,-0.0480,-0.0295,-0.2618,20.56,86.56,1.94,-4.0111,9.1482,0.3923,9.9966
1,7,1,2,1,34.618,34618,-6.0900,11.5000,0.1100,13.0135,-0.0764,-0.0415,0.0065,21.75,87.00,0.88,-4.2850,9.4581,0.3551,10.3896
1,7,1,2,1,34.748,34748,-3.8700,10.0100,0.2200,10.7343,0.0055,-0.0687,0.1571,22.06,87.44,0.69,-4.2303,9.5308,0.3373,10.4329
1,8,1,2,1,34.878,34878,-2.1100,8.9600,0.1700,9.2067,-0.0055,-0.0567,0.7898,22.63,87.88,0.63,-3.9509,9.4556,0.3153,10.2527
1,8,1,2,1,35.008,35008,-2.7300,8.1200,0.4700,8.5795,-0.0338,-0.0698,-0.1614,23.31,88.25,0.44,-3.7900,9.2796,0.3356,10.0294
1,8,1,2,1,35.138,35138,-4.0800,8.8700,-0.0800,9.7637,0.0109,-0.0578,-0.0949,23.56,88.56,0.50,-3.8282,9.2256,0.2809,9.9923
1,8,1,2,1,35.269,35269,-3.1200,9.2800,-0.2100,9.7927,-0.0774,-0.0196,0.1985,23.13,88.88,1.19,-3.7349,9.2328,0.2162,9.9620
1,8,1,2,1,35.442,35442,-2.8500,8.7400,0.0000,9.1929,-0.0425,-0.0153,-0.6065,22.56,89.25,1.56,-3.6183,9.1679,0.1877,9.8578
1,8,1,2,1,35.575,35575,-5.6800,7.6800,-0.0800,9.5525,0.0011,-0.0142,-0.2967,25.13,89.31,358.94,-3.8900,8.9718,0.1524,9.7800
1,8,1,2,1,35.706,35706,-3.5000,8.2700,0.6500,9.0036,0.0796,0.0164,-0.2934,21.56,88.88,2.38,-3.8386,8.8793,0.2180,9.6760
1,8,1,2,1,35.840,35840,-1.9400,8.5100,-0.5900,8.7482,0.0567,0.0273,-0.2051,23.31,88.25,0.50,-3.5884,8.8307,0.1115,9.5326
1,8,1,2,1,35.970,35970,-2.5800,8.3200,0.5900,8.7308,0.0491,0.0153,0.3436,23.75,87.81,0.13,-3.4555,8.7634,0.1746,9.4217
1,8,1,2,1,36.101,36101,-5.4500,8.9000,0.4600,10.4462,0.0731,0.0131,0.2269,25.50,87.44,358.56,-3.7183,8.7814,0.2122,9.5385
1,8,1,2,1,36.231,36231,-2.7800,8.6800,0.3000,9.1193,0.0349,-0.0218,-0.1756,24.00,87.19,0.31,-3.5947,8.7680,0.2238,9.4789
1,8,1,2,1,36.362,36362,-4.6200,9.3700,0.6900,10.4698,-0.0251,-0.0164,-0.0774,25.63,87.31,358.75,-3.7298,8.8473,0.2852,9.6056
1,8,1,2,1,36.535,36535,-3.2200,8.2300,0.3900,8.8461,-0.0076,-0.0284,-0.0065,24.44,87.25,0.13,-3.6626,8.7660,0.2990,9.5051
1,8,1,2,1,36.666,36666,-4.8100,8.9700,0.4600,10.1887,0.0055,-0.0262,0.1636,26.06,87.63,358.69,-3.8138,8.7929,0.3202,9.5897
1,8,1,2,1,36.798,36798,-3.8700,8.6700,0.0000,9.4945,-0.0262,-0.0218,-0.0087,25.00,87.75,359.94,-3.8212,8.7767,0.2780,9.5765
1,8,1,2,1,36.933,36933,-5.1100,9.0700,0.1200,10.4111,-0.0131,-0.0218,-0.1025,26.19,88.00,358.88,-3.9911,8.8153,0.2572,9.6801
1,8,1,2,1,37.063,37063,-3.7400,8.6000,0.1600,9.3794,0.0109,0.0065,0.1058,25.13,88.00,359.94,-3.9580,8.7870,0.2444,9.6403
1,8,1,2,1,37.194,37194,-4.3800,8.7000,0.0500,9.7405,-0.0098,0.0185,0.0905,25.88,88.00,359.56,-4.0136,8.7755,0.2188,9.6523
1,8,1,2,1,37.324,37324,-4.1600,8.3500,0.3000,9.3337,0.0011,0.0284,0.0044,25.88,88.00,359.31,-4.0329,8.7194,0.2295,9.6096
1,8,1,2,1,37.455,37455,-4.7500,9.0600,0.2500,10.2327,-0.0229,0.0185,-0.2094,26.50,88.00,358.56,-4.1274,8.7643,0.2322,9.6903
1,8,1,2,1,37.628,37628,-3.4500,8.4500,0.2500,9.1306,-0.0327,0.0109,-0.2116,25.81,87.81,358.94,-4.0381,8.7229,0.2345,9.6151
1,8,1,2,1,37.758,37758,-4.6900,8.9800,0.1700,10.1324,-0.0207,0.0109,0.2258,27.63,87.94,356.88,-4.1240,8.7568,0.2260,9.6819
1,8,1,2,1,37.888,37888,-4.6400,7.6100,0.6000,8.9332,0.0305,0.0153,0.2236,26.56,87.94,357.81,-4.1920,8.6057,0.2753,9.5763
1,8,1,2,1,38.018,38018,-3.8600,9.1500,0.1900,9.9327,-0.0611,-0.0131,-0.3392,25.94,88.19,358.63,-4.1483,8.6774,0.2641,9.6216
1,8,1,2,1,38.148,38148,-3.2200,8.3900,0.0000,8.9867,-0.0305,-0.0175,0.3338,23.44,88.44,1.19,-4.0259,8.6395,0.2293,9.5343
1,8,1,2,1,38.278,38278,-5.5200,9.3000,0.1500,10.8159,-0.0185,0.0011,0.0633,26.44,89.19,358.06,-4.2228,8.7266,0.2188,9.6970
1,8,1,2,1,38.408,38408,-4.4500,9.9300,-0.3000,10.8857,-0.0840,-0.0076,-0.7374,27.50,89.63,356.81,-4.2528,8.8851,0.1505,9.8516
1,9,1,2,1,38.538,38538,-3.2500,8.0400,-0.4000,8.6812,0.0175,0.0415,0.1549,26.75,89.50,357.50,-4.1206,8.7738,0.0779,9.6935
1,9,1,2,1,38.711,38711,-2.4100,8.4700,-0.0500,8.8063,0.0535,0.0654,0.6687,24.63,89.25,359.38,-3.8952,8.7337,0.0611,9.5632
1,9,1,2,1,38.841,38841,-4.4600,9.5500,-0.2300,10.5426,0.0327,0.0611,0.2378,25.50,88.88,358.06,-3.9696,8.8413,0.0227,9.6916
1,9,1,2,1,38.972,38972,-4.0600,9.7100,0.5000,10.5365,0.1058,0.0829,-0.0371,23.88,87.94,359.56,-3.9815,8.9558,0.0856,9.8013
1,9,1,2,1,39.102,39102,-3.8700,8.9300,0.3400,9.7384,0.1724,0.1069,0.5334,24.50,86.81,358.69,-3.9668,8.9524,0.1191,9.7926
1,9,1,2,1,39.233,39233,-3.8400,8.8100,-0.1000,9.6110,0.0273,0.0338,-0.1287,23.38,85.88,359.63,-3.9501,8.9336,0.0903,9.7684
1,9,1,2,1,39.364,39364,-4.1100,9.3400,0.8400,10.2388,-0.0055,0.0033,0.3131,23.69,85.63,359.19,-3.9712,8.9872,0.1890,9.8273
1,9,1,2,1,39.499,39499,-2.1900,8.9000,1.4600,9.2810,0.0185,-0.0185,0.2640,20.63,85.75,2.31,-3.7365,8.9757,0.3565,9.7289
1,9,1,2,1,39.629,39629,-3.9500,10.7000,0.4800,11.4159,-0.0502,-0.0513,-0.1898,22.81,86.13,0.38,-3.7646,9.2029,0.3728,9.9501
1,9,1,2,1,39.802,39802,-1.5600,9.0300,0.0300,9.1638,-0.0436,-0.0502,0.2803,23.56,86.81,0.06,-3.4741,9.1801,0.3276,9.8210
1,9,1,2,1,39.932,39932,-3.6300,8.4100,0.3500,9.1667,-0.0196,-0.0807,-0.5138,24.44,87.25,359.75,-3.4946,9.0786,0.3306,9.7336
1,9,1,2,1,40.062,40062,-2.7100,8.3300,0.3100,8.7652,-0.0709,-0.0567,-0.3818,23.38,87.69,0.94,-3.3912,8.9800,0.3279,9.6046
1,9,1,2,1,40.192,40192,-4.7800,9.4200,-0.0300,10.5634,-0.0796,0.0055,0.4756,25.38,88.25,359.13,-3.5743,9.0380,0.2807,9.7231
1,9,1,2,1,40.323,40323,-3.2800,8.7200,0.7200,9.3443,0.0218,-0.0164,-0.7156,22.50,88.38,1.69,-3.5355,8.9961,0.3386,9.6718
1,9,1,2,1,40.453,40453,-3.6400,9.6000,-0.1300,10.2677,0.0011,0.0087,-0.0698,22.31,88.56,1.56,-3.5492,9.0757,0.2768,9.7489
1,9,1,2,1,40.583,40583,-0.6700,6.5100,0.3200,6.5522,-0.0731,-0.0567,-0.8836,21.63,88.69,2.25,-3.1698,8.7376,0.2825,9.2991
1,9,1,2,1,40.714,40714,-6.7800,9.3600,-0.0700,11.5578,-0.0262,-0.0687,-0.8476,25.63,89.13,358.13,-3.6456,8.8196,0.2361,9.5463
1,9,1,2,1,40.886,40886,1.2300,7.4700,0.3900,7.5806,0.0218,-0.0164,0.3556,20.25,89.06,3.44,-3.0031,8.6417,0.2564,9.1523
1,9,1,2,1,41.016,41016,-6.9700,9.6400,-0.2400,11.8982,0.0556,-0.0131,0.4134,27.88,89.44,355.75,-3.5258,8.7733,0.1910,9.4572
1,9,1,2,1,41.146,41146,-2.5700,7.9600,-0.0200,8.3646,0.0022,-0.0415,0.2531,23.06,89.06,1.06,-3.3999,8.6661,0.1632,9.3106
1,9,1,2,1,41.276,41276,-5.4800,9.6200,0.2200,11.0735,0.0698,-0.0491,-0.1309,25.19,89.13,359.31,-3.6740,8.7918,0.1706,9.5301
1,9,1,2,1,41.406,41406,-2.6000,8.2800,0.1100,8.6793,0.0262,-0.0305,0.1473,22.88,88.88,1.94,-3.5325,8.7244,0.1627,9.4138
1,9,1,2,1,41.536,41536,-4.7700,9.6100,-0.1800,10.7302,-0.0022,-0.0218,-0.0654,24.75,88.88,0.19,-3.6955,8.8411,0.1175,9.5831
1,9,1,2,1,41.666,41666,-3.3000,8.2600,0.3500,8.9017,0.0698,0.0000,0.0229,23.69,88.63,1.38,-3.6434,8.7645,0.1481,9.4928
1,9,1,2,1,41.796,41796,-4.3100,9.2700,-0.1200,10.2237,-0.0251,0.0109,-0.0207,25.00,88.63,0.06,-3.7313,8.8311,0.1128,9.5877
1,9,1,2,1,41.969,41969,-3.6300,8.6200,0.1500,9.3543,-0.0055,0.0207,-0.1549,24.00,88.38,0.94,-3.7179,8.8033,0.1177,9.5569
1,9,1,2,1,42.099,42099,-4.6700,8.9700,0.2300,10.1155,0.0305,0.0349,0.2280,25.25,88.31,359.63,-3.8434,8.8253,0.1325,9.6268
1,9,1,2,1,42.229,42229,-2.9400,8.3400,0.2600,8.8469,0.0011,0.0349,0.3742,23.56,88.19,1.13,-3.7243,8.7613,0.1493,9.5212
1,9,1,2,1,42.359,42359,-4.7100,9.0800,0.2300,10.2315,0.0109,0.0153,-0.0153,24.44,88.13,0.19,-3.8542,8.8033,0.1599,9.6114
1,9,1,2,1,42.489,42489,-3.2000,8.2300,0.2700,8.8344,0.0131,0.0065,-0.0338,23.56,88.06,0.94,-3.7680,8.7278,0.1744,9.5080
1,9,1,2,1,42.619,42619,-4.0300,9.3000,0.0100,10.1356,-0.0807,-0.0262,-0.4560,26.06,88.25,358.44,-3.8025,8.8032,0.1528,9.5905
1,9,1,2,1,42.749,42749,-2.9800,8.3200,0.3200,8.8434,0.0055,0.0022,0.5378,25.06,88.31,359.69,-3.6941,8.7395,0.1748,9.4898
1,9,1,2,1,42.879,42879,-2.8400,8.1500,0.1700,8.6323,-0.0109,-0.0207,-0.4080,24.44,88.44,0.38,-3.5816,8.6618,0.1742,9.3747
1,9,1,2,1,43.052,43052,-6.6400,9.7300,-0.4400,11.7880,0.0578,-0.0087,-0.0251,27.88,88.50,356.75,-3.9846,8.8026,0.0932,9.6629
1,9,1,2,1,43.183,43183,-3.7500,7.6000,0.1700,8.4765,0.0316,-0.0229,-0.0720,24.63,88.13,0.19,-3.9537,8.6441,0.1034,9.5059
1,9,1,2,1,43.313,43313,-4.1400,8.4400,-0.4100,9.4096,-0.0022,-0.0349,0.0000,24.88,88.19,0.19,-3.9782,8.6172,0.0357,9.4913
1,9,1,2,1,43.444,43444,-5.6700,10.2100,-0.2600,11.6816,-0.0578,-0.0709,-1.0723,27.31,88.31,358.00,-4.2012,8.8271,-0.0033,9.7759
1,10,1,2,1,43.575,43575,-2.2200,7.7800,0.6200,8.1143,0.0589,0.0644,0.8138,24.56,88.06,0.75,-3.9401,8.6891,0.0789,9.5410
1,10,1,2,1,43.710,43710,-4.6600,8.5700,0.2600,9.7585,0.0644,0.0829,0.2520,24.75,87.69,0.25,-4.0350,8.6734,0.1027,9.5666
1,10,1,2,1,43.840,43840,-4.8100,9.6100,0.3600,10.7526,-0.0022,0.0644,-0.2869,24.50,87.25,0.31,-4.1371,8.7968,0.1366,9.7221
1,10,1,2,1,43.972,43972,-4.3100,8.6300,0.7700,9.6771,-0.0273,0.0545,0.2258,24.63,87.25,359.75,-4.1599,8.7749,0.2201,9.7135
1,10,1,2,1,44.144,44144,-4.5500,8.7600,0.5300,9.8854,-0.0774,0.0589,0.1724,23.06,87.81,0.13,-4.2113,8.7729,0.2609,9.7348
1,10,1,2,1,44.274,44274,-2.3600,9.1600,-0.0700,9.4594,-0.1287,0.0545,0.2073,21.31,88.38,1.13,-3.9673,8.8239,0.2173,9.6772
1,10,1,2,1,44.404,44404,-4.5200,9.8900,-0.4800,10.8845,-0.0916,0.0098,0.0960,22.88,89.19,359.13,-4.0402,8.9644,0.1254,9.8336
1,10,1,2,1,44.534,44534,-4.8000,10.6900,-0.6000,11.7335,-0.0600,-0.0360,-0.2847,22.25,89.88,359.69,-4.1403,9.1918,0.0298,10.0813
1,10,1,2,1,44.664,44664,-3.4000,9.7100,-0.1600,10.2893,-0.0360,-0.0393,0.0829,21.19,90.13,0.94,-4.0427,9.2601,0.0048,10.1041
1,10,1,2,1,44.794,44794,-5.0900,10.0000,0.0600,11.2210,0.0982,-0.0305,0.4821,23.31,90.13,359.19,-4.1807,9.3576,0.0121,10.2490
1,10,1,2,1,44.925,44925,-3.4800,10.1900,-0.3200,10.7726,0.1462,-0.0524,-0.1222,22.25,89.44,0.94,-4.0884,9.4673,-0.0317,10.3124
1,10,1,2,1,45.055,45055,-4.9600,9.2400,-0.3400,10.4926,0.1254,-0.0349,0.0905,24.94,88.75,359.00,-4.2033,9.4373,-0.0723,10.3313
1,10,1,2,1,45.228,45228,-3.4600,8.4600,0.2300,9.1431,0.0262,-0.0415,-0.0109,24.00,88.06,0.31,-4.1053,9.3085,-0.0325,10.1737
1,10,1,2,1,45.358,45358,-2.9400,8.8000,0.6500,9.3009,0.0480,-0.0142,0.4309,23.63,88.06,0.88,-3.9518,9.2415,0.0575,10.0511
1,10,1,2,1,45.489,45489,-4.2100,9.4800,0.4300,10.3817,-0.0273,-0.0164,-0.2749,24.69,88.13,359.94,-3.9858,9.2729,0.1066,10.0938
1,10,1,2,1,45.619,45619,-3.8000,9.2700,0.0400,10.0187,0.0284,0.0229,0.4025,26.81,87.94,357.75,-3.9613,9.2726,0.0978,10.0837
1,10,1,2,1,45.750,45750,-1.8700,6.5800,0.2400,6.8448,0.0720,0.0295,0.4549,25.13,87.38,359.88,-3.6857,8.9177,0.1165,9.6501
1,10,1,2,1,45.881,45881,-3.9300,8.5000,-0.1100,9.3652,0.0098,-0.0065,-0.6021,25.94,86.81,359.13,-3.7179,8.8627,0.0867,9.6113
1,10,1,2,1,46.016,46016,-4.4200,7.6500,0.4700,8.8476,0.0927,0.0055,0.4222,27.06,86.44,358.00,-3.8104,8.7029,0.1372,9.5015
1,10,1,2,1,46.146,46146,-3.9900,8.9300,0.6600,9.8031,-0.0698,-0.0360,-0.3796,25.69,86.56,359.50,-3.8341,8.7328,0.2061,9.5397
1,10,1,2,1,46.319,46319,-2.6600,8.1100,0.4300,8.5459,0.0109,0.0076,0.4145,24.13,86.38,1.13,-3.6794,8.6508,0.2356,9.4037
1,10,1,2,1,46.449,46449,-4.5300,9.4800,0.1800,10.5083,-0.0404,-0.0316,-0.2236,25.25,86.50,0.19,-3.7915,8.7600,0.2283,9.5481
1,10,1,2,1,46.579,46579,-3.1300,8.8500,0.8200,9.4229,0.0229,0.0044,0.2629,24.31,86.75,1.19,-3.7043,8.7719,0.3062,9.5269
1,10,1,2,1,46.709,46709,-3.5600,9.1100,0.0800,9.7812,0.0000,0.0044,0.0894,24.94,86.75,0.38,-3.6853,8.8164,0.2764,9.5597
1,10,1,2,1,46.839,46839,-3.5100,8.5500,0.4600,9.2539,-0.0425,0.0000,0.2203,24.38,86.81,1.13,-3.6622,8.7813,0.3006,9.5191
1,10,1,2,1,46.969,46969,-3.0600,8.8100,0.3300,9.3321,-0.0207,-0.0098,-0.1614,23.19,87.00,2.25,-3.5828,8.7851,0.3045,9.4925
1,10,1,2,1,47.100,47100,-5.3500,9.2400,0.2100,10.6791,-0.0338,-0.0033,-0.0905,25.88,87.31,359.44,-3.8157,8.8450,0.2920,9.6374
1,10,1,2,1,47.230,47230,-3.4200,8.3200,0.3300,9.0015,-0.0065,-0.0033,0.1156,24.81,87.38,0.81,-3.7636,8.7759,0.2970,9.5534
1,10,1,2,1,47.403,47403,-4.3800,8.5400,0.0400,9.5978,-0.0425,-0.0142,0.0796,26.81,87.88,358.81,-3.8448,8.7448,0.2632,9.5563
1,10,1,2,1,47.534,47534,-1.5000,7.3700,1.1800,7.6131,0.0305,-0.2149,-0.2203,25.19,88.38,1.50,-3.5358,8.5636,0.3840,9.2728
1,10,1,2,1,47.664,47664,-2.8400,11.1800,-0.9800,11.5766,-0.1407,-0.0676,-0.4963,26.69,88.56,1.63,-3.4441,8.9084,0.2042,9.5532
1,10,1,2,1,47.795,47795,-6.1300,7.6900,0.1500,9.8354,-0.0033,-0.0415,-1.1356,29.81,88.31,358.75,-3.7980,8.7478,0.1971,9.5388
1,10,1,2,1,47.925,47925,-0.0500,10.3700,-0.0800,10.3704,-0.3098,0.1494,0.0240,30.13,88.50,358.19,-3.3042,8.9616,0.1606,9.5527
1,10,1,2,1,48.056,48056,-1.7100,6.4000,1.5900,6.8127,0.2389,-0.0284,-0.7679,30.69,88.44,357.94,-3.0941,8.6240,0.3489,9.1689
1,10,1,2,1,48.187,48187,-2.4600,10.4400,-1.3300,10.8081,-0.1756,-0.0513,0.7003,31.31,89.00,357.69,-3.0105,8.8633,0.1277,9.3615
1,10,1,2,1,48.322,48322,-5.7900,5.9200,1.1100,8.3548,0.1724,0.0240,-0.6207,33.13,88.94,356.81,-3.3768,8.4755,0.2571,9.1270
1,10,1,2,1,48.495,48495,-5.0300,7.4600,1.0200,9.0550,0.1440,-0.0633,-0.2956,35.56,89.25,354.88,-3.5946,8.3417,0.3577,9.0903
1,10,1,2,1,48.625,48625,-3.9100,7.3500,-0.4900,8.3397,-0.0491,0.0545,-0.1331,35.75,89.25,355.25,-3.6362,8.2110,0.2460,8.9835
1,10,1,2,1,48.755,48755,-5.6100,8.1800,-0.9500,9.9643,-0.0153,0.0665,0.0196,37.88,89.31,353.25,-3.8963,8.2069,0.0884,9.0853
1,10,1,2,1,48.885,48885,-3.0100,7.7500,-0.5200,8.3302,-0.0600,0.0305,-0.1025,37.56,89.13,353.88,-3.7795,8.1467,0.0082,8.9807
1,10,1,2,1,49.015,49015,-12.7400,11.2200,1.2400,17.0216,0.0305,0.0567,-0.3054,38.50,88.75,353.19,-4.9603,8.5517,0.1705,9.8876
1,10,1,2,1,49.145,49145,-2.1000,9.9300,-4.3900,11.0583,-0.6294,0.0120,-0.5912,39.25,88.13,352.63,-4.5834,8.7333,-0.4304,9.8723
1,10,1,2,1,49.276,49276,-5.4800,0.7100,4.7900,7.3129,-0.3643,-0.0654,0.0785,39.63,88.00,352.69,-4.7015,7.6760,0.2575,9.0051
1,10,1,2,1,49.406,49406,-7.0400,9.6300,-0.4500,11.9374,0.1233,-0.0044,0.4178,35.94,88.19,356.50,-5.0097,7.9335,0.1643,9.3843
1,10,1,2,1,49.579,49579,-5.5200,10.5700,-1.9800,12.0878,-0.2738,-0.0022,-0.1614,34.56,88.06,357.88,-5.0769,8.2809,-0.1183,9.7141
1,10,1,2,1,49.712,49712,-4.9800,6.2000,1.2200,8.0454,0.2422,0.0087,-0.2313,36.56,87.81,356.19,-5.0641,8.0067,0.0581,9.4740
1,10,1,2,1,49.842,49842,-6.6000,7.5400,0.4200,10.0294,-0.0840,-0.0262,-0.2094,39.31,88.13,353.38,-5.2665,7.9452,0.1057,9.5328
