participant,rep,equipment_code,exercise_code,quality_code,timestamp,timestamp_ms,accelX,accelY,accelZ,accelMag,gyroX,gyroY,gyroZ,roll,pitch,yaw,filteredX,filteredY,filteredZ,filteredMag
1,1,1,2,1,00.000,0,2.1300,9.7000,0.0800,9.9314,-0.0185,-0.0425,0.1985,-11.50,87.19,148.88,1.6946,9.6090,0.5299,9.7717
1,1,1,2,1,00.131,131,1.9100,9.7000,0.2000,9.8883,0.0360,-0.0415,0.0818,-11.88,87.13,149.56,1.7230,9.6210,0.4864,9.7861
1,1,1,2,1,00.264,264,1.8100,9.6900,0.4600,9.8683,0.0491,-0.0207,-0.0436,-12.00,86.75,149.81,1.7345,9.6301,0.4829,9.7969
1,1,1,2,1,00.395,395,1.5500,9.5600,0.8100,9.7187,0.0393,0.0011,-0.0469,-11.69,86.31,149.50,1.7102,9.6208,0.5260,9.7858
1,1,1,2,1,00.526,526,1.4100,9.2400,0.6600,9.3702,0.0196,0.0491,0.2236,-11.13,86.06,148.75,1.6706,9.5707,0.5437,9.7306
1,1,1,2,1,00.656,656,2.1200,9.2900,0.7800,9.5607,0.0109,0.0731,0.0742,-12.44,86.06,149.56,1.7298,9.5337,0.5748,9.7064
1,1,1,2,1,00.786,786,2.0000,9.6800,0.6400,9.9052,-0.0164,0.0764,0.1244,-12.50,86.25,149.13,1.7654,9.5530,0.5834,9.7322
1,1,1,2,1,00.917,917,2.6200,9.5800,0.4300,9.9411,-0.0022,0.0480,0.1004,-13.81,86.44,149.94,1.8780,9.5565,0.5632,9.7556
1,1,1,2,1,01.090,1090,2.5100,9.5500,0.3800,9.8816,-0.0142,0.0185,0.1691,-13.69,86.56,149.63,1.9613,9.5557,0.5391,9.7697
1,1,1,2,1,01.220,1220,2.2400,9.4800,0.4800,9.7529,0.0164,-0.0360,-0.1331,-13.50,86.56,149.50,1.9980,9.5457,0.5313,9.7670
1,1,1,2,1,01.351,1351,2.9000,9.6900,0.5800,10.1313,-0.0055,-0.0567,0.1658,-14.25,86.50,150.56,2.1169,9.5647,0.5377,9.8109
1,1,1,2,1,01.482,1482,2.2700,9.3600,0.5600,9.6476,0.0229,-0.0676,0.0753,-14.50,86.25,151.31,2.1371,9.5377,0.5406,9.7892
1,1,1,2,1,01.612,1612,2.3400,8.8700,0.5700,9.1912,-0.0458,-0.0065,0.0033,-14.50,86.19,151.56,2.1638,9.4497,0.5445,9.7096
1,1,1,2,1,01.743,1743,2.4600,9.0800,0.7600,9.4380,-0.0153,0.0349,0.0022,-14.38,86.38,151.38,2.2028,9.4010,0.5729,9.6726
1,1,1,2,1,01.873,1873,2.0100,8.4400,0.6000,8.6968,-0.0065,0.0513,-0.1898,-13.81,86.50,150.56,2.1774,9.2744,0.5765,9.5440
1,1,1,2,1,02.005,2005,1.5400,9.8500,0.5800,9.9865,0.0436,0.0611,-0.3469,-12.19,86.56,148.44,2.0934,9.3502,0.5769,9.5991
1,1,1,2,1,02.181,2181,2.1000,10.0800,0.2500,10.2995,0.1036,0.0807,-0.0022,-12.25,85.88,147.63,2.0943,9.4464,0.5339,9.6905
1,1,1,2,1,02.312,2312,0.8700,9.3800,0.6800,9.4448,0.0382,0.0327,-0.2323,-9.94,85.50,144.88,1.9330,9.4376,0.5531,9.6494
1,1,1,2,1,02.442,2442,1.5400,10.0900,0.9900,10.2547,0.0873,-0.0447,0.1658,-9.19,85.13,144.13,1.8812,9.5236,0.6107,9.7268
1,1,1,2,1,02.573,2573,1.2900,9.4700,0.5000,9.5705,0.0644,-0.0764,0.5400,-10.31,84.31,145.75,1.8033,9.5165,0.5961,9.7042
1,1,1,2,1,02.703,2703,1.8900,8.0200,1.3800,8.3545,-0.0665,-0.0556,-0.2345,-12.94,84.31,148.75,1.8147,9.3193,0.6994,9.5201
1,1,1,2,1,02.834,2834,1.9100,10.5700,1.1700,10.8047,0.0022,-0.0622,0.4952,-11.38,84.56,147.81,1.8273,9.4841,0.7614,9.6885
1,1,1,2,1,02.964,2964,2.5500,8.6700,0.4300,9.0474,-0.0087,-0.0447,0.0185,-13.13,84.25,149.94,1.9225,9.3769,0.7177,9.5988
1,1,1,2,1,03.094,3094,1.7500,9.8800,1.1800,10.1029,-0.0273,-0.0153,0.1953,-12.19,84.31,149.25,1.8998,9.4432,0.7787,9.6638
1,1,1,2,1,03.267,3267,2.5400,9.4000,0.7100,9.7630,-0.0120,-0.0284,-0.5716,-14.25,84.31,151.44,1.9841,9.4375,0.7696,9.6745
1,1,1,2,1,03.397,3397,1.7500,9.2900,0.6800,9.4778,-0.0240,-0.0175,0.0578,-12.44,84.44,149.81,1.9533,9.4180,0.7578,9.6483
1,1,1,2,1,03.528,3528,2.0700,9.6900,0.6000,9.9268,-0.0709,-0.0262,-0.0567,-12.31,84.75,149.88,1.9687,9.4539,0.7370,9.6848
1,1,1,2,1,03.658,3658,1.5200,9.1100,0.8700,9.2768,-0.1549,-0.0905,-0.4974,-10.75,85.50,148.88,1.9095,9.4086,0.7545,9.6300
1,1,1,2,1,03.788,3788,1.9500,10.1600,0.7400,10.3719,-0.2073,-0.0698,0.0676,-9.25,86.81,148.19,1.9149,9.5076,0.7526,9.7277
1,1,1,2,1,03.918,3918,0.7400,10.1700,0.4400,10.2064,-0.1287,-0.0785,-0.1865,-9.13,87.94,148.81,1.7601,9.5949,0.7114,9.7809
1,1,1,2,1,04.048,4048,1.0300,9.6900,0.1000,9.7451,-0.0316,-0.0458,-0.1604,-7.50,88.44,147.69,1.6639,9.6074,0.6309,9.7708
1,1,1,2,1,04.179,4179,0.8700,9.3100,0.1400,9.3516,0.0524,0.0055,-0.4058,-5.81,88.38,146.13,1.5592,9.5682,0.5662,9.7110
1,1,1,2,1,04.351,4351,0.2900,9.9900,0.2900,9.9984,0.0589,-0.0251,-0.2225,-3.69,87.88,144.00,1.3920,9.6238,0.5298,9.7384
1,1,1,2,1,04.481,4481,0.4300,10.3900,0.0200,10.3989,0.0436,-0.0044,-0.1985,-2.56,87.50,142.94,1.2652,9.7248,0.4626,9.8176
1,1,1,2,1,04.611,4611,-0.1800,9.5100,0.4800,9.5238,0.0698,0.0240,-0.2029,-0.88,87.06,141.13,1.0748,9.6965,0.4649,9.7669
1,1,1,2,1,04.741,4741,-0.1700,9.1900,0.4100,9.2007,0.0055,0.0436,0.0556,-0.50,86.75,140.50,0.9107,9.6297,0.4577,9.6835
1,1,1,2,1,04.871,4871,-0.0400,11.0700,0.6000,11.0863,-0.0447,0.0513,0.1429,-0.75,86.94,140.44,0.7855,9.8195,0.4764,9.8624
1,1,1,2,1,05.001,5001,0.1600,10.8900,0.6000,10.9077,-0.0076,0.0207,0.1571,-1.63,87.13,141.00,0.7030,9.9606,0.4927,9.9975
1,2,1,2,1,05.132,5132,0.7500,9.8800,0.5100,9.9215,0.0153,0.0131,0.4516,-3.94,87.13,143.13,0.7092,9.9500,0.4950,9.9875
1,2,1,2,1,05.262,5262,1.3100,9.1900,0.3100,9.2881,0.0185,0.0109,0.2138,-6.69,87.06,145.81,0.7884,9.8498,0.4706,9.8925
1,2,1,2,1,05.435,5435,0.1500,9.7600,0.5000,9.7740,0.0665,0.0862,0.7047,-4.31,86.69,143.25,0.7043,9.8380,0.4745,9.8746
1,2,1,2,1,05.565,5565,0.8500,9.7400,0.1200,9.7778,-0.0218,0.0949,-0.7265,-6.44,86.38,144.50,0.7235,9.8251,0.4278,9.8610
1,2,1,2,1,05.695,5695,0.3100,9.8100,0.9100,9.8570,-0.1374,0.2116,-0.0425,-4.00,87.25,140.88,0.6690,9.8231,0.4913,9.8581
1,2,1,2,1,05.825,5825,1.2400,10.3600,0.4300,10.4428,-0.0425,0.1767,0.0622,-3.69,88.19,139.19,0.7442,9.8938,0.4832,9.9335
1,2,1,2,1,05.955,5955,1.6700,10.1500,-0.0500,10.2866,0.0742,0.0873,0.0633,-3.88,88.00,138.44,0.8662,9.9276,0.4130,9.9739
1,2,1,2,1,06.085,6085,0.0000,9.4500,-0.1500,9.4512,0.0196,0.0065,-0.4811,-1.50,87.56,135.75,0.7521,9.8647,0.3388,9.8991
1,2,1,2,1,06.216,6216,0.2400,10.2000,0.0500,10.2029,0.0175,0.0273,0.7287,-2.56,87.44,136.69,0.6846,9.9088,0.3007,9.9370
1,2,1,2,1,06.346,6346,1.4900,10.3400,0.4500,10.4565,0.0949,-0.0447,-0.1287,-5.13,87.00,139.31,0.7907,9.9657,0.3204,10.0021
1,2,1,2,1,06.519,6519,0.2400,10.3400,0.5600,10.3579,0.0229,-0.0447,0.4352,-2.63,86.44,137.44,0.7182,10.0150,0.3520,10.0469
1,2,1,2,1,06.650,6650,0.1300,9.2500,0.6900,9.2766,0.0262,-0.0807,-0.1898,-4.31,86.25,139.44,0.6407,9.9142,0.3965,9.9428
1,2,1,2,1,06.780,6780,1.1300,9.8200,0.5000,9.8974,-0.0120,-0.0425,0.1516,-5.50,86.13,141.06,0.7051,9.9018,0.4102,9.9353
1,2,1,2,1,06.911,6911,0.4300,9.5200,1.1800,9.6025,-0.0055,-0.0316,-0.0611,-5.25,86.19,141.06,0.6689,9.8515,0.5116,9.8874
1,2,1,2,1,07.041,7041,1.4800,10.7900,0.4500,10.9003,0.0567,0.0044,0.0960,-5.50,85.94,141.44,0.7758,9.9751,0.5035,10.0179
1,2,1,2,1,07.172,7172,0.1300,9.7400,0.5100,9.7542,0.1265,-0.0109,-0.0916,-3.75,85.31,139.69,0.6907,9.9442,0.5043,9.9809
1,2,1,2,1,07.303,7303,1.6100,9.1600,1.1400,9.3700,0.0295,0.0273,0.1276,-5.50,84.88,141.25,0.8118,9.8408,0.5881,9.8917
1,2,1,2,1,07.433,7433,0.0100,7.6300,0.8500,7.6772,-0.0622,0.0022,-0.1156,-4.13,84.63,139.88,0.7062,9.5495,0.6226,9.5958
1,2,1,2,1,07.606,7606,-0.5100,8.8000,0.7600,8.8475,0.0218,-0.0556,-0.2880,-6.00,84.88,141.81,0.5459,9.4507,0.6407,9.4881
1,3,1,2,1,07.740,7740,1.1700,9.7400,0.9400,9.8550,-0.0305,-0.0393,0.2629,-6.81,84.88,142.94,0.6281,9.4888,0.6802,9.5339
1,3,1,2,1,07.872,7872,1.4400,9.2400,0.9400,9.3987,-0.0044,-0.0905,-0.3665,-6.19,84.94,142.88,0.7351,9.4561,0.7144,9.5115
1,3,1,2,1,08.002,8002,1.0600,9.9700,0.6800,10.0492,-0.0055,-0.0589,0.0622,-5.50,85.06,142.75,0.7779,9.5238,0.7099,9.5818
1,3,1,2,1,08.132,8132,0.7200,8.5600,0.5800,8.6098,0.0327,-0.0567,-0.0622,-5.25,84.75,142.94,0.7703,9.3968,0.6928,9.4537
1,3,1,2,1,08.263,8263,1.5100,10.9300,1.0800,11.0865,-0.0611,-0.0065,-0.0065,-6.31,85.13,144.13,0.8678,9.5988,0.7438,9.6666
1,3,1,2,1,08.393,8393,0.3000,8.8700,0.4800,8.8880,-0.0720,0.0055,0.0884,-5.38,85.38,143.31,0.7930,9.5028,0.7090,9.5621
1,3,1,2,1,08.524,8524,0.6800,8.3100,0.4300,8.3489,-0.0567,0.0098,0.0196,-6.38,85.88,144.31,0.7781,9.3456,0.6723,9.4020
1,3,1,2,1,08.697,8697,0.6700,10.2800,0.4200,10.3104,-0.0480,0.0055,-0.0764,-6.81,86.31,144.75,0.7638,9.4687,0.6390,9.5210
1,3,1,2,1,08.828,8828,1.2000,10.3400,0.4700,10.4200,0.0131,0.0251,0.1025,-8.50,86.38,146.25,0.8213,9.5835,0.6167,9.6384
1,3,1,2,1,08.959,8959,1.7800,7.7700,0.0200,7.9713,-0.1036,0.0535,-0.1124,-9.38,86.44,146.88,0.9476,9.3446,0.5381,9.4079
1,3,1,2,1,09.089,9089,2.2600,13.0700,1.0200,13.3031,0.0175,0.0305,0.2323,-8.75,87.25,146.00,1.1206,9.8355,0.6016,9.9174
1,3,1,2,1,09.220,9220,0.2700,8.3900,-0.1100,8.3951,0.0785,-0.0262,-0.4669,-6.75,86.44,143.94,1.0085,9.6450,0.5078,9.7109
1,3,1,2,1,09.350,9350,1.9300,9.5200,-0.4400,9.7236,-0.0360,0.0338,0.8748,-9.88,86.25,146.94,1.1299,9.6285,0.3829,9.7022
1,3,1,2,1,09.485,9485,2.3400,10.4500,0.5100,10.7209,0.0142,-0.0404,-0.2694,-11.00,86.44,148.13,1.2894,9.7368,0.3997,9.8299
1,3,1,2,1,09.616,9616,0.9900,8.3300,0.4700,8.4018,0.0567,-0.0851,-0.3938,-8.94,86.00,146.56,1.2499,9.5514,0.4089,9.6415
1,3,1,2,1,09.789,9789,1.5700,9.4200,0.7700,9.5809,0.0360,-0.0622,0.3589,-8.56,85.56,146.94,1.2921,9.5341,0.4565,9.6321
1,3,1,2,1,09.919,9919,0.6400,9.7700,1.0600,9.8482,0.0011,-0.0567,-0.1167,-6.81,85.31,145.69,1.2062,9.5652,0.5360,9.6558
1,3,1,2,1,10.049,10049,1.1600,9.6900,0.9000,9.8006,-0.0305,-0.0087,0.1353,-8.50,85.44,147.56,1.2001,9.5816,0.5840,9.6741
1,3,1,2,1,10.180,10180,0.2800,9.9500,0.8200,9.9877,0.0425,-0.0556,-0.3512,-5.25,85.38,144.56,1.0788,9.6302,0.6151,9.7099
1,3,1,2,1,10.311,10311,1.3900,8.8000,0.3200,8.9148,-0.0065,-0.0491,-0.0567,-5.38,85.06,145.06,1.1198,9.5208,0.5762,9.6037
1,3,1,2,1,10.441,10441,1.1700,9.4700,1.0800,9.6029,-0.1593,-0.0785,-0.2803,-4.13,85.81,144.25,1.1265,9.5141,0.6426,9.6021
1,3,1,2,1,10.571,10571,-0.4400,10.4700,0.7000,10.5026,-0.1233,-0.0774,-0.2007,-1.38,86.81,142.19,0.9200,9.6400,0.6502,9.7057
1,3,1,2,1,10.702,10702,-0.6600,11.5000,-0.1000,11.5194,0.0687,-0.0109,-0.0262,-0.94,87.00,142.06,0.7118,9.8851,0.5513,9.9261
1,3,1,2,1,10.874,10874,-0.2200,9.6400,0.1800,9.6442,0.1320,0.1091,0.2607,-0.44,86.06,141.13,0.5890,9.8528,0.5024,9.8832
1,3,1,2,1,11.004,11004,-0.4900,8.7000,1.1600,8.7907,0.0502,0.1505,-0.4712,0.94,85.31,138.69,0.4468,9.7009,0.5890,9.7291
1,3,1,2,1,11.134,11134,0.0800,10.1000,0.9500,10.1449,-0.0785,0.1298,-0.1658,1.75,85.50,136.69,0.3985,9.7535,0.6366,9.7824
1,3,1,2,1,11.264,11264,-0.4400,9.9800,0.5900,10.0071,-0.0589,0.0447,-0.1102,3.19,86.06,134.69,0.2880,9.7834,0.6305,9.8079
1,3,1,2,1,11.394,11394,-0.4100,10.1100,0.5200,10.1317,-0.0109,-0.0262,0.0316,3.13,86.25,134.69,0.1960,9.8264,0.6159,9.8476
1,3,1,2,1,11.525,11525,-0.7000,11.5600,0.3700,11.5871,0.0251,-0.0676,-0.0600,2.94,86.19,135.25,0.0780,10.0548,0.5835,10.0721
1,3,1,2,1,11.655,11655,-1.0000,10.2300,0.8500,10.3138,-0.0185,-0.0436,0.2967,2.44,86.13,136.19,-0.0641,10.0779,0.6186,10.0971
1,3,1,2,1,11.786,11786,-0.6700,10.2800,0.4700,10.3125,-0.0622,0.0164,0.4898,-0.38,86.50,139.19,-0.1439,10.1046,0.5990,10.1233
1,3,1,2,1,11.959,11959,-0.2700,9.1700,0.2000,9.1762,-0.0065,0.0491,0.2356,-3.31,86.88,141.81,-0.1605,9.9814,0.5465,9.9976
1,3,1,2,1,12.090,12090,0.1800,9.6800,0.6100,9.7009,0.0622,0.1440,0.3272,-5.19,86.69,142.94,-0.1157,9.9417,0.5548,9.9578
1,3,1,2,1,12.221,12221,1.7900,9.2000,0.7300,9.4009,0.1124,0.1418,-0.1167,-6.69,86.19,143.31,0.1354,9.8440,0.5779,9.8618
1,3,1,2,1,12.351,12351,1.4900,9.0400,0.6300,9.1836,0.0851,0.0818,0.0633,-6.63,85.44,142.44,0.3139,9.7380,0.5848,9.7606
1,3,1,2,1,12.482,12482,1.3900,9.9800,1.2000,10.1475,-0.0698,0.1167,-0.2203,-6.63,85.38,141.75,0.4557,9.7699,0.6658,9.8032
1,3,1,2,1,12.612,12612,1.5900,9.3900,0.6600,9.5465,-0.0644,0.0545,-0.0349,-5.69,86.06,140.25,0.6052,9.7198,0.6651,9.7613
1,3,1,2,1,12.747,12747,0.5300,10.6600,0.8000,10.7031,0.0218,0.0033,-0.4396,-3.25,86.19,137.69,0.5953,9.8437,0.6829,9.8853
1,3,1,2,1,12.878,12878,0.6700,7.3200,0.0200,7.3506,0.1276,-0.0535,-0.2334,-3.81,85.44,138.31,0.6051,9.5112,0.5955,9.5490
1,3,1,2,1,13.051,13051,0.6300,8.0800,0.5300,8.1218,0.0665,-0.1473,-0.4069,-1.25,84.94,136.56,0.6084,9.3226,0.5869,9.3608
1,4,1,2,1,13.181,13181,-1.2700,10.3400,0.7000,10.4412,0.1254,-0.2105,-0.5694,3.75,84.63,132.88,0.3609,9.4566,0.6018,9.4826
1,4,1,2,1,13.311,13311,0.9200,10.3500,1.1500,10.4543,-0.0262,-0.1244,0.8247,2.00,84.25,135.69,0.4346,9.5744,0.6740,9.6079
1,4,1,2,1,13.442,13442,-0.8600,9.0900,0.6800,9.1559,0.0654,-0.1505,-0.2509,1.94,84.00,136.88,0.2640,9.5105,0.6748,9.5381
1,4,1,2,1,13.573,13573,-0.4800,9.8700,0.9700,9.9292,0.0535,-0.0949,0.2967,0.31,83.63,139.31,0.1659,9.5579,0.7137,9.5860
1,4,1,2,1,13.703,13703,-0.6600,9.7400,1.0200,9.8155,0.0305,-0.0295,0.2258,-0.06,83.31,140.38,0.0571,9.5819,0.7541,9.6117
1,4,1,2,1,13.833,13833,0.0700,9.5600,1.0800,9.6211,-0.0098,0.0927,0.2945,-1.75,83.19,141.81,0.0588,9.5790,0.7970,9.6123
1,4,1,2,1,13.964,13964,0.1800,9.6700,1.2200,9.7483,-0.0098,0.1920,0.0894,-2.50,83.31,141.56,0.0748,9.5910,0.8528,9.6291
1,4,1,2,1,14.136,14136,0.9500,9.8400,0.7600,9.9149,-0.0076,0.1996,0.1451,-3.88,83.75,140.94,0.1901,9.6238,0.8405,9.6623
1,4,1,2,1,14.266,14266,1.6700,9.6200,0.8200,9.7982,0.0240,0.0884,0.0654,-5.31,83.81,141.31,0.3851,9.6233,0.8378,9.6674
1,4,1,2,1,14.396,14396,1.9600,9.4100,0.9700,9.6608,0.0251,-0.0382,-0.0447,-6.81,83.75,142.63,0.5926,9.5952,0.8552,9.6515
1,4,1,2,1,14.526,14526,1.0500,9.9200,1.1200,10.0381,0.0295,-0.1145,-0.0491,-6.19,83.56,142.56,0.6529,9.6380,0.8901,9.7010
1,4,1,2,1,14.656,14656,-0.1000,8.6200,0.8900,8.6664,0.0120,-0.1124,-0.1691,-5.56,83.25,142.75,0.5537,9.5039,0.8901,9.5615
1,4,1,2,1,14.787,14787,1.6100,8.8700,1.4900,9.1372,-0.0873,-0.0240,0.6109,-8.19,83.63,145.88,0.6929,9.4203,0.9692,9.4954
1,4,1,2,1,14.917,14917,-0.7600,10.8900,1.1100,10.9728,-0.0360,-0.0033,-0.2880,-7.25,84.19,145.13,0.5014,9.6140,0.9877,9.6776
1,4,1,2,1,15.048,15048,1.5000,9.4200,0.8600,9.5774,0.0720,0.0709,0.3600,-9.94,84.13,147.38,0.6330,9.5884,0.9709,9.6582
1,4,1,2,1,15.221,15221,0.6100,7.4800,0.9200,7.5610,0.1265,0.0731,0.5880,-12.56,83.19,149.31,0.6300,9.3106,0.9642,9.3816
1,4,1,2,1,15.353,15353,4.4900,10.3700,1.2400,11.3681,-0.0535,0.1233,0.5574,-19.31,83.06,155.19,1.1386,9.4502,1.0005,9.5710
1,4,1,2,1,15.484,15484,2.1300,8.6900,1.0800,9.0122,-0.0044,0.0305,-0.8814,-16.88,83.63,152.31,1.2693,9.3500,1.0110,9.4898
1,4,1,2,1,15.619,15619,2.6400,9.6000,0.8900,9.9961,0.0262,0.0393,0.2880,-14.75,83.63,149.94,1.4499,9.3830,0.9951,9.5463
1,4,1,2,1,15.750,15750,2.6600,8.6800,0.9600,9.1291,-0.0796,0.0120,-0.3774,-16.00,83.63,151.00,1.6094,9.2903,0.9904,9.4806
1,4,1,2,1,15.881,15881,2.1000,10.1000,1.0100,10.3653,-0.0600,0.0251,-0.0022,-14.25,84.38,149.31,1.6740,9.3970,0.9930,9.5965
1,4,1,2,1,16.011,16011,1.1300,7.8400,1.0000,7.9839,-0.0425,0.0382,0.3763,-14.75,84.69,149.63,1.6023,9.1918,0.9939,9.3833
1,4,1,2,1,16.142,16142,3.4000,10.6600,0.6600,11.2085,-0.1385,0.0589,-0.0698,-17.44,85.50,152.13,1.8392,9.3853,0.9499,9.6109
1,4,1,2,1,16.315,16315,1.8700,9.4100,0.2000,9.5961,0.0185,0.0382,-0.4178,-13.31,86.06,147.69,1.8433,9.3886,0.8511,9.6056
1,4,1,2,1,16.446,16446,1.6700,9.9100,0.2500,10.0528,0.0207,0.0513,-0.1505,-11.31,86.00,145.31,1.8204,9.4573,0.7719,9.6618
1,4,1,2,1,16.576,16576,1.8300,11.1000,0.4000,11.2569,0.1440,0.0076,-0.2902,-10.56,85.56,144.19,1.8217,9.6737,0.7229,9.8703
1,5,1,2,1,16.706,16706,0.7400,8.9000,0.6400,8.9536,0.1953,-0.0185,-0.1876,-7.88,84.19,141.44,1.6792,9.5718,0.7120,9.7440
1,5,1,2,1,16.837,16837,1.4400,9.2600,1.2900,9.4597,0.0731,-0.0273,0.1014,-8.31,83.19,141.94,1.6476,9.5307,0.7881,9.7041
1,5,1,2,1,16.967,16967,1.3000,9.6700,1.3800,9.8541,-0.0415,-0.0545,-0.1494,-8.06,83.00,141.94,1.6018,9.5491,0.8661,9.7211
1,5,1,2,1,17.097,17097,0.9400,9.4500,1.2000,9.5722,-0.0905,-0.0513,-0.1113,-7.00,83.50,141.38,1.5146,9.5360,0.9101,9.6983
1,5,1,2,1,17.227,17227,1.0800,10.3600,0.8700,10.4524,-0.0382,-0.0164,0.1527,-7.31,84.00,142.00,1.4573,9.6446,0.9048,9.7959
1,5,1,2,1,17.400,17400,1.0800,9.4900,0.9900,9.6024,0.0807,-0.0098,-0.2683,-7.19,83.63,141.88,1.4076,9.6242,0.9161,9.7697
1,5,1,2,1,17.530,17530,0.2600,10.1100,0.9100,10.1542,0.0349,0.0185,-0.2160,-4.88,83.25,139.44,1.2564,9.6882,0.9153,9.8121
1,5,1,2,1,17.665,17665,0.6300,9.2700,1.2500,9.3751,0.0055,0.0524,0.0796,-5.19,83.19,139.50,1.1739,9.6331,0.9594,9.7517
1,5,1,2,1,17.796,17796,0.7000,9.8500,1.2400,9.9524,-0.0229,0.0371,-0.1942,-4.75,83.19,138.75,1.1114,9.6617,0.9964,9.7763
1,5,1,2,1,17.928,17928,0.5400,11.3100,1.1200,11.3781,0.0360,0.0284,0.0098,-4.00,83.19,137.69,1.0361,9.8789,1.0126,9.9846
1,5,1,2,1,18.059,18059,0.5900,9.2200,1.1100,9.3053,0.0349,0.0175,0.2280,-5.06,82.81,138.63,0.9773,9.7921,1.0255,9.8940
1,5,1,2,1,18.190,18190,0.4900,9.3600,1.0000,9.4260,-0.0415,0.0131,0.1571,-6.31,82.88,139.81,0.9131,9.7351,1.0221,9.8311
1,5,1,2,1,18.320,18320,2.0400,10.2200,1.1100,10.4806,-0.0447,0.1331,1.1508,-10.38,83.31,143.56,1.0616,9.7990,1.0337,9.9104
1,5,1,2,1,18.493,18493,0.7000,9.1100,0.9600,9.1871,0.0262,0.0382,-1.3221,-9.69,83.44,141.94,1.0140,9.7082,1.0240,9.8146
1,5,1,2,1,18.623,18623,1.2000,10.2900,0.7400,10.3861,0.0098,0.1331,0.2214,-8.38,83.50,139.88,1.0385,9.7849,0.9866,9.8892
1,5,1,2,1,18.754,18754,0.9000,9.9100,1.1400,10.0159,0.0851,0.0251,-0.5770,-5.25,83.25,136.13,1.0202,9.8014,1.0068,9.9056
1,5,1,2,1,18.884,18884,1.0700,9.7900,1.0800,9.9073,0.0622,-0.0284,0.1571,-3.69,82.69,134.56,1.0268,9.7999,1.0164,9.9058
1,5,1,2,1,19.015,19015,1.1900,8.9400,0.9900,9.0730,-0.0120,-0.0753,0.1254,-5.19,82.44,136.50,1.0483,9.6866,1.0129,9.7956
1,5,1,2,1,19.146,19146,0.5400,9.4900,1.3500,9.6007,-0.0316,-0.1004,-0.2182,-4.75,82.63,136.69,0.9813,9.6607,1.0574,9.7678
1,5,1,2,1,19.276,19276,-0.1200,9.8200,0.9500,9.8666,-0.0142,-0.0622,0.0916,-3.88,82.75,136.50,0.8362,9.6817,1.0432,9.7735
1,5,1,2,1,19.407,19407,0.8700,9.6200,1.1200,9.7240,0.0349,-0.0524,0.0938,-5.50,82.50,138.56,0.8406,9.6735,1.0533,9.7670
1,5,1,2,1,19.584,19584,-0.1900,8.8000,1.0400,8.8633,-0.0371,-0.0371,-0.0851,-3.25,82.69,136.63,0.7048,9.5584,1.0516,9.6419
1,5,1,2,1,19.715,19715,0.8300,9.8500,1.1600,9.9527,-0.0698,-0.0251,0.2934,-5.13,83.00,138.75,0.7213,9.5968,1.0659,9.6828
1,5,1,2,1,19.846,19846,0.9000,9.5100,1.0900,9.6145,-0.0753,-0.0829,-0.1854,-5.13,83.56,139.19,0.7449,9.5854,1.0690,9.6736
1,5,1,2,1,19.976,19976,0.9300,9.8100,0.9500,9.8997,-0.0687,-0.0862,0.1473,-5.00,84.13,139.69,0.7693,9.6150,1.0534,9.7031
1,5,1,2,1,20.106,20106,1.0000,10.1400,0.8300,10.2229,-0.0098,-0.1124,0.1222,-5.38,84.31,140.88,0.7997,9.6842,1.0239,9.7709
1,5,1,2,1,20.237,20237,0.8600,8.0200,1.2800,8.1669,-0.0840,-0.0698,-0.1854,-5.38,84.44,141.56,0.8076,9.4649,1.0577,9.5580
1,5,1,2,1,20.367,20367,0.0300,9.6600,0.5200,9.6740,-0.0065,-0.0524,0.6436,-5.81,84.50,142.56,0.7051,9.4906,0.9868,9.5678
1,5,1,2,1,20.498,20498,0.5700,9.6100,1.1900,9.7002,0.0065,-0.0622,-0.2313,-7.50,84.75,144.56,0.6873,9.5063,1.0136,9.5849
1,5,1,2,1,20.671,20671,1.3500,9.9700,0.8500,10.0968,-0.0393,0.0033,0.3033,-8.25,84.88,145.63,0.7747,9.5674,0.9920,9.6499
1,5,1,2,1,20.802,20802,1.2000,9.1400,0.5500,9.2348,-0.0065,-0.0327,-0.0600,-8.69,84.94,146.13,0.8307,9.5111,0.9338,9.5929
1,5,1,2,1,20.932,20932,2.5300,10.4200,1.0100,10.7702,-0.0796,-0.1025,0.0927,-9.13,85.31,147.06,1.0546,9.6309,0.9438,9.7343
1,5,1,2,1,21.063,21063,0.9100,9.5600,0.6100,9.6226,-0.0098,-0.2029,-0.3447,-8.13,85.31,147.31,1.0356,9.6215,0.8998,9.7189
1,5,1,2,1,21.193,21193,0.5200,9.8200,0.7200,9.8601,-0.0295,-0.1244,0.0284,-7.31,85.31,147.69,0.9676,9.6477,0.8761,9.7356
1,5,1,2,1,21.323,21323,0.8100,9.6900,0.6700,9.7469,-0.0545,-0.0524,-0.0720,-7.25,85.44,148.25,0.9469,9.6533,0.8490,9.7367
1,5,1,2,1,21.453,21453,0.9100,9.9600,0.6400,10.0219,-0.0262,0.0207,0.0829,-7.06,85.88,148.25,0.9420,9.6937,0.8214,9.7739
1,5,1,2,1,21.583,21583,0.9000,9.4100,0.5800,9.4707,-0.0087,0.0709,-0.2683,-6.88,85.94,147.69,0.9365,9.6563,0.7896,9.7337
1,5,1,2,1,21.756,21756,0.9800,9.7600,0.4100,9.8176,-0.0262,0.1102,0.0055,-5.31,86.56,145.19,0.9422,9.6700,0.7396,9.7439
1,5,1,2,1,21.886,21886,1.0900,8.6200,0.3600,8.6961,-0.0207,0.0916,0.2400,-6.31,86.75,145.44,0.9617,9.5316,0.6896,9.6048
1,5,1,2,1,22.017,22017,2.4100,9.6600,0.3300,9.9616,-0.0884,0.0524,0.3327,-9.06,87.19,147.69,1.1525,9.5485,0.6422,9.6392
1,5,1,2,1,22.149,22149,1.3800,10.2600,0.0500,10.3525,-0.0502,-0.0316,-0.1789,-7.69,87.75,146.38,1.1825,9.6423,0.5642,9.7309
1,5,1,2,1,22.284,22284,0.7300,9.6300,-0.1000,9.6581,0.0447,-0.0731,-0.3502,-6.31,87.63,145.50,1.1229,9.6407,0.4766,9.7175
1,5,1,2,1,22.414,22414,0.5900,9.3700,0.4500,9.3993,0.0556,-0.0371,0.1669,-7.06,87.25,146.50,1.0527,9.6050,0.4731,9.6741
1,5,1,2,1,22.545,22545,0.6000,10.0900,0.7800,10.1379,-0.0273,0.0273,-0.4396,-5.38,87.31,144.81,0.9930,9.6689,0.5136,9.7333
1,5,1,2,1,22.676,22676,0.3900,10.4800,0.4900,10.4987,0.0600,0.1265,0.2716,-4.88,87.25,143.69,0.9135,9.7758,0.5105,9.8316
1,5,1,2,1,22.849,22849,1.3300,9.3500,0.6100,9.4638,0.1102,0.0818,0.1036,-7.31,86.50,145.00,0.9684,9.7197,0.5236,9.7818
1,5,1,2,1,22.980,22980,1.0900,9.2400,0.3700,9.3114,0.0196,0.0393,-0.2149,-7.19,86.13,144.44,0.9844,9.6565,0.5033,9.7196
1,5,1,2,1,23.110,23110,1.7900,9.8100,0.8600,10.0090,-0.0076,0.0000,-0.0196,-6.50,86.25,143.56,1.0906,9.6767,0.5503,9.7535
1,5,1,2,1,23.240,23240,1.0100,9.7900,0.4500,9.8522,-0.0131,-0.0458,-0.3043,-5.25,86.19,142.56,1.0800,9.6916,0.5371,9.7664
1,5,1,2,1,23.371,23371,-0.0900,9.9400,0.4200,9.9493,-0.0196,-0.0404,0.0905,-3.69,86.31,141.38,0.9258,9.7244,0.5217,9.7823
1,5,1,2,1,23.501,23501,-0.0900,9.7400,0.5700,9.7571,-0.0491,-0.0185,-0.1385,-4.06,86.56,141.94,0.7919,9.7264,0.5281,9.7729
1,5,1,2,1,23.632,23632,0.7000,10.2700,0.3300,10.2991,-0.0425,0.0305,0.2149,-4.81,86.94,142.69,0.7798,9.7981,0.5020,9.8418
1,5,1,2,1,23.763,23763,1.2400,9.9200,0.5700,10.0134,0.0065,0.0600,-0.2880,-4.88,87.13,142.38,0.8405,9.8141,0.5109,9.8633
1,5,1,2,1,23.940,23940,0.6100,9.8000,0.3600,9.8256,0.0535,0.0927,-0.2160,-3.06,86.81,139.75,0.8101,9.8123,0.4910,9.8579
1,5,1,2,1,24.070,24070,0.3500,10.1400,0.3100,10.1508,0.0469,0.0774,-0.1636,-1.06,86.50,137.13,0.7495,9.8554,0.4672,9.8949
1,5,1,2,1,24.201,24201,-0.4400,9.5900,0.6700,9.6234,0.0458,0.0087,-0.3851,1.19,86.13,134.56,0.5927,9.8205,0.4939,9.8507
1,5,1,2,1,24.332,24332,-0.7800,9.5500,0.6700,9.6052,0.0207,-0.0098,-0.0316,2.81,85.88,132.94,0.4118,9.7848,0.5171,9.8071
1,5,1,2,1,24.463,24463,-0.5000,9.5700,0.6200,9.6031,-0.0305,-0.0044,0.0840,2.25,85.94,133.50,0.2917,9.7565,0.5307,9.7753
1,5,1,2,1,24.593,24593,-0.3200,10.6000,0.7900,10.6342,-0.0033,-0.0044,-0.0698,2.06,86.13,133.69,0.2111,9.8677,0.5648,9.8861
1,5,1,2,1,24.723,24723,-0.6900,11.0300,0.4400,11.0603,-0.0033,0.0065,0.3109,1.88,86.13,133.88,0.0923,10.0208,0.5484,10.0363
1,6,1,2,1,24.854,24854,0.2600,8.7700,0.3800,8.7821,-0.0295,-0.0284,-0.0065,-0.19,86.25,136.00,0.1144,9.8560,0.5262,9.8707
1,6,1,2,1,25.026,25026,-1.4500,10.5700,0.1800,10.6705,-0.0393,0.0120,0.4658,2.19,86.69,133.88,-0.0917,9.9501,0.4806,9.9621
1,6,1,2,1,25.156,25156,0.4100,9.6800,0.2900,9.6930,-0.0273,0.0065,-0.0578,-0.69,86.88,136.63,-0.0256,9.9145,0.4555,9.9250
1,6,1,2,1,25.286,25286,0.2400,9.6300,0.2300,9.6357,0.0055,0.0349,0.7385,-2.44,86.88,138.31,0.0094,9.8770,0.4258,9.8862
1,6,1,2,1,25.416,25416,2.5500,10.1500,0.5700,10.4809,-0.1102,-0.0338,-0.5094,-4.75,87.31,140.69,0.3442,9.9130,0.4448,9.9289
1,6,1,2,1,25.546,25546,-0.3500,9.5000,0.4900,9.5191,0.0098,0.0011,0.1811,-2.50,87.81,138.63,0.2527,9.8586,0.4507,9.8721
1,6,1,2,1,25.677,25677,0.5400,9.8200,0.5600,9.8508,0.1124,0.0000,0.0480,-3.94,87.44,140.06,0.2906,9.8535,0.4651,9.8687
1,6,1,2,1,25.807,25807,1.2500,9.7700,0.3500,9.8559,0.1265,-0.0142,0.0207,-5.06,86.56,141.13,0.4170,9.8425,0.4500,9.8616
1,6,1,2,1,25.939,25939,0.6400,9.6100,0.6200,9.6512,0.0087,0.0175,0.0731,-4.75,86.13,140.81,0.4464,9.8118,0.4724,9.8333
1,6,1,2,1,26.117,26117,0.5500,10.0200,0.8200,10.0685,-0.0076,0.0109,-0.0513,-5.25,86.06,141.25,0.4600,9.8393,0.5182,9.8636
1,6,1,2,1,26.249,26249,0.8700,9.4000,0.6200,9.4605,-0.0011,0.0055,0.1636,-5.94,85.94,141.88,0.5141,9.7814,0.5316,9.8093
1,6,1,2,1,26.379,26379,0.0500,9.2600,0.5000,9.2736,-0.0240,-0.0305,-0.0469,-5.19,86.19,141.25,0.4529,9.7127,0.5274,9.7375
1,6,1,2,1,26.510,26510,1.8100,10.4800,0.3700,10.6416,-0.0240,-0.0360,0.3272,-7.75,86.38,144.06,0.6317,9.8138,0.5067,9.8472
1,6,1,2,1,26.640,26640,1.6900,9.0600,0.5900,9.2351,0.0851,-0.0971,-0.2062,-8.13,86.13,144.81,0.7712,9.7145,0.5177,9.7588
1,6,1,2,1,26.771,26771,0.0800,9.6400,-0.1800,9.6420,0.0153,-0.0175,0.3163,-6.56,85.50,143.75,0.6801,9.7047,0.4257,9.7378
1,6,1,2,1,26.901,26901,1.9700,9.6700,0.9100,9.9105,0.0611,-0.0371,-0.0262,-9.38,85.44,146.63,0.8501,9.7001,0.4895,9.7496
1,6,1,2,1,27.032,27032,0.8500,9.6700,0.9700,9.7556,0.0305,-0.0065,0.2356,-8.63,85.00,146.00,0.8501,9.6961,0.5529,9.7490
1,6,1,2,1,27.205,27205,1.4300,9.7400,0.8100,9.8777,0.0218,0.0033,-0.1745,-9.56,84.69,146.94,0.9265,9.7019,0.5867,9.7637
1,6,1,2,1,27.336,27336,1.8900,9.6500,0.9200,9.8763,0.0360,0.0393,0.0360,-9.69,84.50,146.88,1.0535,9.6951,0.6307,9.7725
1,6,1,2,1,27.466,27466,1.3600,9.5700,1.0000,9.7177,0.0142,0.0665,0.0567,-9.44,84.38,146.19,1.0939,9.6786,0.6793,9.7639
1,6,1,2,1,27.596,27596,1.6600,9.7200,1.0000,9.9113,-0.0153,0.0709,-0.0207,-9.63,84.44,145.88,1.1685,9.6840,0.7216,9.7809
1,6,1,2,1,27.726,27726,1.6400,9.7100,0.8000,9.8800,-0.0109,0.0425,-0.0436,-9.69,84.56,145.56,1.2306,9.6875,0.7319,9.7927
1,6,1,2,1,27.856,27856,1.6700,9.6100,0.7300,9.7813,-0.0153,0.0175,-0.0033,-9.63,84.69,145.31,1.2885,9.6773,0.7317,9.7900
1,6,1,2,1,27.986,27986,1.7100,9.6000,0.8400,9.7872,-0.0055,-0.0185,-0.0753,-9.63,84.75,145.31,1.3440,9.6671,0.7459,9.7885
1,6,1,2,1,28.116,28116,1.2800,9.5600,0.7400,9.6737,-0.0142,-0.0251,-0.0087,-8.81,84.88,144.63,1.3356,9.6530,0.7452,9.7734
1,6,1,2,1,28.289,28289,1.2100,9.6500,0.7100,9.7514,0.0011,-0.0185,0.0164,-8.69,85.00,144.75,1.3190,9.6526,0.7405,9.7704
1,6,1,2,1,28.419,28419,1.6700,9.7800,0.7000,9.9462,0.0153,-0.0164,0.0905,-9.06,85.00,145.25,1.3653,9.6694,0.7352,9.7929
1,6,1,2,1,28.550,28550,1.4000,9.6100,0.8600,9.7494,0.0295,-0.0196,-0.0360,-8.63,84.81,144.94,1.3699,9.6615,0.7516,9.7871
1,6,1,2,1,28.680,28680,1.0800,9.0600,0.7800,9.1574,0.0273,0.0185,-0.1058,-7.81,84.63,144.13,1.3317,9.5823,0.7554,9.7038
1,6,1,2,1,28.810,28810,0.9800,9.1800,1.2300,9.3137,-0.0055,0.0491,-0.0218,-7.31,84.63,143.44,1.2853,9.5293,0.8179,9.6503
1,6,1,2,1,28.940,28940,2.3100,8.8800,0.6200,9.1965,-0.0284,0.0742,-0.3022,-9.38,84.56,144.94,1.4204,9.4437,0.7918,9.5827
1,6,1,2,1,29.070,29070,0.0000,9.5500,0.7300,9.5779,-0.0044,0.0611,-0.3131,-4.00,84.94,139.25,1.2332,9.4577,0.7837,9.5699
1,6,1,2,1,29.200,29200,1.3300,9.7300,0.6500,9.8420,0.0884,0.0305,-0.1396,-5.06,84.63,139.75,1.2459,9.4936,0.7661,9.6056
1,6,1,2,1,29.373,29373,1.7000,9.4500,1.1900,9.6752,0.0120,-0.0142,0.2345,-5.44,84.25,140.06,1.3058,9.4879,0.8219,9.6125
1,6,1,2,1,29.504,29504,0.4300,9.8200,0.9000,9.8705,-0.0644,-0.0393,0.0229,-4.31,84.44,139.31,1.1904,9.5316,0.8322,9.6416
1,6,1,2,1,29.635,29635,0.3500,9.5300,0.8500,9.5742,-0.0185,-0.0818,0.0676,-4.75,84.75,140.25,1.0796,9.5314,0.8346,9.6286
1,6,1,2,1,29.766,29766,-0.0200,9.7200,0.5700,9.7367,0.0600,-0.0436,-0.1058,-4.75,84.50,140.81,0.9347,9.5563,0.7997,9.6351
1,6,1,2,1,29.897,29897,0.3800,9.9200,1.0200,9.9795,0.0774,0.0142,-0.0044,-3.75,84.00,139.88,0.8616,9.6042,0.8287,9.6783
1,6,1,2,1,30.032,30032,1.0900,9.3500,0.4500,9.4241,0.0349,0.0873,0.0305,-5.56,83.63,141.19,0.8917,9.5707,0.7788,9.6436
1,6,1,2,1,30.163,30163,0.8400,9.4500,0.9400,9.5337,0.0927,0.1200,0.0578,-5.88,83.31,140.56,0.8849,9.5548,0.8001,9.6290
1,6,1,2,1,30.293,30293,0.4400,9.3700,1.5200,9.5027,0.0840,0.0447,-0.1614,-5.19,82.63,139.25,0.8263,9.5304,0.8949,9.6080
1,6,1,2,1,30.466,30466,1.6700,10.3500,1.3400,10.5692,0.0720,-0.0654,-0.1189,-5.56,81.69,139.63,0.9375,9.6384,0.9536,9.7308
1,6,1,2,1,30.596,30596,0.1900,8.5800,1.4900,8.7105,-0.0469,-0.0960,0.2618,-4.13,81.50,138.94,0.8390,9.4990,1.0243,9.5908
1,6,1,2,1,30.726,30726,1.5500,9.2900,1.4500,9.5294,-0.1745,-0.0665,0.0513,-6.50,82.31,141.94,0.9327,9.4714,1.0804,9.5784
1,6,1,2,1,30.856,30856,1.2400,9.3500,1.1100,9.4970,-0.2269,0.0109,0.4407,-6.94,83.75,142.88,0.9732,9.4554,1.0843,9.5670
1,6,1,2,1,30.986,30986,1.5600,10.3400,0.4800,10.4680,-0.2203,0.0556,0.0393,-8.88,85.38,144.75,1.0505,9.5720,1.0046,9.6817
1,6,1,2,1,31.117,31117,1.0100,10.6900,0.4000,10.7451,-0.0982,0.0316,-0.5858,-6.63,86.63,142.25,1.0452,9.7193,0.9250,9.8190
1,6,1,2,1,31.247,31247,-0.0200,9.2600,0.4000,9.2687,0.0284,0.0327,-0.0916,-3.31,86.88,138.81,0.9048,9.6588,0.8558,9.7387
1,6,1,2,1,31.378,31378,1.0600,10.3600,0.2700,10.4176,0.0502,0.0218,0.0338,-4.56,86.63,139.75,0.9252,9.7512,0.7786,9.8259
1,6,1,2,1,31.550,31550,0.4100,9.4400,0.6200,9.4692,0.0502,-0.0142,-0.1833,-2.31,86.19,137.56,0.8574,9.7102,0.7577,9.7774
1,6,1,2,1,31.680,31680,0.1600,9.5700,0.8500,9.6090,0.0458,-0.0185,-0.1920,-0.75,85.75,136.13,0.7655,9.6917,0.7699,9.7523
1,6,1,2,1,31.810,31810,-0.1900,10.5400,0.5200,10.5545,-0.0109,-0.0207,0.1473,-0.38,85.50,135.81,0.6396,9.8035,0.7369,9.8519
1,6,1,2,1,31.940,31940,-0.4900,10.6900,0.8500,10.7349,-0.0567,0.0011,-0.1113,-0.19,85.75,135.75,0.4907,9.9203,0.7518,9.9609
1,6,1,2,1,32.070,32070,-0.7100,10.6600,0.5800,10.6994,-0.0469,0.0393,0.3043,-0.06,86.06,135.44,0.3325,10.0178,0.7292,10.0498
1,7,1,2,1,32.201,32201,0.4200,9.2200,0.4700,9.2415,-0.0971,0.1014,0.4211,-3.63,86.63,138.56,0.3440,9.9127,0.6950,9.9429
1,7,1,2,1,32.331,32331,0.8900,10.2500,0.2300,10.2911,-0.0829,0.1036,0.1004,-4.44,87.38,138.63,0.4160,9.9571,0.6338,9.9859
1,7,1,2,1,32.462,32462,1.4700,9.6500,0.2200,9.7638,-0.0556,0.0873,-0.0404,-6.00,88.06,139.50,0.5549,9.9166,0.5792,9.9490
1,7,1,2,1,32.635,32635,0.3500,9.4500,0.2700,9.4603,-0.0360,0.0316,-0.1407,-3.31,88.63,136.38,0.5279,9.8551,0.5385,9.8840
1,7,1,2,1,32.767,32767,1.0900,10.1200,0.0100,10.1785,-0.0360,0.0709,0.4745,-5.00,89.00,137.69,0.6019,9.8900,0.4688,9.9194
1,7,1,2,1,32.898,32898,0.5800,9.4900,-0.1500,9.5089,0.0065,0.0065,-0.0251,-5.56,89.06,138.06,0.5990,9.8373,0.3873,9.8632
1,7,1,2,1,33.033,33033,1.7800,10.1500,-0.1300,10.3057,-0.0044,-0.0273,0.1985,-8.13,88.94,140.63,0.7547,9.8785,0.3191,9.9125
1,7,1,2,1,33.164,33164,1.1200,9.3800,0.1600,9.4480,-0.0033,-0.0796,-0.4014,-6.94,88.94,139.81,0.8028,9.8128,0.2982,9.8501
1,7,1,2,1,33.295,33295,0.5800,10.0300,0.0300,10.0468,0.0338,-0.0818,0.1265,-6.38,88.88,139.81,0.7734,9.8415,0.2628,9.8753
1,7,1,2,1,33.425,33425,1.6000,11.8600,0.8100,11.9948,0.0894,-0.0785,0.2771,-7.25,88.38,141.25,0.8824,10.1074,0.3349,10.1514
1,7,1,2,1,33.556,33556,2.0300,7.1100,-0.2000,7.3968,0.1811,-0.0665,-0.5149,-7.88,87.00,142.19,1.0336,9.7125,0.2644,9.7709
1,7,1,2,1,33.729,33729,0.9500,9.6700,0.4700,9.7279,-0.0469,0.0458,0.6032,-6.63,86.69,141.13,1.0226,9.7069,0.2915,9.7649
1,7,1,2,1,33.860,33860,0.9600,9.7800,0.5900,9.8447,0.0425,-0.0076,-0.0513,-8.06,86.75,142.56,1.0143,9.7165,0.3309,9.7749
1,7,1,2,1,33.990,33990,1.4800,9.7700,0.4200,9.8904,0.0098,0.0251,0.2967,-9.81,86.56,144.19,1.0757,9.7236,0.3426,9.7889
1,7,1,2,1,34.121,34121,1.8300,9.4900,0.5300,9.6794,0.0458,-0.0055,0.2956,-11.75,86.31,146.06,1.1751,9.6928,0.3673,9.7707
1,7,1,2,1,34.252,34252,2.8500,9.4500,0.5800,9.8874,-0.0142,-0.0196,0.3000,-13.94,86.13,148.31,1.3958,9.6608,0.3953,9.7691
1,7,1,2,1,34.382,34382,2.8100,9.2600,0.6300,9.6975,0.0022,-0.0535,-0.0415,-14.81,86.06,149.50,1.5822,9.6080,0.4263,9.7467
1,7,1,2,1,34.513,34513,2.5000,9.4800,0.6500,9.8256,0.0109,-0.0633,-0.0305,-14.44,85.94,149.50,1.7031,9.5911,0.4557,9.7518
1,7,1,2,1,34.643,34643,2.7000,9.2300,0.6700,9.6401,0.0131,-0.0458,0.0993,-15.25,85.75,150.63,1.8345,9.5435,0.4840,9.7303
1,7,1,2,1,34.816,34816,2.5900,9.7000,0.6400,10.0602,0.0109,-0.0480,0.0262,-15.31,85.56,151.19,1.9340,9.5641,0.5045,9.7708
1,7,1,2,1,34.950,34950,2.2900,9.3100,0.6900,9.6123,0.0120,-0.0273,-0.1974,-14.75,85.44,150.81,1.9809,9.5307,0.5290,9.7487
1,7,1,2,1,35.081,35081,2.3200,9.5500,0.7700,9.8579,0.0185,0.0262,0.1331,-14.56,85.38,150.63,2.0256,9.5332,0.5607,9.7621
1,7,1,2,1,35.212,35212,2.1600,9.4600,0.7700,9.7340,0.0076,0.0513,-0.2182,-13.88,85.38,149.63,2.0433,9.5236,0.5883,9.7580
1,7,1,2,1,35.342,35342,2.1000,9.0100,0.8200,9.2878,0.0207,0.0535,-0.1396,-12.50,85.38,147.88,2.0508,9.4559,0.6188,9.6955
1,7,1,2,1,35.473,35473,3.0300,9.4800,0.6700,9.9750,-0.0131,0.0196,-0.2422,-12.00,85.38,147.06,2.1798,9.4591,0.6256,9.7271
1,7,1,2,1,35.603,35603,0.7600,8.7100,0.2900,8.7479,-0.0295,0.0022,-0.3752,-8.00,85.56,143.06,1.9927,9.3604,0.5814,9.5878
1,7,1,2,1,35.734,35734,1.5600,10.2600,0.7500,10.4050,-0.0240,0.0218,0.1702,-7.75,85.88,142.69,1.9357,9.4789,0.6036,9.6933
1,7,1,2,1,35.907,35907,1.2500,10.3400,0.2400,10.4180,0.1047,-0.0567,-0.1614,-7.50,85.50,142.56,1.8453,9.5924,0.5557,9.7841
1,7,1,2,1,36.037,36037,1.0500,9.5400,0.5600,9.6139,0.0120,-0.0524,-0.0622,-7.44,85.13,142.81,1.7405,9.5855,0.5562,9.7581
1,7,1,2,1,36.168,36168,0.7100,9.2600,0.6700,9.3113,0.0044,-0.0229,0.2400,-7.38,85.00,143.06,1.6047,9.5426,0.5712,9.6934
1,7,1,2,1,36.298,36298,1.5600,9.3300,0.9500,9.5071,0.0382,-0.0251,-0.1025,-8.75,84.88,144.50,1.5988,9.5146,0.6211,9.6679
1,7,1,2,1,36.428,36428,1.4700,9.8400,0.7700,9.9789,0.0513,-0.0120,-0.0425,-8.00,84.44,143.88,1.5819,9.5575,0.6408,9.7086
1,7,1,2,1,36.558,36558,0.8400,9.6000,0.9200,9.6805,0.0545,-0.0098,-0.0960,-7.19,84.13,143.06,1.4841,9.5631,0.6776,9.7012
1,7,1,2,1,36.688,36688,1.1900,9.8200,1.1300,9.9562,0.0960,-0.0120,-0.0513,-7.69,83.56,143.50,1.4454,9.5969,0.7372,9.7331
1,7,1,2,1,36.818,36818,1.6400,9.3400,1.1100,9.5476,0.0818,-0.0076,0.0982,-7.63,82.88,143.44,1.4710,9.5631,0.7863,9.7074
1,7,1,2,1,36.991,36991,0.6800,9.7000,1.2600,9.8051,0.0065,-0.0098,-0.0578,-5.81,82.56,141.69,1.3668,9.5811,0.8487,9.7152
1,7,1,2,1,37.122,37122,0.7800,9.1800,1.3300,9.3086,-0.0284,-0.0633,-0.1189,-5.38,82.56,141.50,1.2894,9.5283,0.9121,9.6583
1,7,1,2,1,37.252,37252,0.7200,10.4600,1.4000,10.5778,-0.0295,-0.0993,-0.1953,-4.69,82.81,141.38,1.2144,9.6510,0.9764,9.7760
1,7,1,2,1,37.383,37383,0.3900,9.6200,1.0300,9.6828,-0.0742,-0.0774,-0.1724,-3.44,83.13,140.81,1.1058,9.6469,0.9835,9.7598
1,7,1,2,1,37.514,37514,0.6000,9.5800,0.8000,9.6321,-0.1320,-0.0524,-0.0774,-3.19,84.00,141.06,1.0391,9.6381,0.9593,9.7413
1,7,1,2,1,37.646,37646,0.1100,10.3000,0.5700,10.3163,0.0273,-0.0796,-0.5520,-1.44,84.38,139.75,0.9167,9.7253,0.9080,9.8106
1,7,1,2,1,37.777,37777,-0.9300,9.6900,0.5400,9.7495,0.0665,-0.0327,-0.1909,2.13,84.00,136.63,0.6733,9.7207,0.8595,9.7818
1,7,1,2,1,37.911,37911,-0.0900,9.6600,0.8900,9.7013,0.0458,-0.0044,0.0894,1.75,83.63,137.00,0.5728,9.7127,0.8635,9.7678
1,7,1,2,1,38.084,38084,-1.1000,9.4400,1.1500,9.5732,0.0218,0.0076,-0.3502,4.00,83.31,134.75,0.3523,9.6768,0.9013,9.7250
1,7,1,2,1,38.214,38214,-0.4400,9.3400,1.1100,9.4160,-0.0589,0.0316,0.1102,4.19,83.38,134.38,0.2479,9.6324,0.9288,9.6802
1,7,1,2,1,38.344,38344,-0.8400,11.0000,1.0800,11.0848,-0.0949,0.0087,-0.1145,4.69,84.06,133.75,0.1046,9.8126,0.9487,9.8589
1,7,1,2,1,38.474,38474,-1.5600,10.6000,0.7500,10.7404,-0.0600,-0.0011,0.1124,5.44,84.56,132.88,-0.1148,9.9164,0.9225,9.9598
1,7,1,2,1,38.604,38604,-0.4100,10.1600,0.4800,10.1796,-0.0774,0.0164,0.4734,2.25,85.13,136.00,-0.1537,9.9485,0.8642,9.9871
1,7,1,2,1,38.735,38735,-0.7300,9.0700,0.2800,9.1036,-0.1320,0.0240,0.0545,1.06,85.88,137.13,-0.2296,9.8327,0.7872,9.8668
1,7,1,2,1,38.865,38865,0.2400,9.9100,0.7000,9.9376,-0.0894,0.0611,0.2509,-0.19,86.88,138.06,-0.1677,9.8429,0.7757,9.8748
1,7,1,2,1,38.996,38996,0.3300,10.0800,0.4000,10.0933,-0.0022,0.0502,-0.0676,-0.75,87.13,138.19,-0.1022,9.8741,0.7262,9.9013
1,7,1,2,1,39.169,39169,0.0000,9.3400,0.0600,9.3402,-0.0164,0.0622,0.2323,-1.94,87.25,138.88,-0.0887,9.8037,0.6384,9.8249
1,7,1,2,1,39.299,39299,0.1700,8.4400,0.5800,8.4616,0.0349,0.0436,0.2902,-4.25,87.38,140.75,-0.0546,9.6240,0.6307,9.6448
1,7,1,2,1,39.430,39430,2.0300,10.5100,0.2800,10.7079,0.0480,-0.0033,0.0818,-7.31,87.00,143.63,0.2201,9.7408,0.5845,9.7608
1,7,1,2,1,39.560,39560,1.3600,10.2100,0.3700,10.3068,-0.0076,0.0065,0.0764,-6.63,86.88,142.94,0.3703,9.8026,0.5562,9.8254
1,7,1,2,1,39.691,39691,1.2000,9.0200,0.5100,9.1138,-0.0087,-0.0087,-0.2563,-6.81,87.00,143.06,0.4796,9.6995,0.5502,9.7269
1,7,1,2,1,39.822,39822,0.6500,9.5300,0.6400,9.5736,-0.0076,0.0218,0.0153,-5.75,87.19,141.94,0.5021,9.6772,0.5620,9.7065
1,7,1,2,1,39.952,39952,1.1700,10.8200,0.6800,10.9043,0.0055,0.0589,0.2847,-5.25,87.25,141.13,0.5901,9.8278,0.5775,9.8624
1,7,1,2,1,40.083,40083,0.8600,9.2400,0.2900,9.2845,0.0371,0.0087,-0.1625,-5.13,86.94,140.81,0.6257,9.7503,0.5397,9.7852
1,7,1,2,1,40.260,40260,1.8600,9.6400,0.9900,9.8676,-0.0545,-0.0131,-0.1909,-6.25,87.75,141.75,0.7883,9.7358,0.5990,9.7860
1,7,1,2,1,40.391,40391,1.0400,10.0700,-0.1700,10.1250,0.0033,-0.0404,0.1244,-4.94,87.63,140.81,0.8215,9.7798,0.4977,9.8269
1,7,1,2,1,40.521,40521,0.4900,8.7800,0.2300,8.7967,0.0295,-0.0622,0.0840,-5.00,87.44,141.25,0.7778,9.6481,0.4624,9.6904
1,7,1,2,1,40.652,40652,1.5200,9.0700,0.1600,9.1979,0.0502,-0.0218,0.7963,-8.00,87.13,144.50,0.8756,9.5719,0.4225,9.6211
1,7,1,2,1,40.782,40782,2.9700,9.8500,0.3700,10.2947,0.0033,-0.0971,-0.3382,-10.56,86.94,147.50,1.1516,9.6085,0.4156,9.6862
1,7,1,2,1,40.913,40913,0.8300,9.3800,0.2000,9.4188,0.0742,-0.0807,-0.1887,-6.31,86.50,143.94,1.1092,9.5784,0.3872,9.6502
1,7,1,2,1,41.043,41043,1.3800,9.6300,0.6700,9.7514,0.0524,-0.0425,-0.2563,-6.63,86.00,144.56,1.1449,9.5852,0.4245,9.6627
1,7,1,2,1,41.174,41174,-0.0800,9.9200,0.8300,9.9550,0.0600,0.0251,0.3458,-5.13,85.63,143.13,0.9835,9.6293,0.4779,9.6912
1,7,1,2,1,41.346,41346,0.1100,9.3300,0.9500,9.3789,0.0676,0.0480,-0.4080,-6.00,84.94,143.50,0.8684,9.5899,0.5401,9.6443
1,7,1,2,1,41.476,41476,0.7000,9.8100,0.9800,9.8836,0.0600,0.0982,-0.0753,-5.06,84.63,142.00,0.8462,9.6189,0.5981,9.6745
1,7,1,2,1,41.606,41606,0.7300,9.5400,0.9700,9.6169,0.0229,0.1069,0.0818,-5.06,84.31,141.13,0.8309,9.6085,0.6471,9.6660
1,7,1,2,1,41.736,41736,1.0400,9.8800,1.0300,9.9878,0.0120,0.0960,0.0742,-5.69,84.31,141.06,0.8584,9.6443,0.6976,9.7075
1,7,1,2,1,41.866,41866,1.1700,9.4200,0.8200,9.5277,0.0044,0.0535,0.0196,-5.69,84.19,140.50,0.8995,9.6147,0.7137,9.6830
1,7,1,2,1,41.996,41996,0.8900,9.8800,1.1500,9.9864,-0.0240,-0.0131,0.0295,-5.38,84.31,140.06,0.8982,9.6497,0.7712,9.7220
1,7,1,2,1,42.127,42127,1.1200,9.5800,0.8500,9.6826,-0.0415,-0.0676,-0.0720,-5.94,84.38,140.94,0.9275,9.6405,0.7816,9.7165
1,7,1,2,1,42.257,42257,0.9800,9.5800,0.9500,9.6767,-0.0469,-0.0851,0.1309,-6.06,84.69,141.63,0.9344,9.6325,0.8038,9.7111
1,7,1,2,1,42.430,42430,0.8700,9.7700,0.7400,9.8365,-0.0480,-0.0622,0.0469,-6.19,85.13,142.63,0.9259,9.6506,0.7954,9.7275
1,7,1,2,1,42.560,42560,0.9400,9.7400,0.7400,9.8132,-0.0447,-0.0284,-0.0513,-6.44,85.50,143.13,0.9278,9.6624,0.7881,9.7388
1,7,1,2,1,42.690,42690,1.0200,9.9300,0.5600,9.9979,-0.0284,0.0120,0.0982,-6.50,85.81,143.31,0.9399,9.6977,0.7580,9.7726
1,7,1,2,1,42.820,42820,1.0000,9.6900,0.5000,9.7543,-0.0044,0.0284,-0.0175,-6.56,86.00,143.25,0.9478,9.6967,0.7240,9.7697
1,7,1,2,1,42.950,42950,1.0800,9.2300,0.6200,9.3136,0.0175,0.0502,-0.0240,-6.63,86.06,143.00,0.9652,9.6352,0.7103,9.7094
1,7,1,2,1,43.080,43080,2.2900,10.5900,0.8100,10.8650,0.0644,0.0349,-0.2945,-5.63,85.88,141.69,1.1398,9.7610,0.7234,9.8539
1,7,1,2,1,43.210,43210,-1.2300,9.7000,0.3600,9.7843,0.0633,0.0251,-0.2029,1.25,85.25,134.69,0.8275,9.7530,0.6756,9.8113
1,7,1,2,1,43.341,43341,2.0400,9.5100,0.8600,9.7643,-0.0545,0.0447,0.4287,-3.88,85.38,139.38,0.9873,9.7209,0.6999,9.7960
1,7,1,2,1,43.514,43514,0.9600,11.4800,1.0100,11.5643,0.0764,-0.0578,-0.0273,-2.94,85.50,138.69,0.9837,9.9527,0.7407,10.0286
1,7,1,2,1,43.645,43645,0.1200,8.6400,0.5600,8.6590,0.1320,-0.0371,-0.0142,-2.00,84.50,138.13,0.8699,9.7798,0.7169,9.8445
1,7,1,2,1,43.775,43775,0.4100,8.8800,1.3100,8.9855,0.0502,-0.0316,0.1560,-2.56,83.81,138.81,0.8093,9.6612,0.7951,9.7276
1,7,1,2,1,43.907,43907,0.5000,9.8500,1.2200,9.9379,-0.0491,-0.0262,0.0338,-3.44,83.81,140.00,0.7685,9.6861,0.8511,9.7537
1,7,1,2,1,44.038,44038,0.0800,10.5000,0.8500,10.5347,0.0131,-0.0153,0.0600,-3.31,84.00,140.06,0.6778,9.7933,0.8509,9.8536
1,7,1,2,1,44.173,44173,0.4700,10.5100,0.9600,10.5642,0.2771,-0.0415,-0.3665,-4.50,82.88,141.25,0.6504,9.8878,0.8653,9.9468
1,7,1,2,1,44.303,44303,-0.1700,8.8000,1.0000,8.8583,0.1909,0.0480,0.4014,-3.31,80.94,140.00,0.5423,9.7444,0.8830,9.7994
1,7,1,2,1,44.435,44435,0.0000,8.8200,2.1600,9.0806,-0.0305,0.0753,-0.1505,-4.38,80.56,140.44,0.4708,9.6226,1.0513,9.6913
1,7,1,2,1,44.607,44607,1.1500,9.3500,2.0500,9.6409,-0.0349,0.0327,-0.0131,-6.19,80.94,141.69,0.5603,9.5867,1.1829,9.6756
1,7,1,2,1,44.738,44738,1.2600,8.8700,1.4800,9.0805,-0.1014,-0.0044,0.1309,-6.44,81.44,141.94,0.6525,9.4922,1.2221,9.5928
1,8,1,2,1,44.868,44868,1.3300,10.5000,1.2600,10.6586,-0.1047,-0.0633,-0.3567,-6.13,82.25,141.94,0.7418,9.6250,1.2271,9.7313
1,8,1,2,1,44.998,44998,1.7700,9.1900,0.9100,9.4030,-0.0044,-0.0469,0.3283,-6.25,82.44,142.44,0.8773,9.5677,1.1853,9.6807
1,8,1,2,1,45.128,45128,1.8600,9.5500,0.9200,9.7728,-0.0665,-0.0262,-0.0185,-7.06,82.69,143.56,1.0068,9.5654,1.1503,9.6868
1,8,1,2,1,45.259,45259,0.5000,9.4500,1.4000,9.5662,-0.0687,-0.0633,-0.4342,-3.50,83.25,140.38,0.9400,9.5502,1.1832,9.6690
1,8,1,2,1,45.389,45389,0.5700,9.7700,1.2600,9.8674,-0.0742,-0.0796,-0.1113,-2.69,83.75,140.06,0.8913,9.5791,1.1933,9.6942
1,8,1,2,1,45.519,45519,-0.3200,9.9400,0.6100,9.9638,-0.0633,-0.0654,-0.0436,-2.19,84.25,140.13,0.7316,9.6267,1.1165,9.7188
1,8,1,2,1,45.692,45692,0.1800,10.1000,0.9400,10.1452,-0.0469,-0.0120,-0.1571,-1.25,84.81,139.50,0.6589,9.6891,1.0932,9.7728
1,8,1,2,1,45.822,45822,0.0600,9.7100,0.6100,9.7293,-0.0371,0.0175,-0.1233,-0.19,85.13,138.44,0.5800,9.6918,1.0295,9.7636
1,8,1,2,1,45.952,45952,0.2800,10.1200,0.6900,10.1474,-0.0556,0.0458,-0.0884,0.44,85.56,137.44,0.5405,9.7482,0.9848,9.8128
1,8,1,2,1,46.082,46082,0.2000,9.9400,0.5100,9.9551,-0.0196,0.0218,-0.1800,1.25,85.94,136.44,0.4956,9.7735,0.9222,9.8294
1,8,1,2,1,46.212,46212,-0.2000,9.0600,0.4800,9.0749,0.0273,-0.0207,-0.3632,2.81,85.94,134.81,0.4040,9.6795,0.8640,9.7264
1,8,1,2,1,46.342,46342,-2.4100,11.7300,0.8000,12.0017,0.0229,-0.0240,-0.4560,6.81,85.81,131.06,0.0331,9.9497,0.8555,9.9865
1,8,1,2,1,46.472,46472,-1.8700,10.3400,0.7100,10.5317,0.0262,0.0284,0.4723,7.19,85.63,130.69,-0.2176,10.0011,0.8364,10.0384
1,8,1,2,1,46.602,46602,0.0700,10.2400,0.7100,10.2648,0.0142,-0.0098,0.5138,2.50,85.50,135.25,-0.1797,10.0326,0.8197,10.0676
1,8,1,2,1,46.775,46775,-0.3700,9.4600,0.6900,9.4923,0.0022,-0.0273,0.2018,1.81,85.50,136.38,-0.2048,9.9572,0.8026,9.9915
1,8,1,2,1,46.905,46905,0.7600,9.5200,0.7600,9.5805,-0.0218,0.0185,0.4985,-1.25,85.56,139.50,-0.0777,9.8995,0.7970,9.9319
1,8,1,2,1,47.035,47035,-0.0300,9.4100,0.8500,9.4484,-0.0567,-0.0207,0.2978,-2.44,85.81,140.81,-0.0714,9.8350,0.8040,9.8681
1,8,1,2,1,47.165,47165,0.8900,10.8000,1.1500,10.8975,-0.0218,0.0175,0.1036,-3.56,86.38,141.88,0.0553,9.9622,0.8496,9.9985
1,8,1,2,1,47.295,47295,-0.1000,9.8300,0.1700,9.8320,0.0633,0.0087,-0.2018,-2.44,86.06,140.69,0.0348,9.9448,0.7600,9.9738
1,8,1,2,1,47.425,47425,-0.2600,8.8100,0.5000,8.8280,0.0338,0.0633,0.1963,-2.56,85.75,140.50,-0.0040,9.7952,0.7258,9.8221
1,8,1,2,1,47.555,47555,0.4700,9.6400,0.8700,9.6906,0.0404,0.0654,0.3033,-3.88,85.63,141.38,0.0584,9.7748,0.7448,9.8033
1,8,1,2,1,47.686,47686,0.3900,9.3800,0.6900,9.4134,0.0404,0.0425,0.5651,-6.25,85.25,143.31,0.1021,9.7228,0.7376,9.7512
1,8,1,2,1,47.858,47858,1.8100,9.3500,0.7400,9.5523,-0.0404,-0.0011,-0.2203,-8.88,85.31,145.75,0.3272,9.6736,0.7379,9.7073
1,8,1,2,1,47.988,47988,1.4900,10.5100,0.9300,10.6558,-0.0305,-0.0044,-0.1745,-7.38,85.69,144.25,0.4804,9.7839,0.7632,9.8253
1,8,1,2,1,48.118,48118,1.0300,9.5900,0.2100,9.6474,-0.0589,0.0131,-0.0142,-5.38,85.88,142.31,0.5528,9.7583,0.6903,9.7983
1,8,1,2,1,48.248,48248,0.0300,9.5100,0.8400,9.5471,-0.0807,-0.0044,-0.5149,-3.31,86.38,140.19,0.4839,9.7256,0.7100,9.7635
1,8,1,2,1,48.379,48379,1.2700,8.6600,0.5800,8.7718,0.0142,0.0109,0.1789,-3.44,86.50,140.25,0.5875,9.5852,0.6929,9.6281
1,8,1,2,1,48.509,48509,0.8700,10.3500,0.7300,10.4121,-0.0164,-0.0044,0.0382,-3.44,86.63,140.25,0.6247,9.6860,0.6978,9.7311
1,8,1,2,1,48.639,48639,-0.0300,8.1700,-0.1100,8.1708,0.0556,-0.0436,-0.0633,-2.38,86.25,139.50,0.5385,9.4862,0.5913,9.5198
1,9,1,2,1,48.769,48769,0.2100,10.2500,0.7800,10.2818,-0.0436,-0.0305,0.1473,-3.69,86.50,141.00,0.4952,9.5868,0.6162,9.6194
1,9,1,2,1,48.942,48942,0.8400,10.6400,0.5600,10.6878,-0.0273,-0.0196,0.2302,-4.31,86.19,142.06,0.5406,9.7256,0.6088,9.7596
1,9,1,2,1,49.072,49072,0.4800,9.2100,0.9900,9.2755,0.0785,-0.0109,0.1451,-5.25,86.00,143.13,0.5326,9.6577,0.6590,9.6948
1,9,1,2,1,49.202,49202,1.8900,10.0700,0.7600,10.2740,0.0360,0.0120,0.2247,-7.19,85.56,144.94,0.7115,9.7120,0.6723,9.7612
1,9,1,2,1,49.332,49332,0.9500,9.7800,0.8900,9.8663,0.0458,0.0567,0.4701,-6.94,85.31,144.56,0.7429,9.7210,0.7010,9.7745
1,9,1,2,1,49.462,49462,2.0400,9.2400,0.9300,9.5081,0.0415,0.0273,-0.1047,-8.44,84.94,145.75,0.9138,9.6576,0.7312,9.7282
1,9,1,2,1,49.592,49592,1.4100,9.6000,0.9100,9.7456,0.0240,0.0098,-0.1418,-6.94,84.69,144.06,0.9792,9.6500,0.7548,9.7289
1,9,1,2,1,49.723,49723,1.3400,9.5800,1.0000,9.7248,-0.0033,0.0164,-0.0109,-6.81,84.63,143.81,1.0268,9.6408,0.7871,9.7272
1,9,1,2,1,49.854,49854,1.0600,9.4700,0.7300,9.5571,-0.0196,0.0044,-0.0273,-6.69,84.63,143.69,1.0311,9.6183,0.7795,9.7047
1,9,1,2,1,50.026,50026,1.3600,9.5900,0.8200,9.7206,-0.0131,-0.0044,0.0644,-6.81,84.75,143.81,1.0745,9.6145,0.7849,9.7062
1,9,1,2,1,50.157,50157,1.1100,9.0600,0.7800,9.1610,-0.0175,-0.0371,-0.3545,-6.38,84.81,143.50,1.0792,9.5415,0.7842,9.6343
1,9,1,2,1,50.287,50287,0.5900,9.8900,0.4900,9.9197,-0.0611,0.0000,0.2280,-5.50,85.13,142.81,1.0147,9.5874,0.7455,9.6697
1,9,1,2,1,50.418,50418,0.6400,8.1400,0.3100,8.1710,0.0033,-0.0316,-0.6741,-3.75,85.38,141.25,0.9653,9.3967,0.6881,9.4712
1,9,1,2,1,50.548,50548,-0.2800,9.7400,0.4000,9.7522,0.0175,0.0251,-0.0382,-0.63,85.38,138.19,0.8012,9.4419,0.6501,9.4981
1,9,1,2,1,50.679,50679,1.0100,10.6800,1.1900,10.7935,0.0371,0.0458,0.2858,-3.19,85.38,140.38,0.8287,9.6051,0.7213,9.6677
1,9,1,2,1,50.810,50810,-0.5100,9.0100,-0.1300,9.0254,0.0262,0.0229,0.0491,-2.63,85.00,139.69,0.6523,9.5266,0.6091,9.5684
1,9,1,2,1,50.940,50940,0.7400,10.2700,1.0500,10.3500,-0.0164,0.0513,-0.1091,-4.25,85.13,140.88,0.6639,9.6246,0.6672,9.6705
1,9,1,2,1,51.113,51113,0.8800,10.1100,0.4600,10.1586,0.0796,-0.0207,0.0644,-5.75,84.50,142.19,0.6924,9.6886,0.6399,9.7343
1,9,1,2,1,51.247,51247,1.0900,10.0900,0.8500,10.1842,-0.0022,0.0000,-0.1091,-5.44,84.25,141.88,0.7448,9.7415,0.6676,9.7927
1,9,1,2,1,51.379,51379,0.9900,9.3000,0.6300,9.3737,-0.0960,-0.0033,0.1462,-6.25,84.50,142.75,0.7771,9.6833,0.6626,9.7370
1,9,1,2,1,51.510,51510,1.5500,10.0100,0.9500,10.1737,-0.0600,-0.0295,0.2160,-7.81,85.13,144.50,0.8789,9.7263,0.7005,9.7911
1,9,1,2,1,51.640,51640,2.4700,10.9900,0.9100,11.3008,-0.0251,-0.0524,-0.1353,-8.56,85.38,145.56,1.0886,9.8929,0.7281,9.9792
1,9,1,2,1,51.770,51770,0.2800,9.3700,0.6500,9.3967,0.0076,-0.0480,-0.4472,-4.25,85.38,141.69,0.9820,9.8240,0.7178,9.8990
1,9,1,2,1,51.901,51901,0.4600,8.9700,0.3900,8.9903,0.0000,0.0153,0.0720,-3.63,85.44,141.13,0.9132,9.7114,0.6746,9.7776
1,9,1,2,1,52.031,52031,0.7800,9.9800,1.0700,10.0675,-0.0404,0.0927,0.0240,-4.06,85.75,141.13,0.8957,9.7468,0.7267,9.8148
1,9,1,2,1,52.204,52204,0.4500,9.9200,0.7600,9.9592,0.0371,0.0382,-0.1767,-3.56,85.81,139.94,0.8370,9.7696,0.7311,9.8326
1,9,1,2,1,52.334,52334,0.7600,9.7700,0.7600,9.8289,0.0556,0.0196,-0.0796,-3.13,85.50,139.19,0.8268,9.7697,0.7349,9.8321
1,9,1,2,1,52.464,52464,0.5900,9.8000,0.7800,9.8487,0.0295,-0.0207,-0.0262,-2.13,85.25,138.25,0.7956,9.7737,0.7408,9.8340
1,9,1,2,1,52.594,52594,0.4300,9.8000,0.7100,9.8351,0.0022,-0.0633,-0.1233,-1.63,85.19,138.00,0.7474,9.7772,0.7368,9.8333
1,9,1,2,1,52.724,52724,0.0000,9.7800,0.8000,9.8127,0.0153,-0.0545,0.0753,-1.06,85.13,137.94,0.6489,9.7775,0.7451,9.8273
1,9,1,2,1,52.854,52854,-0.0200,9.0100,0.7100,9.0380,0.0098,-0.0295,-0.0720,-1.31,85.06,138.44,0.5608,9.6764,0.7405,9.7209
1,9,1,2,1,52.984,52984,-0.4100,11.5400,0.9300,11.5847,-0.0262,0.0316,0.0153,-0.63,85.25,137.75,0.4329,9.9220,0.7655,9.9609
1,9,1,2,1,53.115,53115,-0.1600,10.4100,0.8500,10.4459,-0.0251,0.0764,0.1778,-0.94,85.44,137.69,0.3547,9.9863,0.7766,10.0227
1,9,1,2,1,53.288,53288,1.3400,10.8100,0.9000,10.9299,0.0022,0.0382,-0.3218,-1.88,85.56,137.88,0.4846,10.0948,0.7929,10.1375
1,9,1,2,1,53.419,53419,-1.3000,9.3100,0.6300,9.4214,0.0120,0.0545,-0.3894,2.06,85.56,133.56,0.2494,9.9914,0.7714,10.0242
1,9,1,2,1,53.549,53549,1.1700,11.0900,0.8200,11.1817,0.0055,0.0305,-0.0185,-0.25,85.50,135.44,0.3707,10.1362,0.7778,10.1727
1,9,1,2,1,53.680,53680,-0.4500,8.9900,0.2700,9.0053,0.0044,0.0022,0.5454,0.94,85.38,134.19,0.2626,9.9851,0.7109,10.0138
1,9,1,2,1,53.810,53810,0.3300,10.2700,0.7300,10.3012,0.0076,-0.0480,0.3469,-1.81,85.44,137.13,0.2715,10.0227,0.7134,10.0517
1,9,1,2,1,53.943,53943,0.7900,10.0000,0.6100,10.0497,0.0611,-0.0654,-0.0415,-3.13,85.13,138.88,0.3398,10.0197,0.6998,10.0498
1,9,1,2,1,54.073,54073,0.6000,9.0100,0.9500,9.0798,0.0654,-0.0284,0.2553,-3.00,84.63,139.06,0.3741,9.8866,0.7328,9.9208
1,9,1,2,1,54.208,54208,-0.3600,11.0400,0.3600,11.0517,-0.0153,-0.0393,-0.7298,-1.75,84.44,138.00,0.2773,10.0386,0.6836,10.0657
1,9,1,2,1,54.381,54381,0.1400,9.0900,1.0200,9.1481,0.1047,-0.0022,0.5814,-1.63,83.81,138.00,0.2592,9.9136,0.7280,9.9437
1,9,1,2,1,54.511,54511,0.6500,9.6700,0.6700,9.7150,0.0502,-0.0207,0.2574,-3.75,83.13,140.19,0.3107,9.8815,0.7203,9.9126
1,9,1,2,1,54.641,54641,0.3900,9.5700,1.1500,9.6467,-0.0894,-0.0349,-0.0687,-3.38,83.25,140.00,0.3212,9.8405,0.7769,9.8763
1,9,1,2,1,54.771,54771,0.6900,9.0400,0.8800,9.1089,-0.0905,-0.0349,0.0262,-4.25,84.06,141.13,0.3698,9.7350,0.7905,9.7740
1,9,1,2,1,54.901,54901,0.9400,10.1600,0.9400,10.2466,-0.0185,-0.0840,0.2127,-4.63,84.44,142.00,0.4449,9.7910,0.8102,9.8345
1,9,1,2,1,55.032,55032,2.2900,9.1500,0.7700,9.4636,-0.0840,-0.1473,-0.3229,-6.81,84.81,145.13,0.6881,9.7065,0.8049,9.7641
1,9,1,2,1,55.162,55162,0.5600,10.7600,1.5000,10.8785,0.0349,-0.1374,0.1942,-2.94,85.00,142.44,0.6712,9.8453,0.8965,9.9088
1,9,1,2,1,55.293,55293,1.1300,9.0400,-0.2300,9.1133,-0.0207,-0.0829,0.0207,-3.19,84.88,143.56,0.7316,9.7392,0.7481,9.7953
1,9,1,2,1,55.466,55466,-1.7000,7.6600,1.5800,8.0039,-0.0305,-0.1233,-0.2127,1.94,85.75,139.50,0.4112,9.4652,0.8577,9.5129
1,9,1,2,1,55.597,55597,-0.9000,10.0400,0.2900,10.0844,0.1134,-0.0011,0.6916,-0.56,85.13,142.44,0.2384,9.5410,0.7829,9.5760
1,9,1,2,1,55.728,55728,-0.3500,8.9300,1.0900,9.0031,0.0873,0.0305,-0.0622,-3.44,84.50,145.13,0.1609,9.4605,0.8234,9.4976
1,10,1,2,1,55.858,55858,0.3900,10.1800,1.2400,10.2627,0.1124,0.1091,0.5345,-4.88,83.88,146.00,0.1911,9.5553,0.8783,9.5975
1,10,1,2,1,55.989,55989,0.6800,9.2400,1.5100,9.3872,0.0764,0.1156,-0.1571,-5.63,83.38,145.81,0.2555,9.5137,0.9615,9.5656
1,10,1,2,1,56.119,56119,1.6000,9.4400,1.2100,9.6508,0.0175,0.1353,-0.0774,-6.44,83.06,145.56,0.4327,9.5040,0.9943,9.5657
1,10,1,2,1,56.254,56254,0.8100,9.5800,1.2000,9.6888,-0.0044,0.0687,-0.1745,-5.88,83.06,144.13,0.4824,9.5140,1.0214,9.5808
1,10,1,2,1,56.385,56385,1.0000,9.7400,0.9900,9.8411,0.0240,0.0185,0.1636,-6.44,83.06,144.44,0.5506,9.5438,1.0172,9.6136
1,10,1,2,1,56.558,56558,1.5500,9.4700,1.1400,9.6635,0.0207,-0.0055,0.1134,-8.25,82.63,146.19,0.6823,9.5341,1.0334,9.6142
1,10,1,2,1,56.688,56688,0.9600,9.3700,1.3300,9.5125,-0.0349,0.0044,0.0654,-7.69,82.75,145.69,0.7189,9.5125,1.0725,9.5997
1,10,1,2,1,56.818,56818,1.3300,9.9800,0.9300,10.1111,-0.0469,0.0207,0.0676,-8.06,83.06,146.06,0.7994,9.5741,1.0537,9.6650
1,10,1,2,1,56.949,56949,1.2600,9.8300,0.7800,9.9411,-0.0087,0.0153,0.0654,-7.88,83.38,145.75,0.8601,9.6078,1.0176,9.6997
1,10,1,2,1,57.079,57079,1.4000,9.5000,1.0200,9.6566,-0.0164,0.0131,0.0349,-7.56,83.44,145.44,0.9313,9.5936,1.0180,9.6923
1,10,1,2,1,57.210,57210,1.4300,9.1000,1.0600,9.2725,0.0098,0.0022,0.1025,-7.50,83.50,145.38,0.9970,9.5285,1.0235,9.6351
1,10,1,2,1,57.340,57340,1.4800,9.3400,1.0500,9.5146,-0.0327,-0.0240,-0.0709,-7.94,83.63,145.88,1.0606,9.5037,1.0270,9.6177
1,10,1,2,1,57.471,57471,1.0400,9.2900,0.8400,9.3857,-0.0338,-0.0295,0.0033,-6.94,83.81,145.13,1.0579,9.4755,1.0023,9.5870
1,10,1,2,1,57.643,57643,1.2400,9.0000,0.7100,9.1127,-0.0044,-0.0033,-0.3447,-5.88,84.06,144.19,1.0819,9.4129,0.9638,9.5237
1,10,1,2,1,57.773,57773,0.5400,9.9600,0.6600,9.9964,0.0436,0.0327,0.2345,-5.13,83.75,143.44,1.0105,9.4850,0.9238,9.5833
1,10,1,2,1,57.903,57903,0.8800,10.1700,1.1900,10.2771,-0.0513,0.0796,-0.1854,-5.06,84.00,142.94,0.9933,9.5752,0.9589,9.6743
1,10,1,2,1,58.033,58033,0.0000,9.9000,0.9200,9.9427,0.0382,0.0785,0.0654,-3.88,84.06,141.31,0.8624,9.6180,0.9537,9.7036
1,10,1,2,1,58.163,58163,1.0300,9.3400,0.8500,9.4350,0.0393,0.0622,0.0415,-5.06,83.94,141.88,0.8845,9.5814,0.9401,9.6680
1,10,1,2,1,58.293,58293,0.6900,9.3300,0.5000,9.3688,-0.0295,0.0251,0.3622,-5.94,83.94,142.44,0.8589,9.5483,0.8821,9.6273
1,10,1,2,1,58.424,58424,2.0700,10.8000,1.3300,11.0767,0.0065,-0.0044,0.1156,-8.38,84.06,144.81,1.0185,9.7132,0.9411,9.8117
1,10,1,2,1,58.555,58555,1.0500,9.1300,1.1000,9.2558,0.0960,-0.0665,-0.2803,-7.19,83.56,143.88,1.0226,9.6364,0.9620,9.7381
1,10,1,2,1,58.727,58727,0.7300,9.7800,1.3000,9.8930,0.1080,-0.1145,-0.0545,-6.44,82.38,143.81,0.9841,9.6553,1.0066,9.7574
1,10,1,2,1,58.857,58857,1.0400,8.8500,1.5200,9.0396,0.0065,-0.1156,0.0927,-7.75,81.81,145.94,0.9914,9.5492,1.0742,9.6604
1,10,1,2,1,58.987,58987,1.3100,10.0800,1.4000,10.2607,-0.0589,-0.0884,-0.0360,-7.00,81.94,145.94,1.0334,9.6191,1.1172,9.7388
1,10,1,2,1,59.117,59117,-0.2900,8.5300,1.5400,8.6728,-0.1385,-0.0458,-0.0840,-5.50,82.69,145.06,0.8590,9.4756,1.1729,9.5865
1,10,1,2,1,59.247,59247,1.3500,9.8700,0.7500,9.9901,-0.1069,0.0327,0.2171,-8.13,83.56,147.81,0.9237,9.5276,1.1172,9.6372
1,10,1,2,1,59.378,59378,1.2900,9.3000,0.7500,9.4189,-0.0927,0.0709,-0.2051,-7.19,84.44,146.56,0.9720,9.4976,1.0688,9.6068
1,10,1,2,1,59.508,59508,1.3700,10.2600,0.6200,10.3696,0.0000,0.0611,-0.3098,-5.81,84.94,144.63,1.0244,9.5981,1.0096,9.7052
1,10,1,2,1,59.639,59639,-0.2400,9.8900,0.8500,9.9294,0.1025,0.0076,-0.2182,-1.88,84.56,140.56,0.8578,9.6365,0.9886,9.7250
1,10,1,2,1,59.811,59811,0.9000,9.3000,0.9600,9.3926,0.0513,-0.0578,-0.0011,-3.00,83.69,141.81,0.8634,9.5922,0.9848,9.6812
1,10,1,2,1,59.941,59941,0.8800,9.7100,1.2300,9.8271,-0.0829,-0.0851,-0.0949,-2.69,83.81,142.00,0.8656,9.6077,1.0171,9.7001
1,10,1,2,1,60.071,60071,-0.0500,10.0000,1.1100,10.0615,-0.1244,-0.0785,-0.3316,-0.94,84.56,140.94,0.7449,9.6594,1.0294,9.7426
1,10,1,2,1,60.201,60201,-0.5800,9.9300,0.7000,9.9715,-0.1233,0.0164,-0.1985,0.94,85.44,139.25,0.5703,9.6951,0.9860,9.7617
1,10,1,2,1,60.331,60331,-1.1400,10.2200,0.4500,10.2932,-0.1025,0.1004,-0.1494,3.06,86.38,136.69,0.3449,9.7642,0.9153,9.8131
1,10,1,2,1,60.461,60461,-0.5100,9.4600,0.3700,9.4810,-0.0447,0.1396,0.1025,2.50,86.94,136.25,0.2323,9.7241,0.8435,9.7634
1,10,1,2,1,60.592,60592,-0.3800,12.1000,0.3400,12.1107,0.0545,0.0916,-0.0807,2.69,86.94,135.25,0.1516,10.0372,0.7771,10.0684
1,10,1,2,1,60.722,60722,-0.0200,10.0100,0.4200,10.0188,0.0862,0.0654,-0.0338,2.69,86.25,134.69,0.1290,10.0336,0.7301,10.0610
1,10,1,2,1,60.895,60895,-0.0800,9.9700,0.8200,10.0040,0.0971,-0.0665,0.3065,0.88,85.31,136.50,0.1015,10.0252,0.7419,10.0532
1,10,1,2,1,61.025,61025,0.4600,7.9300,0.8900,7.9930,-0.0633,-0.0720,0.4451,-2.31,85.25,140.31,0.1487,9.7491,0.7614,9.7800
1,10,1,2,1,61.155,61155,0.2500,8.8200,0.8700,8.8663,-0.1298,-0.0873,0.2323,-3.63,85.88,142.38,0.1620,9.6267,0.7757,9.6593
1,10,1,2,1,61.285,61285,-0.2300,10.2000,0.9400,10.2458,-0.1145,-0.0927,0.0196,-4.50,86.69,143.94,0.1104,9.7023,0.7974,9.7356
1,10,1,2,1,61.415,61415,1.6200,9.6700,0.5000,9.8175,-0.1102,0.0142,0.0567,-8.81,87.50,148.50,0.3093,9.6980,0.7582,9.7325
1,10,1,2,1,61.545,61545,0.9400,9.0000,0.3100,9.0543,-0.0567,0.0404,-0.1734,-8.38,88.06,147.88,0.3924,9.6060,0.6991,9.6394
1,10,1,2,1,61.675,61675,1.7000,9.4900,0.7500,9.6702,-0.0120,0.0567,-0.4058,-8.25,88.38,147.38,0.5647,9.5907,0.7058,9.6332
1,10,1,2,1,61.806,61806,1.3000,10.0500,0.5300,10.1476,0.0284,0.1265,-0.5181,-7.13,88.44,145.50,0.6616,9.6513,0.6827,9.6980
1,10,1,2,1,61.979,61979,0.2100,8.3700,-0.2100,8.3753,0.0654,0.1145,-0.2596,-5.44,88.13,142.38,0.6021,9.4824,0.5650,9.5183
1,10,1,2,1,62.110,62110,1.9700,10.2200,0.3500,10.4140,-0.0349,0.0862,-0.0273,-6.38,87.94,142.44,0.7824,9.5796,0.5367,9.6265
1,10,1,2,1,62.240,62240,0.4200,8.3100,0.7400,8.3534,0.0109,-0.0109,-0.0665,-4.25,88.38,140.13,0.7346,9.4123,0.5635,9.4577
1,10,1,2,1,62.373,62373,0.3900,11.1600,0.6600,11.1863,0.0185,-0.0404,-0.3098,-4.75,88.44,140.81,0.6892,9.6426,0.5762,9.6844
1,10,1,2,1,62.504,62504,0.2700,8.6800,-0.1900,8.6863,0.0884,-0.0774,-0.1516,-4.63,87.94,140.94,0.6340,9.5158,0.4752,9.5487
1,10,1,2,1,62.638,62638,1.7700,11.4800,0.7900,11.6425,-0.0382,-0.0273,0.1124,-5.56,87.56,142.31,0.7837,9.7746,0.5167,9.8196
1,10,1,2,1,62.769,62769,-0.5100,9.2900,-0.2600,9.3076,-0.2313,-0.0044,-0.2498,-4.25,88.50,141.19,0.6132,9.7107,0.4144,9.7389
1,10,1,2,1,62.900,62900,1.0200,9.5700,0.3700,9.6313,0.0698,-0.0840,-0.4320,-3.69,89.06,140.75,0.6668,9.6922,0.4085,9.7237
1,10,1,2,1,63.072,63072,0.0000,9.5000,-0.6400,9.5215,0.1080,-0.0185,0.3589,-2.44,88.00,140.06,0.5789,9.6669,0.2704,9.6880
