participant,rep,equipment_code,exercise_code,quality_code,timestamp,timestamp_ms,accelX,accelY,accelZ,accelMag,gyroX,gyroY,gyroZ,roll,pitch,yaw,filteredX,filteredY,filteredZ,filteredMag
3,1,1,2,1,00.000,0,-0.6500,9.5900,0.8700,9.6513,-0.0022,0.0742,0.0153,3.19,85.63,308.88,-0.5413,9.6859,0.7876,9.7329
3,1,1,2,1,00.121,121,0.0000,9.4300,0.7100,9.4567,-0.0404,0.0535,0.1156,2.13,85.75,309.50,-0.4700,9.6522,0.7774,9.6948
3,1,1,2,1,00.243,243,-0.2800,9.6900,0.5700,9.7108,-0.0382,0.0164,-0.2967,2.56,86.06,308.75,-0.4449,9.6571,0.7500,9.6964
3,1,1,2,1,00.409,409,-0.3500,9.9300,0.7400,9.9637,0.0153,0.0065,0.2323,2.94,86.19,308.38,-0.4324,9.6931,0.7487,9.7316
3,1,1,2,1,00.530,530,-0.1600,9.7100,0.7000,9.7365,0.0589,-0.0295,0.0065,2.06,85.94,309.31,-0.3965,9.6953,0.7423,9.7318
3,1,1,2,1,00.650,650,-0.1700,9.5300,0.7700,9.5626,0.0404,-0.0502,0.0818,1.69,85.56,310.00,-0.3667,9.6735,0.7459,9.7092
3,1,1,2,1,00.771,771,-0.4000,9.6400,0.7600,9.6782,-0.0022,-0.0273,0.0720,1.63,85.50,310.38,-0.3711,9.6691,0.7478,9.7051
3,1,1,2,1,00.892,892,0.2200,10.3800,0.8700,10.4187,-0.0491,-0.0022,-0.1473,1.19,85.63,310.88,-0.2932,9.7628,0.7639,9.7970
3,1,1,2,1,01.014,1014,-1.5400,11.7600,0.8700,11.8923,-0.0142,-0.0273,-0.7712,5.13,85.81,307.06,-0.4575,10.0260,0.7779,10.0665
3,1,1,2,1,01.135,1135,-0.6100,12.2300,0.8600,12.2754,0.0938,0.0185,-0.2345,7.00,85.38,305.13,-0.4776,10.3164,0.7887,10.3575
3,1,1,2,1,01.260,1260,-2.5500,9.7400,0.7000,10.0926,0.0513,-0.0098,-0.2258,11.06,84.69,301.19,-0.7507,10.2405,0.7770,10.2973
3,1,1,2,1,01.422,1422,-0.5000,9.7500,1.3400,9.8543,-0.0262,-0.0993,-0.1636,7.25,84.88,305.38,-0.7176,10.1758,0.8512,10.2365
3,1,1,2,1,01.543,1543,-0.5000,9.8700,1.0700,9.9404,-0.0611,-0.0894,0.7647,6.06,85.31,307.31,-0.6890,10.1355,0.8800,10.1970
3,1,1,2,1,01.664,1664,-1.1000,7.0300,0.7400,7.1539,-0.0785,-0.0982,-0.2083,5.88,85.81,308.13,-0.7431,9.7263,0.8616,9.7926
3,1,1,2,1,01.786,1786,-0.6700,7.0500,0.1200,7.0828,-0.0153,0.0436,1.6450,0.19,86.50,314.00,-0.7335,9.3736,0.7639,9.4333
3,1,1,2,1,01.912,1912,2.8800,9.8800,-0.6600,10.3123,-0.0207,0.0033,-0.2149,-7.38,86.13,321.19,-0.2573,9.4404,0.5762,9.4614
3,1,1,2,1,02.033,2033,-1.9100,8.6900,0.4000,8.9064,0.0305,0.0371,-0.7156,2.81,86.06,310.94,-0.4751,9.3415,0.5530,9.3699
3,1,1,2,1,02.154,2154,0.3100,10.3900,0.3300,10.3999,-0.0567,0.1418,0.7079,-1.13,86.19,314.19,-0.3716,9.4796,0.5236,9.5014
3,1,1,2,1,02.275,2275,-0.3000,9.5400,0.5000,9.5578,0.0393,0.0982,-0.4429,-0.25,86.06,312.50,-0.3622,9.4876,0.5205,9.5088
3,1,1,2,1,02.438,2438,0.4200,9.0200,0.4400,9.0405,-0.0218,0.1004,0.4865,-1.13,85.75,312.44,-0.2591,9.4260,0.5099,9.4433
3,1,1,2,1,02.564,2564,0.9600,8.1900,0.6800,8.2741,0.0153,0.0295,-0.3283,-1.50,85.75,312.38,-0.0985,9.2631,0.5323,9.2789
3,1,1,2,1,02.685,2685,-0.6100,8.8600,0.8800,8.9245,0.0153,-0.0022,-0.1713,1.31,85.75,309.50,-0.1659,9.2100,0.5781,9.2296
3,2,1,2,1,02.805,2805,0.1100,9.2500,0.7700,9.2826,0.0055,-0.0240,0.1985,0.69,85.69,310.25,-0.1295,9.2153,0.6034,9.2359
3,2,1,2,1,02.926,2926,-0.7500,9.6700,0.7300,9.7265,-0.0371,-0.1167,-0.6120,1.88,85.81,309.50,-0.2113,9.2752,0.6201,9.2983
3,2,1,2,1,03.048,3048,-0.7400,9.4300,0.5000,9.4722,-0.0087,-0.0720,0.0698,3.06,85.88,308.88,-0.2810,9.2956,0.6043,9.3194
3,2,1,2,1,03.168,3168,-0.3600,10.3300,-0.1200,10.3370,-0.0644,-0.0894,-0.4047,3.94,85.94,308.44,-0.2914,9.4319,0.5088,9.4501
3,2,1,2,1,03.289,3289,-0.3100,9.5400,0.9600,9.5932,-0.0502,-0.0753,0.1778,4.44,86.44,308.50,-0.2938,9.4461,0.5683,9.4678
3,2,1,2,1,03.451,3451,-1.3800,10.5900,0.6200,10.6975,-0.0087,-0.1058,-0.5509,5.88,86.94,307.88,-0.4370,9.5969,0.5751,9.6240
3,2,1,2,1,03.576,3576,-1.4800,9.9100,0.4700,10.0309,0.1102,-0.0175,0.4429,4.56,86.50,309.63,-0.5744,9.6381,0.5612,9.6715
3,2,1,2,1,03.697,3697,-0.5100,9.7100,0.3100,9.7283,0.0305,0.0011,-0.4985,3.81,85.88,310.38,-0.5659,9.6476,0.5281,9.6786
3,2,1,2,1,03.818,3818,-2.2300,10.5200,0.5700,10.7689,-0.0305,0.0611,-0.0687,6.56,85.81,307.38,-0.7852,9.7626,0.5337,9.8086
3,2,1,2,1,03.939,3939,-0.5100,10.0300,0.5900,10.0603,-0.0011,0.1080,0.4145,3.94,85.81,309.38,-0.7489,9.7978,0.5411,9.8413
3,2,1,2,1,04.060,4060,0.1100,9.9500,0.7600,9.9796,-0.0185,0.0807,0.2607,2.50,85.81,310.25,-0.6358,9.8179,0.5699,9.8549
3,2,1,2,1,04.188,4188,0.9400,9.9100,0.9000,9.9951,-0.0011,0.0535,0.3742,0.38,85.81,311.94,-0.4281,9.8300,0.6134,9.8584
3,2,1,2,1,04.309,4309,-0.5700,10.6200,0.9600,10.6785,0.0033,0.0142,-0.4320,1.56,85.81,310.50,-0.4468,9.9341,0.6591,9.9660
3,2,1,2,1,04.471,4471,-0.4400,10.4100,0.4300,10.4282,0.0164,0.0033,-0.0120,1.88,85.56,310.06,-0.4459,9.9968,0.6289,10.0265
3,2,1,2,1,04.593,4593,-0.1200,10.9800,1.0000,11.0261,0.0033,-0.0284,0.0207,2.69,85.44,309.31,-0.4030,10.1264,0.6778,10.1570
3,2,1,2,1,04.719,4719,-0.0300,10.1100,1.0700,10.1665,0.0469,-0.0676,-0.3392,3.00,85.25,309.38,-0.3538,10.1242,0.7295,10.1566
3,2,1,2,1,04.840,4840,-1.6200,11.2200,1.0100,11.3813,0.0076,-0.1134,-0.0818,6.38,85.25,306.75,-0.5207,10.2686,0.7665,10.3103
3,2,1,2,1,04.961,4961,-0.3600,9.8500,0.4100,9.8651,0.0076,-0.1320,0.2563,4.56,85.31,309.44,-0.4995,10.2134,0.7195,10.2509
3,2,1,2,1,05.083,5083,-0.0100,8.4900,1.1300,8.5649,-0.0698,-0.1505,-0.1887,4.13,85.56,310.81,-0.4350,9.9863,0.7736,10.0257
3,2,1,2,1,05.204,5204,-1.5700,7.8500,0.8000,8.0453,-0.1353,-0.1331,-0.1636,6.69,86.56,309.13,-0.5846,9.7048,0.7771,9.7534
3,2,1,2,1,05.330,5330,-0.3900,8.1600,0.5900,8.1906,-0.1440,-0.0644,0.8138,2.38,87.31,313.88,-0.5589,9.5013,0.7524,9.5474
3,2,1,2,1,05.492,5492,-0.6200,9.2000,-0.3000,9.2257,0.0382,0.0273,0.0011,1.50,87.13,314.94,-0.5670,9.4616,0.6137,9.4984
3,2,1,2,1,05.613,5613,-0.5500,9.4800,-0.2000,9.4980,-0.0774,0.0556,0.0000,2.06,87.06,314.00,-0.5647,9.4640,0.5065,9.4943
3,2,1,2,1,05.734,5734,-0.1800,9.8200,0.5300,9.8359,-0.0218,0.0938,-0.0720,1.69,87.19,313.88,-0.5140,9.5109,0.5096,9.5384
3,2,1,2,1,05.856,5856,-0.3300,9.4500,0.4100,9.4646,-0.0044,0.1211,-0.0033,2.06,87.19,312.75,-0.4898,9.5029,0.4965,9.5284
3,2,1,2,1,05.982,5982,0.3900,8.2500,0.7200,8.2905,0.0415,0.1374,0.0458,1.25,87.00,312.69,-0.3739,9.3378,0.5259,9.3600
3,2,1,2,1,06.103,6103,-0.4600,9.7300,0.5500,9.7564,0.0840,0.0884,-0.8727,4.38,86.69,308.75,-0.3852,9.3895,0.5291,9.4122
3,2,1,2,1,06.223,6223,-1.6900,8.8500,0.1200,9.0107,0.0916,0.1298,0.6589,5.56,86.06,306.94,-0.5571,9.3184,0.4752,9.3471
3,2,1,2,1,06.344,6344,0.9700,9.0200,1.2900,9.1633,0.0764,0.0676,-0.0905,1.44,85.63,310.38,-0.3559,9.2791,0.5826,9.3041
3,3,1,2,1,06.506,6506,-2.2900,9.2700,1.0500,9.6062,-0.0425,0.0076,-0.1538,8.25,85.56,303.44,-0.6108,9.2779,0.6442,9.3202
3,3,1,2,1,06.628,6628,-1.0400,10.2700,1.0500,10.3758,-0.0894,-0.0196,0.1484,6.94,86.06,304.81,-0.6673,9.4086,0.6976,9.4580
3,3,1,2,1,06.749,6749,-0.9700,10.1200,0.9300,10.2088,0.0535,0.0033,-0.3796,7.75,86.25,304.06,-0.7072,9.5023,0.7283,9.5564
3,3,1,2,1,06.874,6874,-1.4700,9.8200,0.7600,9.9585,0.0207,0.0393,0.2858,8.00,85.88,303.63,-0.8077,9.5442,0.7324,9.6063
3,3,1,2,1,06.995,6995,-0.3100,11.6500,1.3600,11.7332,0.1342,0.0611,-0.4396,6.44,85.38,304.81,-0.7421,9.8217,0.8151,9.8834
3,3,1,2,1,07.117,7117,-2.9800,9.3500,1.0900,9.8738,0.3960,0.2073,0.0109,9.75,83.38,300.94,-1.0370,9.7595,0.8514,9.8513
3,3,1,2,1,07.237,7237,-0.1800,8.3300,0.8000,8.3703,0.1854,0.2509,0.1494,6.56,81.13,302.63,-0.9241,9.5712,0.8446,9.6527
3,3,1,2,1,07.358,7358,-2.0300,8.3900,1.3200,8.7324,-0.2007,0.0764,-0.4701,9.38,81.31,298.69,-1.0698,9.4155,0.9072,9.5194
3,3,1,2,1,07.523,7523,-0.1800,10.9200,1.7500,11.0608,-0.3338,0.0076,0.7712,4.81,84.06,302.69,-0.9526,9.6138,1.0183,9.7144
3,3,1,2,1,07.646,7646,0.9300,10.2300,1.2000,10.3420,-0.1778,-0.0578,-0.0098,2.00,85.94,305.56,-0.7045,9.6950,1.0422,9.7762
3,3,1,2,1,07.767,7767,-0.5200,10.8500,0.7000,10.8850,-0.0011,-0.1058,-0.4745,3.81,86.44,304.25,-0.6802,9.8472,0.9971,9.9209
3,3,1,2,1,07.888,7888,-1.2900,9.8900,0.3500,9.9799,0.0862,-0.1025,-0.1091,5.38,86.13,303.44,-0.7605,9.8528,0.9119,9.9241
3,3,1,2,1,08.009,8009,-0.4800,9.8800,0.4200,9.9006,0.0927,-0.1004,0.3491,4.88,85.69,304.69,-0.7236,9.8564,0.8470,9.9192
3,3,1,2,1,08.130,8130,-0.2500,9.3200,0.8900,9.3657,0.0469,-0.1451,-0.4832,4.81,85.38,305.63,-0.6612,9.7857,0.8527,9.8450
3,3,1,2,1,08.252,8252,-3.0200,10.0900,1.2500,10.6062,0.0458,-0.0818,-0.2378,9.56,85.31,301.81,-0.9720,9.8258,0.9051,9.9152
3,3,1,2,1,08.378,8378,-0.8200,10.9000,0.5700,10.9457,-0.0033,-0.0371,0.1429,7.88,85.13,303.81,-0.9520,9.9674,0.8609,10.0497
3,3,1,2,1,08.540,8540,-1.7300,10.1000,0.7300,10.2731,0.0044,0.0000,-0.4025,10.00,84.94,301.94,-1.0545,9.9848,0.8437,10.0758
3,3,1,2,1,08.661,8661,-0.5700,8.9700,0.9700,9.0403,-0.0076,0.0240,0.3076,9.13,85.00,302.63,-0.9907,9.8511,0.8603,9.9381
3,3,1,2,1,08.783,8783,-1.7200,10.0200,1.1900,10.2360,0.0076,0.0120,-0.4451,9.63,85.13,302.06,-1.0868,9.8734,0.9038,9.9740
3,3,1,2,1,08.904,8904,-1.7500,7.0300,0.5900,7.2685,-0.0862,0.0142,0.2378,10.38,85.31,301.19,-1.1742,9.4987,0.8624,9.6098
3,3,1,2,1,09.029,9029,-0.2300,5.6400,1.3300,5.7993,-0.0873,0.0436,1.3188,4.13,85.94,307.13,-1.0497,8.9902,0.9240,9.0983
3,4,1,2,1,09.151,9151,-1.0100,11.6500,-0.3400,11.6986,-0.0764,-0.0164,-1.4824,4.94,86.63,306.13,-1.0445,9.3407,0.7575,9.4294
3,4,1,2,1,09.271,9271,-2.7700,9.4900,-0.5100,9.8991,0.0556,0.0458,0.7429,8.63,86.44,302.38,-1.2719,9.3604,0.5904,9.4648
3,4,1,2,1,09.392,9392,-0.3100,9.1300,1.2200,9.2164,-0.0131,-0.0098,0.2367,2.50,86.63,308.25,-1.1451,9.3300,0.6734,9.4241
3,4,1,2,1,09.555,9555,-0.2700,9.6000,0.4300,9.6134,0.0153,-0.0349,0.2727,2.56,86.81,308.50,-1.0298,9.3656,0.6413,9.4438
3,4,1,2,1,09.681,9681,0.3900,9.1600,0.6100,9.1886,-0.0142,-0.0502,0.1014,0.81,86.81,310.50,-0.8427,9.3385,0.6372,9.3981
3,4,1,2,1,09.802,9802,-0.3800,9.5200,0.5200,9.5418,-0.0295,-0.0764,-0.0589,1.69,87.06,310.13,-0.7817,9.3624,0.6218,9.4155
3,4,1,2,1,09.923,9923,0.9100,8.5000,0.6600,8.5740,-0.0458,-0.0665,0.3076,0.06,87.25,312.19,-0.5588,9.2488,0.6268,9.2868
3,4,1,2,1,10.044,10044,0.2100,8.8900,0.4800,8.9054,-0.0262,-0.1036,-0.7570,1.13,87.38,311.69,-0.4575,9.2015,0.6075,9.2329
3,4,1,2,1,10.165,10165,-1.7100,9.5000,0.2400,9.6557,0.0338,-0.0480,0.1113,5.06,87.44,308.38,-0.6226,9.2408,0.5590,9.2786
3,4,1,2,1,10.288,10288,0.2300,10.5900,0.7100,10.6163,0.0491,-0.0567,-0.6240,3.94,87.06,309.75,-0.5102,9.4186,0.5789,9.4502
3,4,1,2,1,10.409,10409,-3.7200,9.0800,1.2300,9.8893,0.2356,0.0240,-0.6872,11.50,86.13,302.63,-0.9332,9.3740,0.6647,9.4438
3,4,1,2,1,10.574,10574,-1.0300,7.9100,0.5900,7.9986,0.0611,0.0556,0.2771,9.94,84.75,303.88,-0.9459,9.1811,0.6549,9.2529
3,4,1,2,1,10.694,10694,-2.9000,9.8400,1.3900,10.3522,-0.0709,-0.0131,-0.9599,13.94,84.94,299.75,-1.2034,9.2679,0.7517,9.3759
3,4,1,2,1,10.815,10815,-2.5500,9.5000,0.3800,9.8436,-0.0884,0.0436,0.7221,14.63,85.38,298.81,-1.3809,9.2985,0.7028,9.4267
3,4,1,2,1,10.936,10936,-0.3900,9.5300,0.7400,9.5666,-0.1331,0.0316,-0.0807,10.94,85.94,302.13,-1.2503,9.3290,0.7077,9.4390
3,4,1,2,1,11.058,11058,-3.6300,9.7700,0.9500,10.4658,-0.1778,0.0404,-0.4603,15.19,86.75,297.50,-1.5639,9.3871,0.7396,9.5452
3,4,1,2,1,11.184,11184,-3.6200,9.7200,0.4800,10.3833,-0.0971,0.0949,0.0982,15.13,87.50,296.88,-1.8348,9.4310,0.7054,9.6337
3,4,1,2,1,11.306,11306,-1.9100,9.9400,0.0500,10.1220,0.0022,0.1440,0.4843,11.81,87.63,299.19,-1.8447,9.4981,0.6190,9.6953
3,4,1,2,1,11.426,11426,-1.4500,10.2400,0.3600,10.3484,0.0731,0.0731,-0.2236,11.06,87.19,299.31,-1.7927,9.5958,0.5849,9.7794
3,4,1,2,1,11.590,11590,-0.7800,10.8300,0.8900,10.8945,0.1276,0.0131,0.2443,8.50,86.06,301.56,-1.6593,9.7585,0.6251,9.9182
3,4,1,2,1,11.711,11711,-1.3900,9.2100,1.0000,9.3678,0.1156,-0.0654,0.0949,8.31,85.19,302.06,-1.6238,9.6862,0.6745,9.8445
3,4,1,2,1,11.836,11836,-0.5800,9.4400,1.0900,9.5204,-0.0011,-0.1451,-0.1047,7.63,84.81,303.56,-1.4862,9.6537,0.7293,9.7947
3,4,1,2,1,11.957,11957,-1.8400,9.7300,1.0400,9.9569,-0.0785,-0.1985,-0.1582,9.69,85.38,302.69,-1.5329,9.6638,0.7702,9.8149
3,4,1,2,1,12.078,12078,-2.1900,10.7000,1.0600,10.9731,-0.1156,-0.1614,-0.0458,10.06,86.19,303.50,-1.6195,9.8003,0.8084,9.9661
3,4,1,2,1,12.199,12199,-3.0200,10.8100,0.3900,11.2307,-0.1102,-0.0829,-0.3829,11.88,86.94,302.38,-1.8040,9.9334,0.7533,10.1239
3,4,1,2,1,12.338,12338,-2.5500,9.9600,0.0300,10.2813,-0.0687,0.0458,-0.0535,13.44,87.50,300.63,-1.9023,9.9369,0.6579,10.1387
3,4,1,2,1,12.458,12458,-1.6700,9.5400,0.1400,9.6861,-0.0425,0.0884,0.1942,12.19,87.88,301.38,-1.8717,9.8846,0.5897,10.0775
3,4,1,2,1,12.620,12620,-1.5200,8.4300,-0.0500,8.5661,0.0109,0.1058,0.3807,12.13,87.94,300.63,-1.8254,9.6929,0.5054,9.8762
3,4,1,2,1,12.741,12741,-1.6600,9.6800,0.7000,9.8462,0.0011,0.0851,0.2574,9.19,87.88,302.88,-1.8036,9.6912,0.5310,9.8719
3,4,1,2,1,12.863,12863,-1.4500,11.1200,-0.2700,11.2174,0.0164,0.1418,0.2553,7.88,87.56,303.50,-1.7570,9.8795,0.4255,10.0435
3,4,1,2,1,12.988,12988,-0.5300,5.5600,0.2900,5.5927,-0.0644,0.1451,1.6352,4.31,87.63,306.25,-1.5953,9.3103,0.4076,9.4548
3,5,1,2,1,13.110,13110,2.6000,11.3400,0.4600,11.6433,-0.0567,0.0055,-0.5672,-4.56,87.88,314.38,-1.0425,9.5778,0.4145,9.6432
3,5,1,2,1,13.231,13231,-3.0600,9.6100,0.4200,10.0942,0.0458,-0.0327,-1.0308,7.00,88.00,303.25,-1.3083,9.5820,0.4153,9.6798
3,5,1,2,1,13.351,13351,-0.3300,9.7300,0.3500,9.7419,0.0513,-0.0044,0.7581,3.44,87.38,306.75,-1.1794,9.6015,0.4067,9.6822
3,5,1,2,1,13.472,13472,-0.4900,9.9100,0.2900,9.9263,0.0338,-0.0589,-0.2902,2.75,87.13,307.69,-1.0886,9.6422,0.3913,9.7113
3,5,1,2,1,13.640,13640,-1.1600,9.2100,0.8200,9.3189,0.1014,-0.0524,0.2411,4.38,86.31,306.63,-1.0980,9.5852,0.4478,9.6583
3,5,1,2,1,13.761,13761,0.2300,9.3100,0.8400,9.3506,0.0142,-0.0785,0.0644,1.38,85.88,310.06,-0.9230,9.5489,0.4995,9.6064
3,5,1,2,1,13.882,13882,-1.6600,9.6600,1.1900,9.8736,0.0502,-0.0524,-0.1494,3.88,85.75,308.13,-1.0201,9.5636,0.5905,9.6359
3,5,1,2,1,14.003,14003,0.9000,9.4400,1.0800,9.5441,0.0927,0.0262,0.8443,-0.31,85.13,312.38,-0.7671,9.5473,0.6550,9.6004
3,5,1,2,1,14.125,14125,-0.2700,7.8500,0.1600,7.8563,0.0480,-0.0502,-1.0647,2.19,84.63,309.94,-0.7016,9.3236,0.5897,9.3686
3,5,1,2,1,14.251,14251,-1.2900,9.6300,0.6700,9.7391,-0.1265,-0.0240,0.3774,5.81,84.94,306.69,-0.7791,9.3640,0.6003,9.4155
3,5,1,2,1,14.372,14372,-1.1300,8.8800,1.0800,9.0165,-0.0382,-0.0295,-0.1571,3.63,85.69,309.00,-0.8254,9.3002,0.6635,9.3603
3,5,1,2,1,14.493,14493,-0.3200,9.3000,0.6200,9.3261,0.0065,-0.0044,-0.0905,4.50,85.69,308.19,-0.7588,9.3002,0.6578,9.3543
3,5,1,2,1,14.655,14655,-0.9900,11.3300,0.7600,11.3985,-0.0644,-0.0295,-0.4669,7.06,85.88,305.69,-0.7892,9.5677,0.6713,9.6236
3,5,1,2,1,14.776,14776,-1.9700,9.4900,0.6400,9.7134,-0.0131,0.0665,0.2443,8.88,86.06,303.75,-0.9448,9.5574,0.6671,9.6272
3,5,1,2,1,14.901,14901,-1.3900,10.0600,0.2700,10.1592,-0.0175,0.0447,-0.3578,7.94,86.38,304.19,-1.0035,9.6237,0.6148,9.6954
3,5,1,2,1,15.022,15022,-2.6100,9.5700,1.0400,9.9739,-0.0851,0.0273,0.1854,11.75,86.88,300.19,-1.2152,9.6166,0.6708,9.7163
3,5,1,2,1,15.144,15144,-0.4000,9.9800,0.8100,10.0208,-0.0567,-0.0327,-0.4178,9.38,87.13,302.44,-1.1078,9.6645,0.6892,9.7521
3,5,1,2,1,15.266,15266,-2.7200,10.3700,0.5600,10.7354,0.0109,-0.0644,0.0796,11.63,87.31,300.56,-1.3202,9.7574,0.6722,9.8693
3,5,1,2,1,15.386,15386,-2.4700,10.0600,0.6500,10.3792,0.1538,-0.0535,0.1396,10.44,86.69,302.25,-1.4717,9.7973,0.6692,9.9298
3,5,1,2,1,15.507,15507,-1.2100,9.3800,0.4800,9.4699,0.1516,-0.0524,0.1331,8.81,85.69,304.38,-1.4372,9.7423,0.6443,9.8688
3,5,1,2,1,15.670,15670,-1.0000,9.5600,0.8700,9.6515,-0.0447,-0.0873,-0.1767,7.88,85.25,305.94,-1.3796,9.7183,0.6740,9.8389
3,5,1,2,1,15.795,15795,-2.8100,11.2900,1.2900,11.7057,-0.1047,-0.0622,-0.3545,10.38,86.00,303.88,-1.5681,9.9254,0.7552,10.0769
3,5,1,2,1,15.916,15916,-2.7600,10.8700,0.1100,11.2155,-0.0076,0.0676,-0.0731,12.13,86.25,302.00,-1.7252,10.0499,0.6702,10.2189
3,5,1,2,1,16.037,16037,-1.6600,10.0400,0.5000,10.1886,-0.0742,0.0982,0.1374,10.94,86.25,302.56,-1.7166,10.0486,0.6478,10.2147
3,5,1,2,1,16.158,16158,-2.3800,10.0100,0.5600,10.3043,-0.0764,0.0971,-0.1833,12.63,86.63,300.19,-1.8040,10.0435,0.6362,10.2240
3,5,1,2,1,16.280,16280,-0.8000,8.8700,0.9400,8.9555,0.0502,0.1636,0.7330,9.44,86.38,302.50,-1.6717,9.8889,0.6762,10.0519
3,5,1,2,1,16.406,16406,-1.3000,8.4600,-0.2700,8.5636,-0.0611,0.0305,-0.3185,9.69,86.38,301.56,-1.6227,9.7006,0.5515,9.8508
3,5,1,2,1,16.528,16528,-2.1000,8.4400,1.1300,8.7704,0.0196,0.1265,1.4464,5.31,86.63,305.44,-1.6856,9.5345,0.6278,9.7026
3,5,1,2,1,16.693,16693,1.7400,7.9800,1.1600,8.2495,0.0196,-0.0044,-0.4974,-3.13,85.69,313.00,-1.2342,9.3296,0.6979,9.4367
3,6,1,2,1,16.818,16818,-2.1200,10.7300,2.0600,11.1297,0.0371,-0.0556,-0.6589,4.69,86.13,305.63,-1.3509,9.5142,0.8774,9.6496
3,6,1,2,1,16.939,16939,0.9800,8.2100,1.5900,8.4198,0.0644,-0.0033,1.1159,-1.13,85.69,311.44,-1.0438,9.3423,0.9713,9.4505
3,6,1,2,1,17.059,17059,-0.1500,9.5700,0.9800,9.6212,-0.0327,-0.1244,-1.0014,0.06,85.69,310.75,-0.9260,9.3723,0.9724,9.4680
3,6,1,2,1,17.180,17180,-1.0300,9.8200,1.3000,9.9591,0.0000,-0.0687,0.3676,2.75,85.88,308.75,-0.9397,9.4313,1.0156,9.5323
3,6,1,2,1,17.302,17302,0.1500,9.0700,0.9000,9.1158,-0.0022,-0.0742,-0.1069,0.94,85.88,311.00,-0.7961,9.3837,1.0004,9.4704
3,6,1,2,1,17.423,17423,-0.8000,9.2900,0.6900,9.3499,-0.0654,-0.0622,-0.1069,2.75,86.19,309.69,-0.7966,9.3713,0.9595,9.4540
3,6,1,2,1,17.548,17548,-1.1000,8.5400,0.6800,8.6374,-0.0469,-0.0120,-0.0796,2.88,86.44,309.75,-0.8366,9.2618,0.9226,9.3452
3,6,1,2,1,17.711,17711,-0.0600,10.4000,-0.3400,10.4057,-0.1222,-0.0229,-0.7439,3.75,86.63,308.69,-0.7343,9.4118,0.7563,9.4706
3,6,1,2,1,17.831,17831,-2.4500,9.0900,-0.1800,9.4161,-0.0916,0.0240,0.0556,10.19,87.25,302.31,-0.9604,9.3694,0.6329,9.4397
3,6,1,2,1,17.952,17952,-0.5600,9.8000,0.4900,9.8282,0.0087,0.0480,0.1167,6.88,87.31,305.31,-0.9076,9.4261,0.6141,9.4896
3,6,1,2,1,18.073,18073,-2.2000,9.0000,0.4700,9.2769,-0.0327,-0.0218,-0.8039,11.38,87.19,300.75,-1.0779,9.3700,0.5951,9.4505
3,6,1,2,1,18.194,18194,-1.8100,9.4300,0.2200,9.6047,-0.0785,0.0273,0.3425,11.75,87.50,300.31,-1.1744,9.3779,0.5456,9.4669
3,6,1,2,1,18.320,18320,-1.6100,9.4400,0.5100,9.5899,-0.0349,0.0382,-0.0022,11.44,87.75,300.38,-1.2318,9.3861,0.5410,9.4820
3,6,1,2,1,18.441,18441,-1.4700,9.2000,0.3900,9.3249,-0.0229,0.0153,-0.4047,12.13,87.94,299.44,-1.2632,9.3615,0.5211,9.4607
3,6,1,2,1,18.563,18563,-3.7500,9.5300,0.5600,10.2566,0.0153,0.0011,-0.0764,15.63,88.13,295.94,-1.5909,9.3837,0.5262,9.5322
3,6,1,2,1,18.725,18725,-1.1900,9.6900,0.8500,9.7997,-0.0185,-0.0480,0.8399,10.81,88.44,300.88,-1.5380,9.4241,0.5689,9.5657
3,6,1,2,1,18.846,18846,-1.6800,11.0900,0.6500,11.2353,0.1091,-0.0960,-0.2443,9.31,88.19,302.94,-1.5568,9.6436,0.5796,9.7856
3,6,1,2,1,18.973,18973,-1.4100,10.6100,0.6900,10.7255,0.2422,-0.0207,0.7767,7.88,86.94,305.00,-1.5374,9.7710,0.5941,9.9090
3,6,1,2,1,19.113,19113,0.2300,8.8400,0.7700,8.8765,0.2018,-0.0709,0.0535,3.31,85.06,310.06,-1.3045,9.6483,0.6173,9.7556
3,6,1,2,1,19.234,19234,-1.2800,9.7900,1.2000,9.9460,0.0545,-0.0785,-0.1942,5.44,84.19,308.63,-1.3013,9.6670,0.6941,9.7788
3,6,1,2,1,19.356,19356,-0.9700,9.8800,1.5700,10.0509,-0.0305,-0.0556,-0.3622,6.00,84.13,308.44,-1.2576,9.6950,0.8095,9.8097
3,6,1,2,1,19.476,19476,-2.2900,11.0700,1.1300,11.3607,-0.0753,-0.0371,-0.5345,10.50,84.50,304.19,-1.3937,9.8762,0.8517,10.0104
3,6,1,2,1,19.597,19597,-3.5300,10.9200,1.2800,11.5475,-0.0556,0.0578,-0.7570,13.31,84.88,301.19,-1.6752,10.0138,0.9082,10.1935
3,6,1,2,1,19.765,19765,-2.1600,9.6500,0.3900,9.8965,-0.1167,0.0862,-0.1593,16.50,85.06,296.94,-1.7391,9.9658,0.8399,10.1512
3,6,1,2,1,19.886,19886,-2.1600,9.2400,1.7400,9.6473,-0.0960,0.0818,0.0589,16.75,85.75,295.94,-1.7945,9.8702,0.9585,10.0777
3,6,1,2,1,20.006,20006,-3.4200,7.6200,0.4100,8.3624,-0.1298,0.0011,-0.2847,19.13,86.13,293.13,-2.0087,9.5737,0.8862,9.8222
3,6,1,2,1,20.127,20127,-3.2100,5.9500,0.8800,6.8177,-0.0142,0.1014,2.0900,13.25,86.69,298.63,-2.1670,9.0962,0.8854,9.3926
3,6,1,2,1,20.248,20248,0.8800,7.3400,1.2500,7.4975,0.0774,0.0622,1.5850,-2.63,86.38,313.81,-1.7655,8.8647,0.9334,9.0869
3,7,1,2,1,20.369,20369,-1.4600,10.6500,0.6300,10.7681,-0.0305,-0.0982,-1.3439,0.38,86.69,311.06,-1.7252,9.1000,0.8935,9.3051
3,7,1,2,1,20.491,20491,0.4600,8.1000,1.1700,8.1970,0.0600,0.0578,1.8141,-2.19,86.63,313.75,-1.4373,8.9682,0.9299,9.1301
3,7,1,2,1,20.617,20617,3.4400,9.7700,0.9700,10.4032,-0.0327,-0.0305,-0.0785,-10.63,86.69,322.06,-0.7946,9.0739,0.9352,9.1565
3,7,1,2,1,20.779,20779,0.2500,9.4900,0.6400,9.5148,0.0654,-0.0131,0.2487,-3.94,86.63,315.94,-0.6569,9.1287,0.8963,9.1961
3,7,1,2,1,20.900,20900,1.8800,9.5400,0.7700,9.7539,0.0251,-0.0382,-0.1440,-6.06,86.31,318.13,-0.3226,9.1829,0.8796,9.2306
3,7,1,2,1,21.027,21027,0.7600,8.6700,0.7400,8.7346,0.0098,-0.0556,-0.7003,-2.63,86.31,315.00,-0.1800,9.1153,0.8612,9.1577
3,7,1,2,1,21.149,21149,-0.7000,9.5600,0.5900,9.6037,0.0120,-0.0818,-0.8923,2.69,86.31,310.06,-0.2485,9.1739,0.8255,9.2143
3,7,1,2,1,21.269,21269,-2.8800,8.9400,0.3500,9.3990,0.0087,-0.0676,-0.6556,9.50,86.13,303.75,-0.5953,9.1431,0.7628,9.1942
3,7,1,2,1,21.391,21391,-1.6800,8.6600,1.2900,8.9153,0.0393,-0.0142,0.5716,8.25,86.00,305.31,-0.7382,9.0794,0.8323,9.1473
3,7,1,2,1,21.511,21511,-2.0100,8.9500,1.2700,9.2604,0.1091,-0.0251,-0.6676,8.88,85.56,304.88,-0.9058,9.0624,0.8900,9.1509
3,7,1,2,1,21.632,21632,-1.2200,8.9200,0.5600,9.0204,0.0785,0.0458,0.2902,10.69,84.88,303.06,-0.9472,9.0436,0.8465,9.1324
3,7,1,2,1,21.794,21794,-2.8800,9.8800,1.3900,10.3846,0.0633,-0.0218,-1.4279,14.81,84.25,298.88,-1.2019,9.1538,0.9181,9.2779
3,7,1,2,1,21.920,21920,-3.9300,8.8300,0.8600,9.7033,0.0556,0.0513,0.5487,18.00,83.69,295.69,-1.5614,9.1112,0.9105,9.2887
3,7,1,2,1,22.041,22041,-1.3900,9.7200,0.9600,9.8657,0.0065,0.0251,0.0535,13.63,83.25,299.81,-1.5388,9.1914,0.9170,9.3643
3,7,1,2,1,22.161,22161,-2.9700,8.8600,1.4400,9.4548,-0.0720,-0.0185,-0.1658,16.88,83.44,296.56,-1.7274,9.1477,0.9859,9.3614
3,7,1,2,1,22.282,22282,-1.5500,9.7000,1.3300,9.9127,-0.1680,-0.0284,0.1713,14.69,84.44,298.63,-1.7040,9.2205,1.0313,9.4332
3,7,1,2,1,22.403,22403,-4.3000,9.8100,0.5000,10.7227,-0.2094,-0.0687,-0.5345,18.06,85.88,295.38,-2.0461,9.2982,0.9612,9.5690
3,7,1,2,1,22.524,22524,-3.6900,10.4900,0.5900,11.1357,-0.1560,0.0175,0.4298,17.25,87.19,295.94,-2.2627,9.4552,0.9123,9.7649
3,7,1,2,1,22.646,22646,-3.7000,8.8000,0.3100,9.5512,-0.0611,0.0807,-0.0971,17.06,87.88,295.63,-2.4521,9.3689,0.8330,9.7202
3,7,1,2,1,22.812,22812,-2.9800,11.6500,0.0100,12.0251,0.0709,0.1494,0.1658,14.75,87.44,296.81,-2.5217,9.6695,0.7245,10.0191
3,7,1,2,1,22.933,22933,-2.6600,10.6000,0.8500,10.9617,0.1145,0.1527,0.7036,13.81,86.50,296.94,-2.5399,9.7921,0.7410,10.1432
3,7,1,2,1,23.054,23054,-1.6400,9.4700,0.2600,9.6145,0.1473,0.1538,-0.0862,10.19,85.31,299.75,-2.4213,9.7497,0.6777,10.0687
3,7,1,2,1,23.175,23175,-2.9700,9.8200,1.3600,10.3491,0.0415,0.1560,-0.0982,13.44,84.38,295.63,-2.4936,9.7589,0.7676,10.1017
3,7,1,2,1,23.296,23296,0.4300,10.2200,1.6700,10.3645,0.0491,0.2214,0.8050,9.31,83.88,298.50,-2.1084,9.8197,0.8865,10.0825
3,7,1,2,1,23.420,23420,-0.8600,9.3400,1.4500,9.4909,-0.0513,0.0535,-0.8912,9.44,83.63,297.50,-1.9439,9.7565,0.9607,9.9945
3,7,1,2,1,23.541,23541,-1.2800,8.3500,1.9500,8.6697,-0.0709,-0.0098,0.4342,12.06,84.13,294.63,-1.8564,9.5711,1.0911,9.8104
3,7,1,2,1,23.664,23664,-3.4600,11.5000,0.8500,12.0393,-0.1680,-0.1658,-0.6501,10.88,84.94,296.31,-2.0677,9.8253,1.0593,10.0963
3,7,1,2,1,23.826,23826,0.6500,5.3400,0.5000,5.4026,-0.0480,0.0207,3.2299,1.69,86.44,306.19,-1.7096,9.2343,0.9856,9.4428
3,7,1,2,1,23.947,23947,3.1800,9.8300,1.2800,10.4106,-0.0993,-0.1200,-0.4385,-9.56,87.19,317.88,-1.0653,9.3128,1.0244,9.4293
3,7,1,2,1,24.068,24068,-0.4900,10.1900,0.3100,10.2065,0.0164,-0.1593,-0.8618,-1.13,87.75,310.69,-0.9895,9.4284,0.9303,9.5257
3,7,1,2,1,24.190,24190,1.5800,9.7000,0.8500,9.8645,0.0698,-0.0927,0.9807,-4.06,87.44,314.38,-0.6509,9.4642,0.9197,9.5310
3,7,1,2,1,24.315,24315,0.7400,9.5900,0.7500,9.6477,0.0098,-0.1778,-0.8770,-4.38,87.25,315.63,-0.4676,9.4807,0.8973,9.5346
3,7,1,2,1,24.437,24437,-0.4400,9.3800,0.8600,9.4296,0.0305,-0.1069,0.3425,-0.19,87.13,312.50,-0.4639,9.4675,0.8924,9.5207
3,7,1,2,1,24.557,24557,0.9300,9.4700,0.9600,9.5639,0.0349,-0.1036,-0.0644,-2.94,86.88,315.94,-0.2803,9.4678,0.9013,9.5147
3,7,1,2,1,24.678,24678,-1.2000,8.7600,0.8200,8.8798,0.0011,-0.0578,-0.5541,0.81,86.75,312.69,-0.4015,9.3745,0.8906,9.4253
3,7,1,2,1,24.840,24840,0.1000,9.0300,0.7400,9.0608,0.0349,0.0676,0.3251,2.13,86.63,311.31,-0.3354,9.3291,0.8708,9.3757
3,7,1,2,1,24.961,24961,-2.2000,8.1000,0.5100,8.4089,0.0120,-0.0131,-1.3603,6.00,86.56,307.25,-0.5811,9.1672,0.8232,9.2224
3,7,1,2,1,25.088,25088,-1.9100,8.6000,0.3300,8.8157,-0.1844,0.0873,0.7450,6.63,87.19,306.25,-0.7562,9.0924,0.7582,9.1553
3,8,1,2,1,25.209,25209,1.2500,9.8900,0.9200,10.0110,-0.1974,0.0600,-0.4931,4.38,88.50,307.75,-0.4918,9.1975,0.7795,9.2436
3,8,1,2,1,25.329,25329,-2.9200,10.4400,1.0600,10.8924,-0.1309,0.1276,-0.8203,11.13,89.38,300.44,-0.8118,9.3613,0.8165,9.4318
3,8,1,2,1,25.451,25451,-3.1500,9.9900,0.1400,10.4758,-0.0360,0.2302,-0.5312,14.44,89.50,295.81,-1.1199,9.4441,0.7274,9.5380
3,8,1,2,1,25.571,25571,-2.1700,9.7700,0.1900,10.0099,0.1102,0.3349,0.6141,14.38,88.94,294.13,-1.2583,9.4870,0.6565,9.5926
3,8,1,2,1,25.710,25710,-1.6100,9.7700,0.2000,9.9038,0.0796,0.1865,-1.1497,17.25,87.81,289.31,-1.3046,9.5243,0.5964,9.6318
3,8,1,2,1,25.872,25872,-5.4700,10.0100,1.0100,11.4517,0.0327,0.0371,0.0382,23.00,87.13,282.75,-1.8535,9.5883,0.6509,9.7875
3,8,1,2,1,25.994,25994,-2.4800,7.9800,1.1900,8.4408,0.0644,-0.1200,0.6141,19.81,87.13,286.31,-1.9361,9.3764,0.7219,9.6014
3,8,1,2,1,26.120,26120,-2.6000,11.1000,0.3700,11.4064,0.0240,-0.2520,-0.3109,18.25,87.31,289.19,-2.0236,9.6035,0.6756,9.8376
3,8,1,2,1,26.241,26241,-6.2500,10.1600,0.4100,11.9355,0.1647,-0.3218,-0.7483,24.50,87.63,285.19,-2.5805,9.6769,0.6406,10.0355
3,8,1,2,1,26.362,26362,-4.2200,9.3700,0.2600,10.2797,0.2378,-0.2454,0.6152,24.19,87.38,287.69,-2.7965,9.6364,0.5904,10.0514
3,8,1,2,1,26.483,26483,-1.7700,8.8600,0.7300,9.0645,0.1822,-0.1920,0.4854,18.75,86.63,294.94,-2.6613,9.5341,0.6088,9.9173
3,8,1,2,1,26.605,26605,-5.2000,8.3400,0.8200,9.8625,0.1734,-0.1331,-0.2149,21.19,85.63,294.19,-2.9958,9.3768,0.6366,9.8643
3,8,1,2,1,26.731,26731,-2.1700,7.7200,0.8900,8.0684,0.1440,0.0055,0.9479,16.00,84.69,299.88,-2.8870,9.1584,0.6700,9.6260
3,8,1,2,1,26.894,26894,-4.3500,8.6400,1.9900,9.8758,-0.0415,-0.0251,0.0764,18.56,84.63,297.56,-3.0798,9.0901,0.8440,9.6347
3,8,1,2,1,27.015,27015,-1.0200,7.2700,0.8200,7.3869,-0.0556,0.1385,2.0289,9.81,84.88,305.81,-2.8084,8.8503,0.8408,9.3232
3,8,1,2,1,27.142,27142,1.2300,7.6600,1.1100,7.8371,-0.1636,0.1058,0.7549,-1.13,85.56,315.88,-2.2762,8.6934,0.8763,9.0291
3,9,1,2,1,27.264,27264,-3.2700,10.8900,0.9700,11.4117,-0.1429,0.0545,-1.7388,6.44,86.94,307.81,-2.4072,8.9829,0.8886,9.3422
3,9,1,2,1,27.384,27384,-1.1300,8.1200,0.4200,8.2090,0.0349,0.2836,1.6308,5.38,86.94,307.56,-2.2389,8.8692,0.8269,9.1847
3,9,1,2,1,27.506,27506,0.9600,9.6900,0.7400,9.7655,-0.1156,0.1942,-0.2880,-1.00,87.13,312.31,-1.8173,8.9773,0.8154,9.1957
3,9,1,2,1,27.626,27626,-1.3000,9.1600,0.7400,9.2813,-0.0360,0.1756,-0.3927,4.50,87.75,305.63,-1.7492,9.0014,0.8055,9.2051
3,9,1,2,1,27.748,27748,0.2100,9.1600,0.3900,9.1707,-0.0229,0.1724,0.4571,2.56,87.63,306.31,-1.4910,9.0223,0.7507,9.1754
3,9,1,2,1,27.910,27910,-0.3100,9.8200,0.5700,9.8414,-0.0458,0.0502,-0.2094,2.63,88.00,305.31,-1.3354,9.1274,0.7269,9.2532
3,9,1,2,1,28.035,28035,0.0200,8.3000,0.3200,8.3062,0.0436,-0.0055,-0.1767,4.00,87.81,303.88,-1.1568,9.0184,0.6733,9.1172
3,9,1,2,1,28.156,28156,-0.8100,9.9900,0.9100,10.0640,0.1244,-0.0316,0.1113,4.25,87.25,303.88,-1.1111,9.1464,0.7045,9.2406
3,9,1,2,1,28.277,28277,-1.0500,8.7600,0.0200,8.8227,0.1124,-0.0393,-0.3512,6.50,86.25,302.06,-1.1030,9.0955,0.6143,9.1827
3,9,1,2,1,28.398,28398,0.0000,9.3200,1.1600,9.3919,0.0338,-0.0644,-0.1418,7.13,85.56,301.75,-0.9577,9.1251,0.6862,9.2008
3,9,1,2,1,28.519,28519,-3.6600,9.9000,0.8200,10.5867,0.0273,-0.1244,-1.2348,13.50,85.38,296.19,-1.3138,9.2272,0.7038,9.3468
3,9,1,2,1,28.642,28642,-2.2300,9.2500,1.2900,9.6021,0.0753,0.0371,1.7191,11.44,85.25,298.63,-1.4345,9.2302,0.7811,9.3736
3,9,1,2,1,28.763,28763,0.2100,9.6200,1.3700,9.7193,0.0633,-0.0415,-0.5149,6.31,85.06,303.69,-1.2178,9.2816,0.8587,9.4004
3,9,1,2,1,28.927,28927,-1.7400,9.7600,1.3800,10.0095,0.0251,0.0022,0.2989,10.06,84.81,300.31,-1.2866,9.3446,0.9274,9.4782
3,9,1,2,1,29.048,29048,-1.4200,9.7200,0.7000,9.8481,-0.0567,-0.0622,-0.3556,9.94,85.00,300.63,-1.3042,9.3941,0.8974,9.5265
3,9,1,2,1,29.169,29169,-2.6100,10.6600,0.7300,10.9991,-0.0731,-0.0840,-0.2825,11.94,85.38,299.06,-1.4763,9.5609,0.8754,9.7137
3,9,1,2,1,29.290,29290,-2.8100,9.3500,0.8900,9.8036,-0.0600,-0.0305,0.3414,12.06,85.81,299.19,-1.6520,9.5331,0.8773,9.7149
3,9,1,2,1,29.411,29411,-1.9200,10.3600,0.6400,10.5558,-0.0982,-0.0578,-0.3425,11.63,86.44,299.81,-1.6873,9.6421,0.8460,9.8251
3,9,1,2,1,29.535,29535,-2.5500,10.9800,0.4000,11.2793,-0.0393,-0.0142,0.2345,12.94,87.00,298.69,-1.8010,9.8184,0.7872,10.0132
3,9,1,2,1,29.656,29656,-2.6400,10.5400,1.0200,10.9134,0.0196,0.0164,-0.5803,14.25,87.06,297.38,-1.9116,9.9135,0.8179,10.1292
3,9,1,2,1,29.779,29779,-4.2600,10.9400,0.5700,11.7540,0.0785,0.0764,-0.0502,16.69,86.50,294.69,-2.2210,10.0487,0.7852,10.3212
3,9,1,2,1,29.941,29941,-0.4900,8.3100,1.4100,8.4430,0.1047,0.1604,0.3327,10.88,85.44,299.38,-1.9929,9.8196,0.8676,10.0573
3,9,1,2,1,30.062,30062,-3.3000,9.8000,1.2400,10.4148,-0.0316,0.0404,-0.8454,12.94,85.31,296.69,-2.1652,9.8170,0.9166,10.0947
3,9,1,2,1,30.183,30183,-1.3900,7.2400,0.3000,7.3783,-0.0535,0.1167,0.4429,14.25,85.38,294.75,-2.0630,9.4774,0.8354,9.7353
3,9,1,2,1,30.305,30305,-0.1100,5.2500,0.8500,5.3195,-0.2913,0.0622,1.3548,7.94,86.38,300.31,-1.8057,8.9204,0.8373,9.1397
3,10,1,2,1,30.430,30430,-0.9500,12.5400,1.3100,12.6440,-0.1931,0.0491,-0.5858,4.69,88.44,303.06,-1.6929,9.3973,0.8996,9.5909
3,10,1,2,1,30.552,30552,-0.6700,7.7300,0.6500,7.7862,0.1222,0.1789,0.4189,7.25,88.38,299.63,-1.5581,9.1776,0.8667,9.3492
3,10,1,2,1,30.672,30672,-0.0200,8.9800,0.3100,8.9854,-0.1713,-0.0251,-0.5694,6.13,88.38,300.19,-1.3554,9.1516,0.7934,9.2854
3,10,1,2,1,30.793,30793,-2.0600,10.1200,0.3900,10.3349,-0.0251,-0.0600,-0.2934,10.38,89.25,296.25,-1.4483,9.2792,0.7402,9.4207
3,10,1,2,1,30.955,30955,-0.8800,8.5200,0.4000,8.5747,0.0927,-0.0633,0.6065,7.75,88.63,299.44,-1.3734,9.1792,0.6954,9.3073
3,10,1,2,1,31.076,31076,-1.0700,9.2600,0.3700,9.3290,-0.0218,-0.1963,-0.4800,7.56,88.63,300.56,-1.3334,9.1898,0.6525,9.3089
3,10,1,2,1,31.203,31203,-1.9700,8.9600,0.3900,9.1823,0.0709,-0.1974,0.0556,10.06,88.75,299.38,-1.4173,9.1595,0.6179,9.2891
3,10,1,2,1,31.323,31323,-0.1400,7.3600,0.3600,7.3701,0.0611,-0.1713,0.3338,7.38,88.44,303.50,-1.2490,8.9224,0.5839,9.0283
3,10,1,2,1,31.444,31444,-1.8100,10.5000,0.4400,10.6639,0.0916,-0.2313,-1.6504,11.94,88.19,300.31,-1.3229,9.1303,0.5650,9.2429
3,10,1,2,1,31.566,31566,-4.8100,8.7600,0.1700,9.9951,0.1898,-0.1505,0.0436,19.19,87.38,294.63,-1.7824,9.0815,0.5129,9.2690
3,10,1,2,1,31.686,31686,-0.6500,7.1500,0.8200,7.2262,0.1549,-0.0338,1.6199,10.44,86.31,304.31,-1.6332,8.8270,0.5534,8.9938
3,10,1,2,1,31.807,31807,-1.1000,9.1000,1.0300,9.2239,-0.0567,-0.1265,-1.6068,11.25,86.25,304.06,-1.5629,8.8629,0.6162,9.0208
3,10,1,2,1,31.969,31969,-2.9000,9.8600,0.3800,10.2846,-0.1014,0.0807,0.9054,16.06,86.94,299.31,-1.7391,8.9943,0.5851,9.1796
3,10,1,2,1,32.094,32094,-2.8500,10.5600,0.8900,10.9740,-0.0251,0.1080,0.0262,13.88,87.38,300.81,-1.8855,9.2006,0.6252,9.4127
3,10,1,2,1,32.215,32215,-3.5600,9.9200,1.0000,10.5868,0.0185,0.1734,-0.1963,16.94,87.13,296.81,-2.1062,9.2954,0.6746,9.5549
3,10,1,2,1,32.336,32336,-2.9900,8.8200,0.6800,9.3378,0.0676,0.1789,0.2378,16.00,86.25,296.63,-2.2226,9.2328,0.6753,9.5205
3,10,1,2,1,32.457,32457,-2.0500,10.1400,0.7400,10.3716,-0.0098,0.0982,0.2193,14.50,85.94,297.31,-2.1999,9.3523,0.6839,9.6319
3,10,1,2,1,32.578,32578,-2.4300,11.1400,1.0900,11.4539,-0.0611,-0.0011,-0.6970,15.31,86.06,296.13,-2.2302,9.5879,0.7374,9.8714
3,10,1,2,1,32.699,32699,-4.0100,10.8500,0.4700,11.5769,-0.0164,0.0055,-0.3131,19.56,86.13,291.81,-2.4647,9.7542,0.7021,10.0853
3,10,1,2,1,32.820,32820,-3.1900,10.1100,1.2800,10.6783,-0.0360,-0.0207,-0.3600,21.06,86.13,290.31,-2.5603,9.8011,0.7783,10.1598
3,10,1,2,1,32.986,32986,-3.7800,8.9500,0.7100,9.7414,-0.0949,-0.0644,0.1724,23.50,86.69,288.13,-2.7210,9.6889,0.7693,10.0931
3,10,1,2,1,33.108,33108,-3.4000,7.6200,0.4700,8.3573,-0.2105,-0.1571,-0.5127,23.63,88.31,288.25,-2.8105,9.4163,0.7299,9.8539
3,10,1,2,1,33.228,33228,-2.8300,3.5900,0.8800,4.6553,-0.1614,-0.0927,0.7352,25.56,90.13,286.69,-2.8131,8.6486,0.7496,9.1254
3,10,1,2,1,33.349,33349,-2.3500,11.2700,0.5400,11.5251,0.0567,0.0338,1.8806,12.88,90.38,299.19,-2.7521,8.9940,0.7220,9.4333
3,10,1,2,1,33.470,33470,-2.0600,7.4300,-0.0500,7.7104,0.2651,0.0000,-0.9916,11.88,89.00,300.25,-2.6609,8.7879,0.6203,9.2028
3,10,1,2,1,33.592,33592,-2.7900,7.7400,-0.4300,8.2387,-0.0240,-0.0545,0.2869,14.81,88.50,297.69,-2.6779,8.6498,0.4819,9.0677
3,10,1,2,1,33.713,33713,-2.5200,11.3700,0.8200,11.6747,-0.0044,-0.0447,0.4134,11.31,89.19,301.50,-2.6571,9.0083,0.5264,9.4067
3,10,1,2,1,33.838,33838,-0.8200,8.5500,0.7300,8.6202,0.1538,0.0447,0.3894,8.81,88.38,304.00,-2.4150,8.9479,0.5533,9.2845
3,10,1,2,1,34.000,34000,-2.1900,10.2200,0.6400,10.4716,-0.0229,0.0262,-0.1658,10.38,88.19,302.31,-2.3853,9.1155,0.5647,9.4393
3,10,1,2,1,34.121,34121,-1.4300,9.3200,0.4800,9.4413,0.0524,0.0840,0.2138,9.44,87.75,302.81,-2.2595,9.1425,0.5535,9.4338
3,10,1,2,1,34.242,34242,-1.3600,9.2800,0.8200,9.4149,-0.0251,0.0687,-0.1647,9.25,87.50,302.56,-2.1409,9.1606,0.5886,9.4258
3,10,1,2,1,34.364,34364,-1.9400,9.4100,0.8000,9.6411,0.0087,0.0894,-0.1200,10.44,87.44,300.81,-2.1145,9.1934,0.6165,9.4536
