participant,rep,equipment_code,exercise_code,quality_code,timestamp,timestamp_ms,accelX,accelY,accelZ,accelMag,gyroX,gyroY,gyroZ,roll,pitch,yaw,filteredX,filteredY,filteredZ,filteredMag
3,1,1,2,1,00.000,0,2.5100,10.3400,0.7900,10.6696,0.0076,-0.0960,-0.1593,-16.63,86.81,46.63,2.5034,9.2328,0.4828,9.5784
3,1,1,2,1,00.146,146,3.5200,9.7600,0.9900,10.4225,-0.0316,-0.0545,0.5105,-16.75,87.06,47.50,2.6373,9.3023,0.5496,9.6845
3,1,1,2,1,00.280,280,2.9000,9.0300,0.8100,9.5188,0.0131,-0.0654,-0.2760,-16.75,87.13,48.00,2.6719,9.2664,0.5839,9.6616
3,1,1,2,1,00.453,453,2.8400,9.0900,0.7300,9.5513,0.0098,-0.0229,0.1134,-16.94,87.25,48.63,2.6941,9.2432,0.6032,9.6467
3,1,1,2,1,00.583,583,2.5500,9.3200,0.4400,9.6726,-0.0011,-0.0065,-0.1484,-16.44,87.31,48.25,2.6751,9.2533,0.5817,9.6498
3,1,1,2,1,00.713,713,2.0900,9.8200,0.2200,10.0424,-0.0076,0.0382,0.4123,-15.81,87.31,47.56,2.5980,9.3280,0.5340,9.6977
3,1,1,2,1,00.843,843,2.4400,9.4400,0.6600,9.7726,0.0044,0.0447,-0.1669,-15.88,87.19,47.31,2.5772,9.3427,0.5506,9.7073
3,1,1,2,1,00.973,973,3.2300,8.8300,0.8800,9.4433,0.0611,0.0753,0.3949,-16.00,87.06,47.00,2.6632,9.2752,0.5940,9.6682
3,1,1,2,1,01.103,1103,1.5900,9.1900,0.4800,9.3389,0.0065,0.0676,-0.0654,-14.56,86.94,45.06,2.5218,9.2639,0.5790,9.6185
3,1,1,2,1,01.234,1234,2.1000,10.0100,0.3500,10.2339,-0.0175,0.0731,0.3360,-15.06,86.94,45.06,2.4662,9.3623,0.5488,9.6972
3,1,1,2,1,01.364,1364,1.7100,7.9500,0.3900,8.1412,0.0055,0.1047,0.5956,-17.06,86.94,46.44,2.3666,9.1762,0.5279,9.4911
3,1,1,2,1,01.537,1537,3.2900,9.4400,0.0600,9.9971,-0.0469,0.0938,0.8628,-16.88,87.25,45.56,2.4882,9.2109,0.4662,9.5525
3,1,1,2,1,01.668,1668,0.5600,9.4100,0.5700,9.4439,-0.0589,0.0535,-0.2116,-16.44,87.75,44.88,2.2341,9.2372,0.4799,9.5156
3,1,1,2,1,01.799,1799,6.7700,9.6500,0.3800,11.7941,-0.0960,0.0458,0.1287,-20.06,88.25,48.13,2.8319,9.2916,0.4667,9.7247
3,1,1,2,1,01.929,1929,1.7700,10.7800,0.3000,10.9285,-0.0873,0.0458,1.0581,-16.75,88.88,44.81,2.6919,9.4877,0.4448,9.8722
3,1,1,2,1,02.060,2060,1.5600,10.0900,0.0500,10.2100,-0.0175,0.0458,0.5160,-16.31,89.13,44.38,2.5428,9.5671,0.3928,9.9070
3,1,1,2,1,02.192,2192,1.6200,8.8000,0.7200,8.9768,0.1091,-0.0044,-0.4112,-17.69,88.94,45.56,2.4212,9.4660,0.4359,9.7804
3,1,1,2,1,02.326,2326,2.1000,9.9500,0.3800,10.1763,0.0927,0.0120,0.4276,-17.69,88.50,45.44,2.3789,9.5298,0.4285,9.8315
3,1,1,2,1,02.457,2457,1.8400,9.7600,-0.3900,9.9396,0.0185,-0.0131,-0.0633,-18.13,87.81,45.69,2.3078,9.5601,0.3207,9.8399
3,1,1,2,1,02.630,2630,3.3200,9.5600,0.5300,10.1339,-0.0011,-0.0295,-0.3469,-19.94,87.31,47.38,2.4412,9.5601,0.3482,9.8730
3,1,1,2,1,02.760,2760,3.1200,10.5400,0.8600,11.0257,0.0316,-0.0098,0.0131,-20.19,87.19,47.69,2.5307,9.6892,0.4157,10.0229
3,1,1,2,1,02.890,2890,3.4700,9.5100,1.3300,10.2103,0.0785,-0.0513,-0.4898,-20.00,86.88,47.56,2.6544,9.6656,0.5362,10.0378
3,1,1,2,1,03.020,3020,2.6600,10.1400,0.4600,10.4932,0.0196,-0.0327,-0.0469,-17.75,86.50,45.44,2.6552,9.7281,0.5261,10.0977
3,1,1,2,1,03.150,3150,2.7800,9.9100,0.3600,10.2988,0.0458,-0.0185,-0.0982,-16.81,86.06,44.56,2.6716,9.7521,0.5042,10.1240
3,1,1,2,1,03.280,3280,2.8100,9.2500,0.9600,9.7149,-0.0196,-0.0022,-0.3589,-16.31,86.06,44.13,2.6899,9.6859,0.5643,10.0683
3,1,1,2,1,03.410,3410,1.1400,8.8200,-0.0300,8.8934,-0.0545,0.0240,-0.2771,-15.25,86.63,43.13,2.4856,9.5718,0.4860,9.9012
3,1,1,2,1,03.541,3541,1.4100,6.0900,1.1700,6.3596,-0.1538,0.0273,0.9458,-17.38,87.44,45.44,2.3439,9.1130,0.5761,9.4272
3,2,1,2,1,03.713,3713,1.3200,9.7200,0.0000,9.8092,-0.0644,-0.0196,-0.0447,-17.94,88.44,46.56,2.2090,9.1930,0.5002,9.4679
3,2,1,2,1,03.843,3843,3.4800,9.6000,0.4700,10.2221,0.0153,-0.0360,-0.0654,-18.00,88.44,46.94,2.3765,9.2466,0.4962,9.5600
3,2,1,2,1,03.973,3973,1.8300,9.5300,-0.2300,9.7068,-0.0535,-0.0316,-0.4811,-16.50,88.13,45.56,2.3044,9.2840,0.4005,9.5741
3,2,1,2,1,04.103,4103,3.0000,9.3700,0.5500,9.8539,0.0240,0.0349,0.4909,-16.94,87.94,45.94,2.3961,9.2953,0.4202,9.6084
3,2,1,2,1,04.233,4233,3.7700,9.1200,0.9500,9.9141,0.0927,0.0327,0.2847,-17.63,87.81,46.44,2.5771,9.2722,0.4900,9.6362
3,2,1,2,1,04.363,4363,2.7000,9.6100,0.3400,9.9879,0.0218,0.0295,0.2313,-16.81,87.69,45.38,2.5933,9.3167,0.4703,9.6823
3,2,1,2,1,04.493,4493,1.4800,8.6800,0.7300,8.8355,-0.0142,0.0469,0.3763,-17.19,87.56,45.44,2.4466,9.2328,0.5045,9.5648
3,2,1,2,1,04.624,4624,2.8100,9.0900,0.8100,9.5488,0.0425,0.0436,0.1516,-16.94,87.50,44.88,2.4945,9.2140,0.5447,9.5612
3,2,1,2,1,04.797,4797,1.9600,8.8400,0.3500,9.0614,0.0218,0.0731,0.9872,-17.75,87.44,45.38,2.4241,9.1647,0.5191,9.4941
3,2,1,2,1,04.928,4928,2.9700,7.6900,0.6600,8.2700,-0.0622,-0.0033,-1.1497,-20.19,87.50,47.50,2.4960,8.9704,0.5377,9.3267
3,2,1,2,1,05.059,5059,0.6500,9.4200,0.5800,9.4602,0.0513,0.0545,0.7243,-17.81,87.81,45.13,2.2528,9.0296,0.5432,9.3222
3,2,1,2,1,05.194,5194,1.1500,9.4200,-0.4200,9.4992,-0.1844,-0.0262,-0.5792,-17.81,88.00,45.00,2.1074,9.0811,0.4163,9.3317
3,2,1,2,1,05.325,5325,4.1100,8.3200,0.3500,9.2864,-0.0502,-0.0305,-1.0679,-16.75,88.25,44.06,2.3713,8.9808,0.4076,9.2975
3,2,1,2,1,05.456,5456,0.2900,10.4500,0.5100,10.4665,0.0011,-0.0316,-0.0185,-11.44,88.75,39.13,2.0971,9.1744,0.4211,9.4204
3,2,1,2,1,05.586,5586,0.6000,9.7500,0.3600,9.7751,-0.0044,-0.0393,0.0022,-9.94,88.88,38.00,1.8998,9.2502,0.4130,9.4523
3,2,1,2,1,05.717,5717,1.0800,9.4200,0.8600,9.5206,0.1014,-0.0513,-0.3665,-9.88,88.56,38.19,1.7918,9.2726,0.4719,9.4559
3,2,1,2,1,05.890,5890,1.4200,10.2700,0.2500,10.3707,0.0065,-0.0305,0.2302,-10.69,88.19,39.25,1.7428,9.4040,0.4427,9.5744
3,2,1,2,1,06.021,6021,0.5300,9.6700,0.5600,9.7007,0.0567,-0.0305,0.3371,-11.63,87.75,40.31,1.5830,9.4391,0.4581,9.5819
3,2,1,2,1,06.151,6151,2.1500,9.8800,0.5300,10.1251,-0.0033,-0.0338,-0.0796,-13.75,87.38,42.50,1.6577,9.4972,0.4676,9.6521
3,2,1,2,1,06.286,6286,3.7700,10.7300,0.3900,11.3797,0.0098,0.0076,0.5563,-16.31,87.19,45.06,1.9360,9.6596,0.4574,9.8624
3,2,1,2,1,06.417,6417,1.9800,9.8100,0.5600,10.0235,-0.0076,0.0044,0.0044,-16.38,87.06,45.06,1.9418,9.6795,0.4709,9.8835
3,2,1,2,1,06.549,6549,3.9200,10.1900,0.5900,10.9339,-0.0425,-0.0218,-0.9970,-17.56,87.19,46.13,2.2025,9.7467,0.4866,10.0043
3,2,1,2,1,06.680,6680,3.8900,10.5700,0.6900,11.2842,-0.0382,0.0076,-0.1756,-16.00,87.38,44.50,2.4249,9.8552,0.5134,10.1621
3,2,1,2,1,06.810,6810,3.7900,10.6500,0.7400,11.3285,-0.0011,0.0142,0.1614,-16.31,87.44,44.69,2.6048,9.9599,0.5433,10.3092
3,2,1,2,1,06.983,6983,1.6900,8.8100,0.6700,8.9956,0.1036,0.0273,0.6556,-16.69,87.19,44.94,2.4842,9.8084,0.5600,10.1336
3,2,1,2,1,07.114,7114,1.3000,8.0000,-0.3200,8.1113,-0.1200,-0.0665,-1.6068,-16.31,87.38,44.81,2.3282,9.5701,0.4440,9.8592
3,2,1,2,1,07.244,7244,4.3700,4.9000,0.3600,6.5754,-0.1811,0.0404,2.3137,-21.75,87.88,50.06,2.5972,8.9547,0.4329,9.3338
3,2,1,2,1,07.375,7375,2.6100,8.7300,0.9400,9.1602,0.0164,0.0142,0.1091,-26.44,88.81,54.94,2.5989,8.9251,0.4998,9.3092
3,3,1,2,1,07.505,7505,4.9700,9.6700,0.8600,10.9064,0.0676,0.0164,0.7232,-27.19,89.50,55.88,2.9114,9.0233,0.5472,9.4971
3,3,1,2,1,07.637,7637,6.0900,8.3600,0.0400,10.3431,-0.0044,0.0065,0.4843,-29.00,89.31,57.69,3.3302,8.9359,0.4804,9.5483
3,3,1,2,1,07.767,7767,4.8700,7.8500,0.9200,9.2836,0.0273,-0.0175,0.0774,-27.44,88.94,56.13,3.5331,8.7928,0.5383,9.4913
3,3,1,2,1,07.902,7902,4.0000,8.3100,0.6100,9.2427,0.1516,0.0055,0.4985,-26.13,88.63,54.88,3.5946,8.7292,0.5478,9.4562
3,3,1,2,1,08.075,8075,4.5400,8.3500,0.4400,9.5146,0.0164,-0.0076,-0.0774,-25.13,88.56,54.00,3.7192,8.6792,0.5336,9.4576
3,3,1,2,1,08.205,8205,2.8300,9.4900,0.1100,9.9036,-0.0382,-0.0229,-0.3611,-22.88,88.88,52.00,3.6020,8.7860,0.4777,9.5078
3,3,1,2,1,08.335,8335,5.1200,8.3000,0.1300,9.7530,-0.0327,0.0371,0.7418,-24.63,88.75,53.69,3.8021,8.7220,0.4319,9.5245
3,3,1,2,1,08.465,8465,3.4200,8.5100,1.3800,9.2747,0.1102,0.0033,-0.1254,-21.56,88.44,50.56,3.7517,8.6941,0.5569,9.4854
3,3,1,2,1,08.595,8595,4.4300,8.9900,0.8000,10.0541,0.1091,0.0000,0.2825,-22.25,88.13,51.13,3.8411,8.7331,0.5889,9.5586
3,3,1,2,1,08.725,8725,3.2300,8.1300,0.3400,8.7547,0.0251,0.0273,0.4102,-24.06,87.69,52.69,3.7606,8.6536,0.5561,9.4518
3,3,1,2,1,08.856,8856,2.4700,9.3500,1.0900,9.7320,0.0436,0.0033,-0.0076,-21.94,87.38,50.44,3.5905,8.7454,0.6265,9.4745
3,3,1,2,1,08.986,8986,6.1000,9.2800,0.8200,11.1356,0.0469,-0.0120,0.4254,-23.56,87.13,51.81,3.9212,8.8158,0.6520,9.6705
3,3,1,2,1,09.159,9159,2.8500,9.0100,0.8600,9.4891,-0.0251,-0.0273,-0.9458,-21.38,87.00,49.63,3.7800,8.8414,0.6794,9.6395
3,3,1,2,1,09.290,9290,3.6000,8.9900,0.4200,9.6931,0.0076,0.0251,0.2443,-21.19,87.13,49.38,3.7563,8.8610,0.6452,9.6459
3,3,1,2,1,09.421,9421,4.1700,9.3700,0.8400,10.2904,-0.0305,0.0327,0.1385,-19.88,87.44,48.13,3.8108,8.9281,0.6709,9.7305
3,3,1,2,1,09.553,9553,1.8100,9.2700,1.0000,9.4978,0.0295,0.0709,0.7843,-17.31,87.81,45.63,3.5472,8.9731,0.7142,9.6752
3,3,1,2,1,09.684,9684,3.3200,9.0700,0.6000,9.6772,-0.0360,0.0098,-0.1953,-20.44,88.00,48.69,3.5172,8.9859,0.6992,9.6750
3,3,1,2,1,09.818,9818,3.7300,9.9500,0.2800,10.6299,0.0109,0.0458,0.6665,-19.19,88.13,47.38,3.5453,9.1129,0.6439,9.7994
3,3,1,2,1,09.949,9949,2.7500,9.6600,0.3600,10.0503,-0.0218,0.0164,-0.0949,-18.50,88.19,46.50,3.4405,9.1850,0.6065,9.8270
3,3,1,2,1,10.079,10079,5.6600,10.3200,0.4000,11.7770,-0.0622,0.0033,-0.4680,-19.38,88.31,47.25,3.7330,9.3346,0.5793,10.0700
3,3,1,2,1,10.252,10252,1.3500,11.2600,0.7600,11.3661,0.0393,-0.0415,-0.5498,-14.25,88.38,42.31,3.4189,9.5883,0.6031,10.1975
3,3,1,2,1,10.383,10383,1.5100,10.2500,0.5100,10.3732,0.0807,-0.0764,-0.5727,-14.13,87.81,42.38,3.1674,9.6755,0.5909,10.1979
3,3,1,2,1,10.513,10513,2.5000,10.2100,0.4300,10.5204,0.1069,-0.0851,0.1287,-15.88,87.00,44.38,3.0794,9.7459,0.5697,10.2367
3,3,1,2,1,10.644,10644,2.6100,10.6900,0.6300,11.0220,0.0480,-0.0753,0.1451,-17.06,86.06,45.94,3.0176,9.8703,0.5776,10.3375
3,3,1,2,1,10.775,10775,3.1300,4.9700,-0.0800,5.8740,0.0087,-0.0884,-0.3207,-19.19,85.19,48.44,3.0324,9.2246,0.4910,9.7226
3,3,1,2,1,10.907,10907,0.3300,6.8300,0.3800,6.8485,-0.2640,0.0425,1.5763,-20.38,85.94,50.00,2.6763,8.9090,0.4763,9.3145
3,4,1,2,1,11.038,11038,5.3600,8.5600,1.3200,10.1856,-0.1822,-0.0098,-1.1454,-25.88,87.25,56.25,3.0299,8.8631,0.5875,9.3851
3,4,1,2,1,11.172,11172,5.3900,10.0100,1.2300,11.4353,-0.0829,-0.0535,-0.2302,-24.63,88.44,55.44,3.3409,9.0142,0.6722,9.6369
3,4,1,2,1,11.345,11345,3.9200,9.2400,0.1900,10.0389,0.0349,-0.0076,0.0371,-22.94,88.63,54.13,3.4172,9.0439,0.6086,9.6872
3,4,1,2,1,11.475,11475,3.9700,8.8400,0.1200,9.6913,0.0360,0.0393,0.5618,-23.00,88.56,54.19,3.4901,9.0171,0.5442,9.6842
3,4,1,2,1,11.605,11605,1.3600,9.3100,0.2500,9.4121,-0.0240,0.0349,-0.4025,-22.50,88.56,53.38,3.2094,9.0557,0.5055,9.6209
3,4,1,2,1,11.735,11735,3.6600,8.8700,0.6000,9.6142,0.0654,0.0840,0.1189,-22.88,88.56,53.25,3.2688,9.0312,0.5179,9.6185
3,4,1,2,1,11.865,11865,3.5800,8.8400,0.4200,9.5466,0.0415,0.0785,-0.2542,-21.69,88.38,51.38,3.3098,9.0060,0.5050,9.6082
3,4,1,2,1,11.995,11995,2.6900,8.9200,0.3000,9.3216,0.0175,0.0884,-0.0589,-20.06,88.19,49.06,3.2281,8.9947,0.4780,9.5684
3,4,1,2,1,12.125,12125,3.8500,7.8100,0.6700,8.7331,0.0415,0.0829,-0.1789,-20.94,88.13,49.25,3.3101,8.8386,0.5033,9.4515
3,4,1,2,1,12.255,12255,2.0500,10.2500,0.1100,10.4536,0.0949,0.1091,0.7712,-19.44,88.44,47.25,3.1440,9.0246,0.4515,9.5672
3,4,1,2,1,12.428,12428,2.9800,8.3500,0.0100,8.8658,-0.0774,0.0600,0.0676,-21.50,88.75,48.69,3.1224,8.9357,0.3933,9.4737
3,4,1,2,1,12.558,12558,1.9500,10.7700,-0.4400,10.9539,-0.0960,0.0567,0.3272,-20.25,89.44,47.38,2.9679,9.1774,0.2835,9.6495
3,4,1,2,1,12.688,12688,7.1600,8.3100,0.8700,11.0036,-0.0415,-0.0153,-0.4287,-26.31,89.88,53.13,3.5203,9.0631,0.3608,9.7295
3,4,1,2,1,12.818,12818,4.5700,9.2000,0.2200,10.2749,-0.0185,0.0131,0.4287,-21.88,90.25,48.94,3.6586,9.0811,0.3422,9.7964
3,4,1,2,1,12.948,12948,2.8800,10.4400,0.4800,10.8406,-0.0360,-0.0884,-0.9981,-20.25,90.38,47.75,3.5560,9.2602,0.3604,9.9260
3,4,1,2,1,13.078,13078,7.3700,8.4500,1.0100,11.2579,0.0676,-0.0720,0.8498,-25.19,90.13,52.81,4.0586,9.1534,0.4460,10.0228
3,4,1,2,1,13.208,13208,3.0600,10.2200,0.3300,10.6734,0.0382,-0.0545,-0.2203,-21.00,89.75,49.00,3.9270,9.2940,0.4307,10.0988
3,4,1,2,1,13.338,13338,3.4200,8.6800,-0.1300,9.3304,0.0458,-0.0600,-1.0767,-20.63,89.13,48.69,3.8602,9.2131,0.3568,9.9955
3,4,1,2,1,13.511,13511,1.7900,9.1300,0.2400,9.3069,0.0513,-0.0109,-0.3011,-19.94,88.44,48.00,3.5874,9.2021,0.3414,9.8826
3,4,1,2,1,13.642,13642,4.5000,9.8300,0.8100,10.8414,0.0251,0.0087,0.4494,-21.00,88.31,48.88,3.7077,9.2849,0.4032,10.0059
3,4,1,2,1,13.772,13772,1.8900,10.3700,0.2300,10.5433,-0.0567,0.0131,-0.4440,-19.19,88.56,46.94,3.4681,9.4279,0.3804,10.0527
3,4,1,2,1,13.903,13903,3.8600,10.7200,0.9100,11.4301,-0.0382,0.0404,0.0753,-18.06,89.00,45.69,3.5198,9.5981,0.4501,10.2331
3,4,1,2,1,14.034,14034,3.4900,9.7700,0.8100,10.4062,0.0447,0.0873,1.2828,-17.19,89.38,44.75,3.5159,9.6208,0.4976,10.2552
3,4,1,2,1,14.164,14164,0.5000,9.7000,0.6900,9.7374,-0.0840,-0.0142,-2.4827,-15.19,89.75,42.75,3.1184,9.6312,0.5229,10.1370
3,4,1,2,1,14.295,14295,2.3800,4.2700,-0.4800,4.9120,-0.0087,0.0873,2.2591,-19.69,89.88,46.63,3.0211,8.9247,0.3908,9.4303
3,4,1,2,1,14.425,14425,1.9200,6.6300,1.0600,6.9833,0.0360,0.0840,0.2454,-26.94,90.38,53.38,2.8760,8.6224,0.4790,9.1020
3,5,1,2,1,14.598,14598,4.6700,8.0000,0.5600,9.2802,0.1320,0.0633,1.0767,-27.81,90.56,53.94,3.1124,8.5403,0.4896,9.1030
3,5,1,2,1,14.732,14732,4.1000,9.0900,-0.4600,9.9825,0.0262,-0.0011,-0.3512,-27.00,90.50,53.00,3.2426,8.6128,0.3645,9.2102
3,5,1,2,1,14.863,14863,3.4500,8.7700,0.3400,9.4303,-0.0535,-0.0055,0.0393,-27.56,90.44,53.44,3.2699,8.6335,0.3613,9.2390
3,5,1,2,1,14.993,14993,3.8600,8.4700,0.0600,9.3083,0.0022,-0.0524,-0.6087,-27.50,90.25,53.50,3.3477,8.6119,0.3216,9.2453
3,5,1,2,1,15.124,15124,5.5900,9.7600,0.3400,11.2526,0.1069,-0.0447,0.0055,-27.00,90.00,53.25,3.6431,8.7632,0.3240,9.4959
3,5,1,2,1,15.254,15254,4.8800,8.3300,0.1100,9.6548,-0.0087,-0.0851,-0.5323,-27.44,89.50,54.00,3.8061,8.7061,0.2958,9.5064
3,5,1,2,1,15.385,15385,3.8800,9.0000,0.2400,9.8037,-0.0371,-0.0404,0.2182,-26.44,89.25,53.38,3.8159,8.7449,0.2884,9.5455
3,5,1,2,1,15.515,15515,5.1700,7.5900,0.9700,9.2346,0.0251,-0.0480,-0.1756,-27.56,89.06,54.75,3.9943,8.5927,0.3783,9.4832
3,5,1,2,1,15.688,15688,5.1400,8.2100,0.6100,9.7055,0.0229,0.0033,0.4789,-26.44,89.06,53.94,4.1453,8.5423,0.4088,9.5037
3,5,1,2,1,15.818,15818,2.5100,8.1100,0.6200,8.5121,-0.0502,0.0273,0.5083,-26.06,89.13,53.75,3.9298,8.4853,0.4366,9.3613
3,5,1,2,1,15.948,15948,2.7400,8.6700,0.2200,9.0953,-0.0622,-0.0065,-0.5400,-26.56,89.38,54.50,3.7730,8.5096,0.4081,9.3175
3,5,1,2,1,16.078,16078,7.2400,7.1200,1.1300,10.2171,0.0753,-0.0033,0.8454,-31.19,89.44,59.13,4.2299,8.3265,0.5032,9.3529
3,5,1,2,1,16.208,16208,3.1600,9.8600,0.1600,10.3552,-0.0196,-0.0502,-0.0927,-25.94,89.50,54.44,4.0889,8.5286,0.4580,9.4692
3,5,1,2,1,16.338,16338,2.8100,10.6100,0.1800,10.9773,0.0229,-0.0633,-0.4854,-23.19,89.38,52.00,3.9204,8.8029,0.4214,9.6456
3,5,1,2,1,16.468,16468,5.3500,9.2400,0.9600,10.7202,0.0338,-0.0720,-0.2978,-25.25,88.94,54.31,4.1088,8.8605,0.4923,9.7792
3,5,1,2,1,16.598,16598,5.7600,9.4700,0.3400,11.0894,0.0109,-0.0524,0.6261,-27.81,88.31,57.00,4.3263,8.9408,0.4723,9.9437
3,5,1,2,1,16.771,16771,4.9200,9.5800,0.2300,10.7720,0.0142,-0.0327,0.7003,-28.31,87.44,57.81,4.4046,9.0250,0.4403,10.0521
3,5,1,2,1,16.901,16901,4.3200,8.9700,1.0100,10.0072,0.1058,0.0055,0.7254,-27.88,86.88,57.56,4.3934,9.0178,0.5154,10.0443
3,5,1,2,1,17.031,17031,3.9500,9.3700,1.1700,10.2356,0.0240,0.0000,0.2203,-28.75,86.56,58.44,4.3350,9.0642,0.6017,10.0655
3,5,1,2,1,17.161,17161,2.9700,10.1100,0.7400,10.5632,-0.0055,0.0000,-0.3632,-28.19,86.50,57.75,4.1551,9.2020,0.6199,10.1156
3,5,1,2,1,17.291,17291,3.3300,10.1700,0.0000,10.7013,-0.0949,0.0000,-1.3984,-26.31,86.69,55.69,4.0464,9.3296,0.5382,10.1835
3,5,1,2,1,17.421,17421,7.6700,10.1700,0.9000,12.7698,-0.0240,0.0371,-0.0502,-27.69,87.00,56.63,4.5239,9.4403,0.5859,10.4847
3,5,1,2,1,17.551,17551,-0.0600,8.8000,-0.0600,8.8004,0.0065,0.1211,1.2894,-23.50,87.44,52.19,3.9199,9.3559,0.5008,10.1563
3,5,1,2,1,17.682,17682,3.0700,6.8700,0.0100,7.5248,-0.1549,0.1636,-0.8825,-27.31,87.94,55.50,3.8079,9.0283,0.4361,9.8082
3,5,1,2,1,17.854,17854,9.0900,6.6500,-0.3300,11.2676,0.0927,0.1560,-0.0033,-36.81,88.25,63.63,4.5039,8.7149,0.3351,9.8157
3,5,1,2,1,17.984,17984,5.3200,9.9700,-0.4300,11.3088,0.0000,0.1014,0.3305,-36.00,88.75,62.19,4.6115,8.8803,0.2343,10.0090
3,5,1,2,1,18.114,18114,4.1200,7.2600,0.0900,8.3481,0.0371,0.0065,-0.4451,-36.38,88.81,62.13,4.5467,8.6668,0.2153,9.7894
3,5,1,2,1,18.244,18244,3.5500,10.0900,0.0700,10.6965,-0.0142,0.0305,-0.0207,-33.81,88.69,59.38,4.4154,8.8543,0.1962,9.8961
3,5,1,2,1,18.374,18374,5.1100,6.9800,0.6600,8.6757,0.0415,-0.0196,-0.0055,-36.50,88.31,61.75,4.5069,8.6074,0.2573,9.7193
3,5,1,2,1,18.504,18504,3.8000,9.1900,0.5000,9.9572,0.0338,-0.0338,0.0524,-33.13,87.94,58.50,4.4137,8.6841,0.2893,9.7457
3,5,1,2,1,18.635,18635,7.2100,6.7100,0.6100,9.8681,0.0076,-0.0240,0.5454,-37.56,87.38,62.88,4.7822,8.4240,0.3315,9.6924
3,5,1,2,1,18.765,18765,4.2200,8.3400,0.3800,9.3546,0.0087,-0.0469,-0.0142,-34.81,87.19,60.44,4.7081,8.4129,0.3379,9.6467
3,5,1,2,1,18.938,18938,6.9000,7.3300,0.6500,10.0877,-0.0065,-0.0567,0.1963,-36.44,86.81,62.44,4.9970,8.2702,0.3790,9.6701
3,5,1,2,1,19.069,19069,5.8000,8.0600,0.9500,9.9753,-0.0447,-0.0764,0.0447,-34.50,86.56,61.13,5.1028,8.2425,0.4543,9.7048
3,5,1,2,1,19.200,19200,3.6800,7.5700,1.2400,8.5079,0.0720,-0.1069,-0.1374,-32.81,86.19,60.00,4.9153,8.1539,0.5578,9.5372
3,5,1,2,1,19.330,19330,7.5300,7.7400,1.0000,10.8447,-0.0393,-0.0993,-0.2040,-35.31,85.38,63.06,5.2598,8.0994,0.6161,9.6770
3,5,1,2,1,19.461,19461,4.2400,9.0200,0.7500,9.9950,0.0044,-0.0644,0.1527,-32.31,85.13,60.69,5.1255,8.2207,0.6337,9.7083
3,5,1,2,1,19.592,19592,2.0100,7.9400,1.4600,8.3196,0.0993,-0.0295,-0.4232,-29.94,85.06,58.75,4.7149,8.1837,0.7426,9.4739
3,6,1,2,1,19.727,19727,8.4500,7.7700,1.0400,11.5264,-0.0774,-0.0065,-0.3611,-35.63,84.94,64.56,5.2071,8.1292,0.7818,9.6855
3,6,1,2,1,19.857,19857,5.8000,9.4500,0.8600,11.1212,-0.1887,0.0033,-0.4461,-31.75,85.69,61.00,5.2852,8.3032,0.7921,9.8744
3,6,1,2,1,20.030,20030,3.7600,9.8100,0.0000,10.5059,-0.1636,0.0545,-0.1025,-26.81,86.63,56.13,5.0842,8.5018,0.6877,9.9299
3,6,1,2,1,20.160,20160,4.1500,9.6000,0.7900,10.4884,0.0415,0.0982,0.8585,-27.00,86.94,55.94,4.9611,8.6465,0.7012,9.9933
3,6,1,2,1,20.290,20290,3.8600,8.4400,0.9200,9.3263,0.0349,0.0873,0.2629,-26.63,87.38,55.19,4.8160,8.6193,0.7300,9.9005
3,6,1,2,1,20.420,20420,5.1000,10.1600,0.7800,11.3949,-0.0687,0.0851,-0.3272,-27.19,87.94,55.25,4.8535,8.8223,0.7366,10.0961
3,6,1,2,1,20.551,20551,5.6900,10.0100,0.3500,11.5195,0.0338,0.1582,1.6133,-27.44,88.38,54.94,4.9637,8.9788,0.6857,10.2824
3,6,1,2,1,20.681,20681,3.1400,9.7600,1.0700,10.3084,0.0665,0.0545,-0.7123,-27.94,88.69,54.81,4.7234,9.0818,0.7363,10.2631
3,6,1,2,1,20.811,20811,6.4600,10.0500,0.5300,11.9589,0.0567,0.0218,-0.4189,-28.69,88.75,55.13,4.9522,9.2093,0.7091,10.4804
3,6,1,2,1,20.942,20942,4.8600,10.0500,0.4200,11.1713,0.0458,0.0098,0.2411,-28.56,88.56,54.69,4.9401,9.3201,0.6710,10.5697
3,6,1,2,1,21.114,21114,0.0500,9.0600,0.1200,9.0609,0.0131,-0.0022,-0.0185,-24.25,88.31,50.56,4.2957,9.2858,0.5984,10.2488
3,6,1,2,1,21.244,21244,3.1600,5.6800,0.1600,6.5018,-0.0753,-0.0622,-0.1516,-29.88,88.00,56.44,4.1460,8.8107,0.5406,9.7524
3,6,1,2,1,21.374,21374,3.6100,3.4400,0.7400,5.0412,-0.0109,0.0513,2.1598,-34.25,88.44,60.88,4.0754,8.1030,0.5669,9.0878
3,6,1,2,1,21.504,21504,5.3400,9.9000,0.6700,11.2683,-0.1996,-0.0502,-1.6526,-35.63,89.38,63.25,4.2420,8.3398,0.5805,9.3746
3,6,1,2,1,21.634,21634,3.2100,6.3200,0.5700,7.1114,-0.0654,-0.0404,1.1508,-36.69,89.63,64.94,4.1060,8.0736,0.5791,9.0762
3,7,1,2,1,21.764,21764,4.5100,8.6200,0.2200,9.7310,-0.0796,-0.1102,-0.8443,-37.88,89.50,66.94,4.1593,8.1456,0.5318,9.1615
3,7,1,2,1,21.895,21895,7.2300,8.0400,-0.0200,10.8127,0.0120,-0.0436,0.4189,-38.69,89.38,68.25,4.5639,8.1317,0.4591,9.3362
3,7,1,2,1,22.025,22025,5.1400,7.9300,0.1800,9.4518,-0.0774,-0.0567,-0.2749,-37.94,89.38,68.06,4.6398,8.1051,0.4223,9.3488
3,7,1,2,1,22.198,22198,5.4500,7.3800,0.3500,9.1809,-0.0273,-0.0415,-0.0055,-38.63,89.19,69.13,4.7466,8.0096,0.4128,9.3195
3,7,1,2,1,22.329,22329,3.9800,7.2800,0.8100,8.3364,0.0196,-0.0556,-0.5934,-36.75,88.81,67.38,4.6456,7.9134,0.4651,9.1880
3,7,1,2,1,22.460,22460,5.7700,7.2500,0.5800,9.2840,0.1069,0.0153,1.0025,-36.75,88.38,67.31,4.7937,7.8260,0.4803,9.1900
3,7,1,2,1,22.591,22591,3.5500,7.1000,0.2300,7.9414,-0.0524,-0.0578,-0.9501,-36.44,87.88,66.94,4.6298,7.7303,0.4473,9.0218
3,7,1,2,1,22.722,22722,8.7600,7.9600,1.0000,11.8785,0.0469,-0.0382,-0.9272,-36.88,87.38,67.19,5.1741,7.7606,0.5201,9.3418
3,7,1,2,1,22.857,22857,5.0900,7.2300,0.3500,8.8489,0.1167,0.0502,2.0191,-38.06,87.00,68.06,5.1630,7.6907,0.4977,9.2764
3,7,1,2,1,22.988,22988,2.1100,9.0400,-0.1800,9.2847,0.0011,0.0480,-1.3592,-35.63,87.25,65.56,4.7607,7.8685,0.4084,9.2057
3,7,1,2,1,23.118,23118,6.4800,10.3400,0.4500,12.2110,-0.1342,0.0349,-0.8912,-34.63,87.69,64.50,4.9873,8.1942,0.4139,9.6015
3,7,1,2,1,23.291,23291,8.0100,9.3200,0.7900,12.3145,-0.0480,0.0382,-0.6087,-36.63,88.06,66.06,5.3856,8.3425,0.4634,9.9407
3,7,1,2,1,23.422,23422,4.6000,8.9300,1.0800,10.1030,0.1145,0.0207,0.4756,-34.56,88.38,63.56,5.2821,8.4199,0.5447,9.9545
3,7,1,2,1,23.552,23552,6.9100,8.0300,0.3900,10.6010,0.0382,0.0513,0.1189,-37.44,88.31,65.69,5.4966,8.3686,0.5243,10.0260
3,7,1,2,1,23.683,23683,5.4400,10.2600,-0.2900,11.6166,0.0393,0.0687,0.7625,-35.31,88.13,63.13,5.4891,8.6178,0.4170,10.2260
3,7,1,2,1,23.814,23814,5.5000,8.5800,-0.2800,10.1953,-0.0338,0.0338,-0.4352,-36.63,87.75,63.75,5.4906,8.6128,0.3252,10.2192
3,7,1,2,1,23.944,23944,7.9300,8.5100,0.5100,11.6432,0.0611,0.0720,0.8345,-37.75,87.56,64.31,5.8120,8.5993,0.3495,10.3850
3,7,1,2,1,24.075,24075,5.1900,9.1300,0.8200,10.5340,0.0535,0.0011,-0.7036,-36.13,87.56,62.50,5.7301,8.6692,0.4115,10.3999
3,7,1,2,1,24.207,24207,7.3100,10.0500,0.8300,12.4550,-0.0164,0.0262,0.4483,-33.88,87.69,60.25,5.9382,8.8512,0.4667,10.6688
3,7,1,2,1,24.382,24382,5.9300,8.4600,0.4500,10.3411,0.0284,-0.0120,0.5563,-33.00,87.69,59.69,5.9372,8.7996,0.4645,10.6254
3,7,1,2,1,24.513,24513,-0.4300,6.4700,-0.3700,6.4948,-0.1254,0.0055,0.0938,-30.75,87.94,57.88,5.0981,8.4926,0.3545,9.9117
3,7,1,2,1,24.643,24643,4.4200,4.6300,1.1100,6.4966,-0.0022,-0.0425,1.1454,-41.44,88.00,68.50,5.0088,7.9836,0.4541,9.4357
3,8,1,2,1,24.773,24773,7.7300,9.7500,0.4100,12.4492,0.0578,-0.0687,0.2945,-40.50,88.50,68.00,5.3674,8.2164,0.4483,9.8244
3,8,1,2,1,24.904,24904,6.2900,7.6500,0.0600,9.9040,-0.0982,-0.0295,1.2348,-42.00,88.06,69.94,5.4889,8.1418,0.3971,9.8272
3,8,1,2,1,25.034,25034,2.9000,8.2200,1.0200,8.7760,0.1298,-0.0851,-0.3371,-39.31,87.44,67.75,5.1478,8.1521,0.4792,9.6533
3,8,1,2,1,25.165,25165,5.4000,7.5700,-0.0500,9.2988,0.1254,-0.0480,0.0436,-42.19,86.94,70.81,5.1810,8.0754,0.4094,9.6032
3,8,1,2,1,25.295,25295,7.0800,9.3400,0.2400,11.7226,-0.1353,-0.0436,-0.4789,-40.44,86.94,69.50,5.4313,8.2420,0.3871,9.8782
3,8,1,2,1,25.468,25468,4.4800,7.0300,0.4400,8.3477,-0.0938,-0.0218,0.2782,-41.56,86.50,70.81,5.3059,8.0823,0.3941,9.6763
3,8,1,2,1,25.598,25598,5.6800,6.8800,1.2200,9.0047,0.0556,-0.0196,-0.4320,-41.19,86.31,70.44,5.3552,7.9239,0.5029,9.5770
3,8,1,2,1,25.729,25729,4.6600,7.7500,0.2700,9.0472,0.0055,0.0327,0.0676,-40.75,86.44,69.94,5.2636,7.9010,0.4722,9.5054
3,8,1,2,1,25.859,25859,5.2100,7.4300,1.3000,9.1673,-0.0175,0.0087,-0.4701,-40.00,86.44,69.00,5.2565,7.8389,0.5813,9.4561
3,8,1,2,1,25.990,25990,5.7300,7.4900,1.3900,9.5323,0.1178,0.0327,0.2138,-38.94,86.31,67.63,5.3189,7.7929,0.6879,9.4601
3,8,1,2,1,26.121,26121,6.8800,7.8500,0.5700,10.4538,-0.0262,0.0894,0.9338,-41.31,86.13,69.44,5.5246,7.8004,0.6723,9.5823
3,8,1,2,1,26.251,26251,4.0200,6.8100,1.2500,8.0062,0.0589,0.1178,-0.3272,-38.63,86.63,66.31,5.3264,7.6699,0.7485,9.3679
3,8,1,2,1,26.382,26382,8.6200,7.6200,1.1000,11.5576,-0.0720,0.0709,0.6687,-43.00,87.44,70.25,5.7604,7.6633,0.7948,9.6198
3,8,1,2,1,26.558,26558,5.7400,8.6000,0.4600,10.3498,-0.0938,0.1004,-0.3403,-40.69,88.88,67.56,5.7577,7.7868,0.7507,9.7133
3,8,1,2,1,26.689,26689,7.1100,9.2600,0.0900,11.6751,-0.0447,0.0840,-0.6272,-38.81,89.94,65.44,5.9359,7.9809,0.6636,9.9685
3,8,1,2,1,26.820,26820,4.2600,7.8300,0.3000,8.9189,-0.0425,0.0404,-0.1505,-37.44,90.56,63.75,5.7151,7.9610,0.6157,9.8193
3,8,1,2,1,26.950,26950,4.7500,9.2500,0.2900,10.4024,0.0164,0.0065,-0.4407,-35.25,90.75,61.50,5.5879,8.1309,0.5728,9.8825
3,8,1,2,1,27.080,27080,5.1400,8.7400,0.2300,10.1420,0.0971,-0.0011,0.2880,-36.19,90.56,62.25,5.5289,8.2111,0.5276,9.9131
3,8,1,2,1,27.211,27211,5.0700,9.3500,0.2300,10.6386,0.0578,-0.0491,-0.2323,-35.31,89.81,61.31,5.4684,8.3612,0.4884,10.0026
3,8,1,2,1,27.341,27341,7.3800,9.0900,0.3200,11.7130,0.0273,-0.0862,-0.2258,-37.69,88.94,63.63,5.7203,8.4573,0.4662,10.2208
3,8,1,2,1,27.472,27472,8.8900,8.5800,0.7300,12.3766,0.0044,-0.0884,-0.0578,-38.25,88.06,64.38,6.1380,8.4734,0.5010,10.4750
3,8,1,2,1,27.644,27644,7.5000,9.8300,0.6700,12.3826,-0.0153,-0.1364,-0.9817,-36.63,87.06,63.38,6.3175,8.6522,0.5232,10.7259
3,8,1,2,1,27.775,27775,6.6300,7.0100,0.3900,9.6566,0.0393,-0.0622,0.8956,-37.19,86.44,64.50,6.3586,8.4358,0.5057,10.5759
3,8,1,2,1,27.905,27905,1.4800,1.7700,0.5200,2.3651,-0.0469,-0.0273,0.0502,-36.88,86.44,64.88,5.7158,7.5574,0.5076,9.4890
3,9,1,2,1,28.036,28036,9.9100,8.9900,-0.3300,13.3842,-0.2771,-0.0709,-0.4451,-39.81,87.25,68.69,6.2685,7.7462,0.3972,9.9727
3,9,1,2,1,28.166,28166,8.7000,9.9400,0.5700,13.2219,-0.2236,-0.0535,1.4824,-38.88,88.00,68.63,6.5889,8.0353,0.4200,10.3998
3,9,1,2,1,28.297,28297,5.2200,10.1300,-1.2600,11.4653,0.0185,-0.1058,-0.2280,-38.00,87.69,68.38,6.4085,8.3113,0.1986,10.4970
3,9,1,2,1,28.428,28428,4.7000,8.4100,0.7200,9.6611,0.0033,-0.0458,-0.1287,-37.50,87.25,68.31,6.1834,8.3243,0.2673,10.3730
3,9,1,2,1,28.560,28560,5.1700,6.3500,1.5600,8.3358,0.1080,-0.0120,-0.1593,-39.44,87.19,70.38,6.0498,8.0641,0.4376,10.0907
3,9,1,2,1,28.733,28733,5.3200,7.6300,1.2800,9.3892,0.1396,0.0480,0.2880,-38.75,87.56,69.63,5.9536,8.0069,0.5486,9.9929
3,9,1,2,1,28.865,28865,5.4300,7.6600,0.0000,9.3894,-0.0022,0.0349,-0.2127,-39.94,87.63,70.44,5.8846,7.9612,0.4763,9.9115
3,9,1,2,1,28.996,28996,6.2400,7.7100,0.5000,9.9313,-0.0109,0.0415,-0.5814,-38.13,87.81,68.25,5.9315,7.9281,0.4795,9.9130
3,9,1,2,1,29.127,29127,5.0400,6.6200,1.4600,8.4473,-0.0916,0.0687,-0.4636,-35.75,88.06,65.31,5.8140,7.7557,0.6087,9.7121
3,9,1,2,1,29.257,29257,5.0600,6.4300,1.2500,8.2771,0.1702,0.0676,0.0109,-36.31,87.94,65.13,5.7146,7.5810,0.6932,9.5189
3,9,1,2,1,29.387,29387,4.2400,8.9700,-0.1600,9.9229,0.0687,0.0818,-0.2193,-32.56,87.94,60.75,5.5203,7.7641,0.5808,9.5442
3,9,1,2,1,29.518,29518,7.2900,7.6800,1.0600,10.6419,0.0185,0.0589,-0.3512,-35.81,87.81,63.19,5.7535,7.7530,0.6439,9.6761
3,9,1,2,1,29.648,29648,4.2600,8.6000,0.3900,9.6052,0.0065,0.0884,0.5421,-35.00,87.88,61.88,5.5567,7.8646,0.6104,9.6489
3,9,1,2,1,29.821,29821,5.4700,8.5100,0.7400,10.1434,-0.0327,0.0076,-0.4974,-35.81,88.06,62.19,5.5453,7.9497,0.6275,9.7129
3,9,1,2,1,29.953,29953,6.6800,7.6800,1.6500,10.3115,0.1014,-0.0295,-0.3360,-37.06,88.19,63.31,5.6948,7.9141,0.7623,9.7798
3,9,1,2,1,30.083,30083,2.8400,10.6000,-0.0600,10.9740,0.0447,-0.0065,0.1418,-35.88,87.94,62.31,5.3186,8.2680,0.6539,9.8527
3,9,1,2,1,30.216,30216,3.5100,9.2600,0.1000,9.9034,-0.0524,-0.0404,-0.3742,-36.25,87.25,62.81,5.0803,8.3988,0.5809,9.8329
3,9,1,2,1,30.347,30347,5.4500,8.0400,1.3500,9.8065,0.0949,-0.0229,0.3731,-35.50,86.63,62.13,5.1290,8.3515,0.6823,9.8244
3,9,1,2,1,30.480,30480,7.7100,8.3700,1.6000,11.4918,0.0698,-0.0338,-0.5105,-35.44,86.50,62.19,5.4691,8.3539,0.8032,10.0172
3,9,1,2,1,30.611,30611,5.9200,10.5300,0.0700,12.0802,0.0949,-0.0327,0.0785,-34.69,86.63,61.69,5.5285,8.6407,0.7066,10.2823
3,9,1,2,1,30.741,30741,5.7800,9.7600,0.7300,11.3666,0.0502,-0.0644,0.1353,-34.06,86.56,61.50,5.5617,8.7882,0.7097,10.4244
3,9,1,2,1,30.914,30914,4.5700,9.1900,1.4900,10.3712,0.0164,-0.0687,0.7363,-34.56,86.06,62.63,5.4310,8.8411,0.8125,10.4078
3,9,1,2,1,31.045,31045,2.7200,0.9700,-0.0900,2.8892,-0.0055,-0.0927,1.3123,-44.69,84.94,73.06,5.0738,7.8039,0.6936,9.3341
3,10,1,2,1,31.175,31175,9.7000,7.2000,-0.3200,12.0844,-0.2509,-0.0022,0.7527,-50.81,84.63,79.44,5.6834,7.7243,0.5600,9.6062
3,10,1,2,1,31.306,31306,8.4300,7.8500,1.8600,11.6682,0.0229,0.0371,0.5618,-46.31,85.56,75.63,6.0453,7.7409,0.7313,9.8490
3,10,1,2,1,31.437,31437,6.7400,7.3500,0.4200,9.9813,-0.1091,-0.0545,-0.7025,-47.44,85.81,77.19,6.1369,7.6894,0.6903,9.8623
3,10,1,2,1,31.570,31570,7.1100,7.4900,0.8600,10.3630,0.0022,-0.0491,-0.2553,-46.19,85.63,76.19,6.2651,7.6631,0.7127,9.9238
3,10,1,2,1,31.701,31701,7.5000,6.3600,1.2800,9.9166,0.0502,-0.0098,-0.3109,-46.06,85.50,76.06,6.4278,7.4914,0.7874,9.9024
3,10,1,2,1,31.834,31834,4.5100,7.6900,0.6600,8.9393,0.1244,0.0022,0.1407,-44.06,85.63,74.06,6.1751,7.5176,0.7706,9.7591
3,10,1,2,1,32.007,32007,6.7200,6.7300,1.1300,9.5775,-0.0087,0.0360,-0.1145,-45.94,85.44,75.63,6.2469,7.4138,0.8180,9.7292
3,10,1,2,1,32.137,32137,7.3800,7.6000,0.4300,10.6023,0.0033,0.0611,0.6261,-46.69,85.44,75.94,6.3962,7.4383,0.7669,9.8401
3,10,1,2,1,32.267,32267,5.4900,5.1600,0.5100,7.5515,0.0862,0.0676,0.5171,-48.25,85.31,76.94,6.2768,7.1381,0.7330,9.5335
3,10,1,2,1,32.397,32397,3.7200,7.0300,1.0600,8.0239,0.1451,0.0513,-1.3352,-42.69,85.75,71.19,5.9399,7.1239,0.7761,9.3077
3,10,1,2,1,32.527,32527,8.6200,7.5300,0.6100,11.4620,0.0545,0.0273,0.1560,-47.69,85.56,75.75,6.2931,7.1774,0.7542,9.5753
3,10,1,2,1,32.657,32657,7.9400,6.3100,0.9900,10.1902,-0.0033,0.0829,0.6305,-47.63,85.75,75.31,6.5101,7.0631,0.7853,9.6377
3,10,1,2,1,32.787,32787,4.7400,6.9100,1.2300,8.4693,0.0371,0.1276,0.0927,-45.00,86.44,72.44,6.2768,7.0429,0.8439,9.4717
3,10,1,2,1,32.917,32917,8.3500,7.8100,0.1800,11.4346,-0.0622,0.0382,-0.8247,-45.19,87.56,72.56,6.5500,7.1440,0.7564,9.7217
3,10,1,2,1,33.090,33090,8.3800,8.5900,0.5900,12.0150,-0.1069,0.0316,-0.2160,-44.44,88.75,71.88,6.7912,7.3345,0.7345,10.0227
3,10,1,2,1,33.220,33220,7.1700,7.6900,0.9000,10.5525,0.0000,-0.0567,-0.3807,-44.38,88.69,71.75,6.8411,7.3814,0.7563,10.0924
3,10,1,2,1,33.350,33350,4.9900,8.2800,0.9000,9.7092,0.1265,-0.0218,0.3763,-41.19,87.94,68.56,6.5972,7.4998,0.7752,10.0185
3,10,1,2,1,33.480,33480,5.8600,5.8300,0.3200,8.2723,0.1287,-0.0589,-0.7210,-44.50,86.94,71.63,6.5000,7.2798,0.7152,9.7855
3,10,1,2,1,33.610,33610,6.9000,7.5800,0.5500,10.2649,-0.0665,-0.0273,-0.4734,-42.94,86.50,69.94,6.5527,7.3193,0.6935,9.8484
3,10,1,2,1,33.740,33740,6.7000,8.1000,1.6000,10.6330,0.0382,-0.0055,0.5869,-40.63,86.31,67.69,6.5721,7.4222,0.8129,9.9470
3,10,1,2,1,33.870,33870,6.8100,7.9400,1.4200,10.5563,0.1025,-0.0469,0.2487,-40.88,85.81,68.00,6.6035,7.4904,0.8929,10.0255
3,10,1,2,1,34.000,34000,8.3800,7.9300,1.7000,11.6619,-0.0458,-0.0687,0.1909,-41.63,85.19,69.00,6.8376,7.5484,0.9993,10.2337
3,10,1,2,1,34.173,34173,8.8300,9.1400,0.9100,12.7411,-0.0044,-0.0753,0.7450,-41.81,84.25,69.69,7.1001,7.7581,0.9875,10.5629
3,10,1,2,1,34.303,34303,5.5200,10.1400,1.1700,11.6043,-0.0262,-0.0873,-0.3142,-41.63,83.75,70.19,6.8919,8.0720,1.0116,10.6620
3,10,1,2,1,34.433,34433,5.2900,1.8900,-0.8600,5.6829,-0.2094,0.0098,1.7835,-52.75,82.63,81.44,6.6808,7.2573,0.7649,9.8938
3,10,1,2,1,34.563,34563,2.5100,2.2600,1.7600,3.8086,-0.0284,0.1713,1.5882,-59.81,83.06,88.31,6.1312,6.5988,0.8961,9.0520
3,10,1,2,1,34.693,34693,8.8800,3.3200,1.9900,9.6869,0.0556,0.1996,-1.0865,-69.44,84.19,98.31,6.4934,6.1668,1.0402,9.0153
3,10,1,2,1,34.823,34823,9.8000,3.1700,0.8600,10.3358,-0.1865,0.0774,-0.1985,-70.31,87.31,99.38,6.9292,5.7719,1.0165,9.0753
3,10,1,2,1,34.953,34953,6.5500,4.0400,0.9300,7.7517,-0.0404,0.0742,-0.5323,-64.94,89.06,94.06,6.8792,5.5436,1.0051,8.8919
3,10,1,2,1,35.084,35084,9.6000,5.1800,0.0700,10.9086,0.2018,0.1189,0.4363,-63.94,90.81,92.81,7.2377,5.4957,0.8819,9.1305
3,10,1,2,1,35.256,35256,6.7600,5.8100,-0.2600,8.9175,0.0109,0.0905,0.8312,-61.56,92.06,90.25,7.1748,5.5371,0.7314,9.0924
3,10,1,2,1,35.386,35386,9.2500,6.0300,-0.6500,11.0610,-0.0065,-0.0229,-0.2651,-62.19,91.81,90.44,7.4482,5.6021,0.5494,9.3360
3,10,1,2,1,35.516,35516,8.5900,6.1500,0.2300,10.5671,0.1331,-0.0349,-0.1004,-58.44,90.38,86.19,7.5987,5.6743,0.5073,9.4971
3,10,1,2,1,35.646,35646,9.7200,5.0300,0.8500,10.9773,0.1560,-0.0513,-0.5825,-58.63,89.13,85.69,7.8782,5.5894,0.5524,9.6754
3,10,1,2,1,35.776,35776,3.1200,6.4300,0.6800,7.1793,0.0600,-0.0862,-0.6578,-54.81,87.75,81.38,7.2512,5.7002,0.5692,9.2410
