participant,rep,equipment_code,exercise_code,quality_code,timestamp,timestamp_ms,accelX,accelY,accelZ,accelMag,gyroX,gyroY,gyroZ,roll,pitch,yaw,filteredX,filteredY,filteredZ,filteredMag
2,1,1,2,1,00.000,0,3.3300,9.1500,1.1300,9.8025,-0.0011,-0.0076,-0.0305,-20.81,83.44,1.13,3.4850,9.0925,1.0408,9.7929
2,1,1,2,1,00.173,173,3.4900,9.0100,1.0600,9.7203,0.0044,0.0185,0.0273,-21.19,83.38,1.44,3.4856,9.0816,1.0434,9.7833
2,1,1,2,1,00.303,303,3.4900,9.1900,1.0500,9.8863,0.0076,0.0196,-0.0535,-20.94,83.44,1.06,3.4862,9.0959,1.0442,9.7969
2,1,1,2,1,00.433,433,3.4800,8.6700,1.0000,9.3957,0.0120,0.0273,0.0065,-21.06,83.38,1.00,3.4854,9.0398,1.0384,9.7439
2,1,1,2,1,00.563,563,3.3400,9.4200,1.1800,10.0640,0.0491,0.0120,0.0611,-20.94,83.19,0.69,3.4662,9.0899,1.0571,9.7856
2,1,1,2,1,00.693,693,3.5000,8.9300,0.9600,9.6393,-0.0044,0.0316,0.0982,-21.50,82.88,1.06,3.4707,9.0688,1.0443,9.7662
2,1,1,2,1,00.823,823,3.8000,7.9900,1.2100,8.9300,0.0502,-0.0011,-0.0927,-22.19,82.63,1.56,3.5141,8.9266,1.0661,9.6525
2,1,1,2,1,00.953,953,2.7100,8.9100,1.0300,9.3698,0.0065,0.0240,0.0949,-20.38,82.56,359.75,3.4081,8.9245,1.0614,9.6118
2,1,1,2,1,01.084,1084,3.7200,8.8900,1.5700,9.7640,0.0022,0.0022,-0.1091,-21.81,82.50,1.00,3.4492,8.9199,1.1284,9.6299
2,1,1,2,1,01.257,1257,3.4300,8.7800,1.2600,9.5100,0.0284,-0.0055,0.2411,-21.06,82.63,0.31,3.4467,8.9015,1.1457,9.6140
2,1,1,2,1,01.388,1388,3.7200,8.7900,1.2100,9.6212,-0.0044,-0.0480,-0.2160,-21.38,82.50,0.75,3.4827,8.8868,1.1542,9.6144
2,1,1,2,1,01.518,1518,3.1500,8.8500,1.1400,9.4628,-0.0589,-0.0240,0.0840,-20.25,82.75,0.00,3.4389,8.8819,1.1523,9.5939
2,1,1,2,1,01.651,1651,3.5800,10.1000,1.4900,10.8188,-0.0513,0.0065,-0.0218,-21.00,83.19,0.94,3.4575,9.0424,1.1968,9.7546
2,1,1,2,1,01.782,1782,2.7400,7.6500,0.9500,8.1812,0.0022,0.0076,-0.1909,-19.63,83.31,359.56,3.3629,8.8590,1.1643,9.5470
2,1,1,2,1,01.916,1916,3.8800,10.5500,1.1600,11.3006,0.0371,0.0229,0.1473,-19.50,83.38,359.25,3.4311,9.0818,1.1637,9.7778
2,1,1,2,1,02.047,2047,3.6600,9.2400,1.2500,10.0168,0.0818,-0.0360,-0.1625,-20.00,82.75,359.63,3.4612,9.1026,1.1751,9.8091
2,1,1,2,1,02.178,2178,3.3500,9.1400,1.2100,9.8095,0.0425,-0.0218,0.0720,-19.38,82.25,359.13,3.4466,9.1076,1.1797,9.8091
2,1,1,2,1,02.350,2350,3.0400,9.4700,1.2800,10.0280,-0.0295,-0.0218,-0.1287,-19.06,82.19,359.00,3.3930,9.1553,1.1929,9.8364
2,1,1,2,1,02.480,2480,3.4200,9.8200,1.5900,10.5194,-0.0251,-0.0175,0.0905,-19.63,82.25,359.63,3.3966,9.2429,1.2452,9.9257
2,1,1,2,1,02.610,2610,3.0500,9.2900,1.2100,9.8524,-0.0349,-0.0240,-0.0927,-19.31,82.44,359.56,3.3509,9.2491,1.2406,9.9153
2,1,1,2,1,02.740,2740,3.2900,9.8800,1.2700,10.4905,-0.0524,-0.0033,0.0578,-19.81,82.56,0.19,3.3429,9.3323,1.2445,9.9907
2,1,1,2,1,02.870,2870,3.2400,8.3700,0.9400,9.0243,-0.0698,-0.0175,-0.0982,-20.69,82.81,1.19,3.3293,9.2055,1.2043,9.8628
2,1,1,2,1,03.000,3000,3.5000,10.5500,1.2100,11.1811,-0.0524,0.0065,0.1385,-20.38,83.31,1.06,3.3518,9.3826,1.2051,10.0360
2,2,1,2,1,03.131,3131,3.6100,8.7300,0.8100,9.4816,-0.0109,0.0349,0.2280,-22.13,83.44,2.75,3.3858,9.2966,1.1530,9.9610
2,2,1,2,1,03.262,3262,3.4200,9.2100,1.1000,9.8859,0.0415,-0.0120,-0.2771,-21.25,83.44,1.75,3.3903,9.2852,1.1460,9.9510
2,2,1,2,1,03.435,3435,4.1900,8.6400,1.3100,9.6913,0.0971,0.0425,0.2694,-22.69,82.75,2.75,3.4957,9.2002,1.1676,9.9109
2,2,1,2,1,03.565,3565,3.6600,9.1600,1.0800,9.9231,-0.0022,0.0502,0.0916,-23.19,82.69,2.88,3.5174,9.1949,1.1561,9.9123
2,2,1,2,1,03.696,3696,4.4300,9.0600,1.3100,10.1698,-0.0164,0.0415,-0.0349,-24.31,82.75,3.56,3.6376,9.1771,1.1764,9.9416
2,2,1,2,1,03.826,3826,3.9400,9.3400,1.1500,10.2020,-0.0240,0.0644,0.2782,-24.56,83.06,3.56,3.6775,9.1986,1.1729,9.9756
2,2,1,2,1,03.956,3956,4.6300,8.7800,1.0300,9.9793,-0.0415,0.0076,-0.1516,-26.38,83.31,5.13,3.8030,9.1434,1.1541,9.9698
2,2,1,2,1,04.086,4086,5.1100,9.6800,1.2800,11.0206,0.0033,-0.0458,0.0305,-25.94,83.44,4.88,3.9752,9.2141,1.1707,10.1031
2,2,1,2,1,04.216,4216,3.7700,8.5300,1.0000,9.3794,0.0065,-0.0764,-0.0371,-25.63,83.13,5.00,3.9482,9.1240,1.1482,10.0077
2,2,1,2,1,04.346,4346,4.8200,9.4800,1.1900,10.7014,-0.0262,-0.0567,0.2498,-26.88,83.00,6.75,4.0631,9.1709,1.1537,10.0968
2,2,1,2,1,04.519,4519,4.4600,8.9200,1.2200,10.0472,0.0175,-0.0327,0.1309,-27.56,82.88,8.06,4.1154,9.1378,1.1624,10.0890
2,2,1,2,1,04.650,4650,4.1200,7.9900,0.8200,9.0270,0.1145,-0.0251,0.0993,-27.88,82.13,8.31,4.1160,8.9866,1.1173,9.9473
2,2,1,2,1,04.781,4781,4.5800,8.5600,1.1600,9.7773,0.1527,-0.0251,0.1167,-28.56,81.00,8.69,4.1771,8.9304,1.1229,9.9227
2,2,1,2,1,04.916,4916,5.1700,8.7000,1.3600,10.2112,0.1625,-0.0229,0.1724,-29.50,79.75,9.31,4.3080,8.9000,1.1542,9.9549
2,2,1,2,1,05.047,5047,4.6900,7.5900,1.9800,9.1392,0.2345,-0.0818,0.0196,-29.94,77.81,9.44,4.3583,8.7274,1.2630,9.8365
2,2,1,2,1,05.178,5178,5.2500,9.1500,1.9400,10.7261,-0.0425,0.1102,0.4036,-30.56,77.00,9.88,4.4758,8.7831,1.3522,9.9501
2,2,1,2,1,05.309,5309,4.4700,5.5200,0.5900,7.1274,-0.4178,0.2029,-1.0199,-30.88,79.56,9.69,4.4750,8.3531,1.2518,9.5586
2,2,1,2,1,05.439,5439,4.3400,10.2300,2.7800,11.4550,-0.0818,0.1691,0.9174,-27.13,83.00,5.81,4.4572,8.6004,1.4531,9.7952
2,2,1,2,1,05.612,5612,2.8500,6.8700,0.3800,7.4474,0.0556,0.0578,-0.2422,-27.50,82.25,5.50,4.2455,8.3724,1.3117,9.4785
2,2,1,2,1,05.743,5743,6.3500,9.6100,1.4700,11.6119,0.0371,0.0578,-0.0349,-29.69,82.63,6.94,4.5228,8.5355,1.3326,9.7512
2,2,1,2,1,05.873,5873,3.8600,7.6200,1.2000,8.6258,0.0611,0.0349,0.1254,-28.44,82.25,5.38,4.4354,8.4148,1.3151,9.6027
2,2,1,2,1,06.004,6004,5.2200,8.8500,1.2100,10.3458,-0.0098,-0.0044,-0.1909,-29.13,82.31,5.81,4.5388,8.4722,1.3013,9.6991
2,2,1,2,1,06.134,6134,4.5800,8.2300,1.2800,9.5051,0.0295,-0.0185,0.0153,-28.25,82.06,5.06,4.5443,8.4403,1.2985,9.6734
2,2,1,2,1,06.265,6265,4.5500,8.3300,1.2100,9.5685,-0.0120,-0.0360,-0.1865,-28.06,81.94,4.94,4.5450,8.4257,1.2868,9.6595
2,2,1,2,1,06.396,6396,4.5700,8.6900,1.2900,9.9028,-0.0284,-0.0273,0.1036,-27.63,81.94,4.81,4.5483,8.4606,1.2872,9.6915
2,2,1,2,1,06.526,6526,3.5100,7.4600,0.8600,8.2892,-0.0360,-0.0524,-0.1047,-27.50,81.94,5.00,4.4115,8.3287,1.2309,9.5049
2,2,1,2,1,06.699,6699,6.0700,8.7500,1.2700,10.7248,0.0360,-0.0044,0.7145,-29.81,82.00,7.69,4.6300,8.3842,1.2361,9.6571
2,2,1,2,1,06.833,6833,3.2200,8.4300,1.1300,9.0945,-0.0589,-0.0109,-0.2073,-27.69,82.56,6.00,4.4442,8.3903,1.2221,9.5729
2,2,1,2,1,06.964,6964,5.5900,9.7300,1.3100,11.2977,0.0687,0.0120,0.3043,-30.81,82.25,8.94,4.5952,8.5668,1.2337,9.7994
2,2,1,2,1,07.095,7095,3.5800,6.9300,0.7300,7.8342,-0.0076,0.0316,-0.2323,-28.00,82.13,6.13,4.4614,8.3511,1.1673,9.5398
2,2,1,2,1,07.225,7225,6.6200,10.7700,1.6600,12.7504,0.0545,0.1604,1.0123,-31.88,82.25,9.25,4.7459,8.6699,1.2322,9.9603
2,3,1,2,1,07.356,7356,2.8900,7.0600,1.1500,7.7148,-0.0262,-0.0142,-0.9948,-28.75,82.50,5.69,4.5013,8.4577,1.2214,9.6585
2,3,1,2,1,07.486,7486,6.0500,8.7500,0.7900,10.6672,0.1429,-0.0022,0.1178,-30.63,81.88,7.06,4.7054,8.4962,1.1646,9.7818
2,3,1,2,1,07.617,7617,5.2400,8.3400,0.9100,9.8915,-0.0175,-0.0185,0.0960,-29.81,81.44,6.25,4.7758,8.4756,1.1310,9.7941
2,3,1,2,1,07.790,7790,5.6400,8.5200,1.1600,10.2833,-0.1102,-0.0327,0.1178,-30.25,81.81,7.19,4.8897,8.4815,1.1348,9.8556
2,3,1,2,1,07.922,7922,4.5200,8.2000,1.4200,9.4703,-0.0818,-0.0862,-0.2247,-29.06,82.13,6.69,4.8410,8.4444,1.1724,9.8040
2,3,1,2,1,08.053,8053,5.1000,9.2400,0.7100,10.5779,-0.0633,-0.0425,-0.0927,-28.13,82.25,6.31,4.8751,8.5492,1.1115,9.9041
2,3,1,2,1,08.188,8188,3.3800,7.7800,0.6800,8.5097,-0.0916,0.0098,-0.4211,-26.13,82.69,4.56,4.6781,8.4479,1.0546,9.7141
2,3,1,2,1,08.319,8319,4.5500,9.6500,1.0200,10.7175,-0.0753,0.0840,-0.0295,-25.56,83.56,3.75,4.6612,8.6063,1.0501,9.8437
2,3,1,2,1,08.450,8450,4.3400,9.3600,1.2600,10.3939,0.0131,0.0404,-0.1800,-24.69,83.94,2.44,4.6189,8.7056,1.0777,9.9138
2,3,1,2,1,08.580,8580,3.8000,8.0700,1.2300,9.0043,0.0196,0.0044,-0.1549,-24.56,83.81,2.13,4.5110,8.6218,1.0978,9.7924
2,3,1,2,1,08.711,8711,4.1500,9.7000,1.3500,10.6365,0.0240,-0.0556,-0.0720,-23.63,83.81,1.31,4.4634,8.7639,1.1310,9.8999
2,3,1,2,1,08.884,8884,4.0700,9.2700,0.9400,10.1677,0.0044,-0.0425,0.1407,-24.13,83.50,2.31,4.4116,8.8306,1.1058,9.9330
2,3,1,2,1,09.015,9015,3.9000,9.4000,1.0300,10.2289,-0.0240,-0.0196,0.0982,-24.44,83.44,2.94,4.3442,8.9056,1.0959,9.9691
2,3,1,2,1,09.145,9145,4.5900,9.1300,1.3200,10.3038,-0.0044,0.0076,0.1156,-25.25,83.38,3.75,4.3766,8.9352,1.1254,10.0129
2,3,1,2,1,09.276,9276,4.4600,9.1500,1.0200,10.2301,0.0131,0.0065,0.1124,-25.75,83.25,4.25,4.3876,8.9635,1.1115,10.0414
2,3,1,2,1,09.406,9406,4.4100,8.4700,1.1600,9.6195,-0.0033,0.0600,0.2105,-27.13,83.19,5.38,4.3905,8.8985,1.1179,9.9854
2,3,1,2,1,09.536,9536,3.9000,8.6600,1.1300,9.5646,-0.0393,0.0753,0.1014,-27.63,83.63,5.56,4.3259,8.8671,1.1195,9.9293
2,3,1,2,1,09.667,9667,5.3400,9.3900,0.8400,10.8348,-0.0360,0.0360,0.0273,-29.31,84.06,6.94,4.4595,8.9360,1.0827,10.0454
2,3,1,2,1,09.797,9797,4.2700,7.9700,0.6000,9.0617,0.0076,-0.0055,0.0469,-29.56,84.06,7.13,4.4345,8.8087,1.0191,9.9145
2,3,1,2,1,09.970,9970,5.2300,8.0800,0.8800,9.6651,0.0764,-0.0295,0.2542,-31.13,83.50,8.75,4.5394,8.7127,1.0007,9.8751
2,3,1,2,1,10.105,10105,5.9500,8.6400,0.9200,10.5308,0.0371,0.0382,0.5181,-32.31,83.13,9.81,4.7252,8.7031,0.9901,9.9525
2,3,1,2,1,10.236,10236,4.9000,8.5300,0.9600,9.8840,0.0273,-0.0055,0.1254,-32.44,83.06,9.88,4.7483,8.6803,0.9861,9.9431
2,3,1,2,1,10.366,10366,6.3900,9.2100,1.1800,11.2716,0.0404,-0.0055,0.3512,-34.63,82.56,11.94,4.9646,8.7501,1.0117,10.1111
2,3,1,2,1,10.497,10497,6.3000,7.1800,1.0300,9.6075,0.0404,-0.0393,-0.2400,-35.94,82.06,13.13,5.1406,8.5432,1.0141,10.0220
2,3,1,2,1,10.627,10627,2.1900,5.3300,0.3500,5.7730,-0.0284,0.0305,0.2727,-32.75,82.06,10.19,4.7518,8.1198,0.9266,9.4535
2,4,1,2,1,10.758,10758,5.7500,8.5200,0.8000,10.3098,-0.0338,-0.1407,-0.9828,-34.75,82.00,12.38,4.8833,8.1725,0.9099,9.5637
2,4,1,2,1,10.888,10888,5.0500,7.2900,1.3400,8.9690,0.0262,-0.0240,0.6774,-34.19,81.31,12.25,4.9053,8.0562,0.9666,9.4815
2,4,1,2,1,11.061,11061,5.3700,8.6800,1.3200,10.2918,0.0076,0.0164,0.0993,-34.00,81.31,12.13,4.9665,8.1384,1.0131,9.5878
2,4,1,2,1,11.192,11192,5.4300,7.9000,0.9500,9.6331,0.0393,0.0371,-0.1549,-34.31,81.13,12.13,5.0276,8.1070,1.0048,9.5922
2,4,1,2,1,11.323,11323,5.5500,8.0200,1.4300,9.8574,0.0109,0.0753,-0.1200,-33.50,81.44,10.81,5.0964,8.0955,1.0609,9.6248
2,4,1,2,1,11.453,11453,5.3700,8.2200,1.0800,9.8778,0.0349,0.0349,-0.0905,-32.88,81.56,9.75,5.1325,8.1119,1.0634,9.6580
2,4,1,2,1,11.584,11584,5.2800,8.2300,1.2400,9.8564,0.0142,0.0327,-0.1636,-32.31,81.56,8.81,5.1519,8.1275,1.0867,9.6840
2,4,1,2,1,11.714,11714,5.0400,8.2400,1.4100,9.7615,0.0196,0.0076,-0.0425,-31.38,81.56,7.75,5.1372,8.1423,1.1293,9.6935
2,4,1,2,1,11.844,11844,4.8700,7.8300,1.1400,9.2911,0.0207,-0.0185,-0.0622,-31.25,81.25,7.56,5.1020,8.1012,1.1307,9.6404
2,4,1,2,1,11.975,11975,4.3600,7.4200,1.1500,8.6827,-0.0360,-0.0284,-0.2814,-30.31,81.38,6.75,5.0042,8.0114,1.1332,9.5136
2,4,1,2,1,12.152,12152,6.0100,8.8200,1.4200,10.7670,-0.0044,0.0196,0.4112,-31.63,81.69,8.25,5.1367,8.1180,1.1710,9.6777
2,4,1,2,1,12.283,12283,3.8700,6.8800,0.9200,7.9472,-0.0393,-0.0709,-0.5389,-30.00,81.63,7.00,4.9698,7.9548,1.1379,9.4484
2,4,1,2,1,12.414,12414,5.0900,8.7300,1.1900,10.1753,-0.0240,0.0305,0.3774,-31.13,81.88,8.25,4.9856,8.0570,1.1448,9.5437
2,4,1,2,1,12.544,12544,5.2100,7.3200,1.6200,9.1297,-0.0535,-0.0196,-0.3894,-31.69,82.19,8.88,5.0152,7.9599,1.2074,9.4852
2,4,1,2,1,12.674,12674,4.9400,8.3400,1.4100,9.7953,-0.0120,-0.0033,0.3643,-30.94,82.50,8.44,5.0053,8.0100,1.2341,9.5255
2,4,1,2,1,12.805,12805,5.7400,8.6400,1.1400,10.4354,-0.0044,-0.0360,-0.2116,-32.44,82.31,10.00,5.1021,8.0930,1.2217,9.6447
2,4,1,2,1,12.935,12935,2.6000,7.2400,0.5300,7.7109,-0.1167,-0.0327,-0.6414,-28.88,82.94,6.88,4.7724,7.9806,1.1306,9.3672
2,4,1,2,1,13.066,13066,7.0400,9.2300,1.3000,11.6809,-0.0589,0.0578,0.3971,-31.50,83.56,9.44,5.0712,8.1452,1.1529,9.6639
2,4,1,2,1,13.239,13239,3.3100,7.0900,0.6200,7.8491,-0.0055,-0.0393,-0.7625,-29.69,83.88,7.75,4.8391,8.0062,1.0827,9.4174
2,4,1,2,1,13.370,13370,4.8600,8.8500,0.4700,10.1076,0.0087,0.0927,0.3611,-29.31,84.06,7.06,4.8419,8.1174,1.0019,9.5047
2,4,1,2,1,13.500,13500,5.5300,9.5700,1.2000,11.1178,-0.0022,0.1004,-0.1418,-30.06,84.50,7.19,4.9326,8.3088,1.0280,9.7171
2,4,1,2,1,13.631,13631,5.3000,8.9700,1.1300,10.4799,0.0807,0.0360,-0.1724,-29.75,84.44,6.19,4.9810,8.3959,1.0415,9.8176
2,4,1,2,1,13.761,13761,4.4000,8.8500,0.8700,9.9217,0.1047,0.0196,0.0600,-28.00,83.81,4.06,4.9044,8.4558,1.0189,9.8281
2,5,1,2,1,13.895,13895,5.4900,7.9500,1.2700,9.7445,0.0665,-0.0011,0.0251,-30.56,83.13,6.19,4.9816,8.3891,1.0520,9.8133
2,5,1,2,1,14.026,14026,3.4100,7.5800,0.9500,8.3658,-0.0196,-0.0404,0.1484,-28.69,83.00,4.56,4.7745,8.2825,1.0385,9.6163
2,5,1,2,1,14.159,14159,5.1800,8.2000,1.1600,9.7682,-0.0764,-0.0513,0.1865,-30.63,83.13,7.06,4.8279,8.2716,1.0545,9.6354
2,5,1,2,1,14.332,14332,4.4100,7.9200,0.8600,9.1057,-0.1287,-0.0284,-0.1527,-29.44,84.19,6.75,4.7729,8.2253,1.0289,9.5653
2,5,1,2,1,14.462,14462,5.1200,8.9300,1.2500,10.3693,-0.0644,0.0098,0.5781,-31.00,84.81,8.75,4.8186,8.3181,1.0580,9.6711
2,5,1,2,1,14.592,14592,4.9400,9.3900,0.3200,10.6150,-0.1167,-0.0611,-0.5498,-30.00,85.38,8.19,4.8346,8.4594,0.9608,9.7907
2,5,1,2,1,14.722,14722,4.4800,9.3000,0.5900,10.3397,-0.0164,-0.0687,-0.1778,-27.81,85.69,6.63,4.7879,8.5702,0.9119,9.8592
2,5,1,2,1,14.852,14852,4.5900,8.8100,0.4300,9.9433,-0.0458,-0.0185,0.1625,-28.13,85.69,7.31,4.7618,8.6018,0.8484,9.8684
2,5,1,2,1,14.982,14982,4.7200,9.1800,0.6100,10.3404,-0.0240,0.0196,0.1560,-28.56,85.94,7.88,4.7563,8.6780,0.8170,9.9296
2,5,1,2,1,15.113,15113,5.3700,9.3500,0.9000,10.8199,0.0567,0.0098,0.0044,-29.75,85.88,8.88,4.8372,8.7665,0.8279,10.0467
2,5,1,2,1,15.243,15243,4.9600,8.0100,0.6300,9.4424,0.0862,0.0164,0.1931,-30.38,85.44,9.13,4.8533,8.6668,0.8019,9.9655
2,5,1,2,1,15.416,15416,5.5200,8.4100,1.0300,10.1123,0.0589,-0.0578,0.0829,-31.88,84.44,10.56,4.9412,8.6330,0.8319,9.9818
2,5,1,2,1,15.547,15547,4.6800,7.4000,0.6300,8.7783,0.0098,-0.0698,-0.1156,-32.38,83.88,11.38,4.9068,8.4705,0.8053,9.8221
2,5,1,2,1,15.678,15678,5.2700,8.8500,1.0400,10.3526,-0.0731,0.0491,0.5923,-31.94,84.19,11.19,4.9546,8.5205,0.8362,9.8918
2,5,1,2,1,15.808,15808,5.3200,9.0100,1.1900,10.5308,-0.0469,-0.0447,-0.2662,-32.94,84.56,12.44,5.0028,8.5850,0.8829,9.9755
2,5,1,2,1,15.939,15939,4.3900,7.3300,0.3200,8.5501,0.0164,-0.0295,0.2193,-33.94,84.19,13.63,4.9220,8.4196,0.8087,9.7863
2,5,1,2,1,16.069,16069,7.4300,8.7300,1.1800,11.5243,-0.0120,0.0044,0.2334,-37.38,84.06,17.00,5.2525,8.4605,0.8576,9.9953
2,5,1,2,1,16.204,16204,6.1200,8.4700,0.5500,10.4641,-0.0055,0.0142,0.1353,-36.63,84.06,16.31,5.3668,8.4618,0.8171,10.0535
2,5,1,2,1,16.335,16335,6.3200,8.0200,0.8800,10.2488,0.0371,0.0000,-0.1985,-37.19,83.94,16.69,5.4924,8.4036,0.8254,10.0731
2,5,1,2,1,16.508,16508,6.0800,8.3200,0.9100,10.3449,0.1211,-0.0153,-0.2149,-36.38,83.25,15.44,5.5699,8.3926,0.8365,10.1073
2,5,1,2,1,16.638,16638,1.7600,4.9800,0.2800,5.2893,-0.0218,0.0469,-0.5269,-34.06,82.81,12.75,5.0678,7.9429,0.7632,9.4527
2,5,1,2,1,16.768,16768,6.3100,6.9100,2.3400,9.6457,0.0469,0.0644,-0.6774,-36.50,83.56,14.31,5.2315,7.8068,0.9710,9.4476
2,5,1,2,1,16.899,16899,4.8400,7.3400,1.1100,8.8619,0.0829,0.0207,0.1647,-34.00,83.44,11.50,5.1799,7.7453,0.9893,9.3701
2,6,1,2,1,17.029,17029,5.6400,7.5800,1.0700,9.5085,0.0087,0.0415,-0.3796,-35.06,83.06,12.00,5.2405,7.7235,0.9999,9.3870
2,6,1,2,1,17.160,17160,6.0500,8.5400,1.1000,10.5235,0.0589,-0.0284,0.0644,-33.94,83.00,10.75,5.3472,7.8311,1.0131,9.5365
2,6,1,2,1,17.290,17290,4.2400,7.1000,0.6200,8.2929,-0.0164,-0.0371,-0.4014,-32.88,82.50,9.88,5.2013,7.7347,0.9613,9.3704
2,6,1,2,1,17.420,17420,6.1700,8.9500,1.5300,10.9778,-0.0022,-0.0120,0.2891,-33.88,82.63,11.00,5.3290,7.8949,1.0362,9.5813
2,6,1,2,1,17.593,17593,4.5400,7.9500,1.0500,9.2150,-0.0120,-0.0065,0.1025,-32.63,82.38,10.06,5.2250,7.9021,1.0381,9.5301
2,6,1,2,1,17.723,17723,5.8800,8.2900,1.1000,10.2229,-0.0371,-0.0284,-0.2662,-33.44,82.50,10.94,5.3113,7.9533,1.0462,9.6207
2,6,1,2,1,17.853,17853,4.3300,7.0500,1.0100,8.3350,0.0000,-0.0262,-0.1178,-31.63,82.50,9.38,5.1820,7.8342,1.0415,9.4505
2,6,1,2,1,17.983,17983,5.8600,9.1600,1.4600,10.9716,-0.0535,0.0469,0.1309,-31.50,82.94,9.31,5.2713,8.0089,1.0966,9.6505
2,6,1,2,1,18.113,18113,4.5500,7.8400,0.8600,9.1054,-0.0360,-0.0349,-0.3436,-30.25,83.19,8.19,5.1763,7.9867,1.0654,9.5768
2,6,1,2,1,18.243,18243,5.5200,9.9400,1.0400,11.4173,-0.0142,0.0327,0.2749,-30.31,83.38,8.31,5.2216,8.2441,1.0621,9.8162
2,6,1,2,1,18.374,18374,2.9600,7.5700,0.7900,8.1664,-0.0295,0.0087,-0.3022,-29.38,83.44,7.38,4.9236,8.1552,1.0262,9.5814
2,6,1,2,1,18.504,18504,6.3200,9.2400,0.9200,11.2324,0.0633,0.0447,0.4974,-31.94,83.56,9.56,5.1076,8.2982,1.0122,9.7965
2,6,1,2,1,18.677,18677,3.9800,6.8400,0.8300,7.9571,0.0436,-0.0185,-0.3992,-30.44,83.25,7.88,4.9590,8.1060,0.9882,9.5538
2,6,1,2,1,18.808,18808,6.1500,9.6800,1.3700,11.5500,0.0556,0.0785,0.8563,-31.50,83.13,8.69,5.1159,8.3134,1.0385,9.8165
2,6,1,2,1,18.939,18939,5.3800,8.3200,1.0500,9.9634,-0.0120,0.0153,-0.1702,-31.69,82.94,8.75,5.1507,8.3143,1.0400,9.8356
2,6,1,2,1,19.069,19069,4.1300,7.8900,1.0300,8.9649,0.0164,0.0949,0.1276,-29.19,83.25,5.94,5.0162,8.2584,1.0387,9.7182
2,6,1,2,1,19.200,19200,4.9900,9.5900,0.9200,10.8496,0.0076,0.1614,0.0305,-29.50,83.69,5.44,5.0128,8.4339,1.0231,9.8643
2,6,1,2,1,19.330,19330,5.7800,8.2300,1.3800,10.1511,0.0207,0.1342,0.0153,-30.75,84.19,5.50,5.1139,8.4070,1.0701,9.8982
2,6,1,2,1,19.463,19463,5.4900,8.6200,0.7400,10.2466,0.0284,0.0742,0.2225,-29.19,84.50,3.50,5.1634,8.4351,1.0266,9.9431
2,6,1,2,1,19.594,19594,3.7100,7.7000,1.0600,8.6126,-0.0905,0.0218,-0.5541,-27.88,85.06,1.94,4.9719,8.3382,1.0310,9.7626
2,6,1,2,1,19.769,19769,4.6800,9.1100,0.4400,10.2512,-0.1254,-0.0295,-0.0480,-27.81,85.94,2.38,4.9334,8.4399,0.9531,9.8224
2,6,1,2,1,19.899,19899,4.6300,8.3900,0.6000,9.6015,-0.1320,-0.0469,-0.2062,-27.56,86.75,2.63,4.8935,8.4333,0.9066,9.7923
2,6,1,2,1,20.030,20030,4.4400,9.6000,0.4200,10.5854,-0.0873,-0.0316,0.3087,-26.88,87.31,2.56,4.8337,8.5871,0.8425,9.8900
2,6,1,2,1,20.160,20160,4.6900,9.0300,0.5000,10.1876,0.0207,-0.0949,-0.0545,-28.25,87.00,4.44,4.8148,8.6454,0.7973,9.9278
2,6,1,2,1,20.291,20291,4.6800,9.5000,0.4600,10.6002,0.0600,-0.0862,0.0142,-28.06,86.31,4.63,4.7970,8.7580,0.7529,10.0141
2,6,1,2,1,20.421,20421,4.5500,8.0800,0.9400,9.3205,0.0742,-0.0404,0.0600,-29.06,85.50,5.81,4.7645,8.6687,0.7775,9.9222
2,6,1,2,1,20.552,20552,4.5600,8.7600,1.0500,9.9315,0.0131,0.0382,-0.0207,-28.56,85.19,5.19,4.7375,8.6807,0.8134,9.9227
2,6,1,2,1,20.682,20682,5.0000,8.6300,0.8700,10.0117,-0.0327,0.0796,-0.0524,-29.00,85.44,5.19,4.7721,8.6740,0.8209,9.9341
2,6,1,2,1,20.855,20855,5.5100,8.8100,0.4400,10.4005,-0.0371,0.0556,0.0415,-28.94,86.19,4.63,4.8693,8.6920,0.7707,9.9927
2,6,1,2,1,20.985,20985,4.9900,8.7000,0.6800,10.0525,-0.0022,-0.0295,-0.1822,-27.94,86.44,3.63,4.8852,8.6930,0.7588,10.0005
2,6,1,2,1,21.115,21115,4.5200,8.5100,0.5700,9.6527,0.0044,-0.0371,0.2465,-27.69,86.25,3.63,4.8371,8.6689,0.7339,9.9542
2,6,1,2,1,21.245,21245,4.7100,8.6900,0.5600,9.9002,-0.0284,-0.0131,0.3043,-28.88,86.25,5.06,4.8204,8.6717,0.7110,9.9468
2,6,1,2,1,21.375,21375,4.7600,8.8800,0.5100,10.0882,-0.0436,-0.0665,-0.1604,-29.50,86.31,6.13,4.8124,8.6991,0.6845,9.9651
2,6,1,2,1,21.505,21505,4.1800,7.8500,0.6200,8.9151,-0.0196,-0.0251,0.0785,-29.50,86.44,6.50,4.7291,8.5872,0.6760,9.8266
2,6,1,2,1,21.635,21635,5.6800,9.2600,0.5800,10.8787,0.0131,0.0469,0.6480,-31.44,86.56,8.44,4.8544,8.6759,0.6633,9.9637
2,6,1,2,1,21.765,21765,5.6400,7.9400,0.3600,9.7459,0.0938,-0.1058,-0.4091,-32.56,85.75,9.50,4.9579,8.5789,0.6234,9.9281
2,6,1,2,1,21.938,21938,5.7900,9.4700,1.3500,11.1816,0.0785,0.0469,0.8268,-33.50,84.88,10.38,5.0676,8.6963,0.7191,10.0908
2,6,1,2,1,22.069,22069,5.1600,7.9000,0.8400,9.4732,0.0654,-0.0589,-0.4363,-33.00,84.25,9.75,5.0797,8.5914,0.7350,10.0078
2,6,1,2,1,22.200,22200,5.8800,8.6600,0.7700,10.4959,0.0415,0.0436,0.4712,-33.19,83.88,9.88,5.1852,8.6004,0.7397,10.0698
2,6,1,2,1,22.330,22330,4.7200,7.6800,1.4600,9.1319,0.0698,-0.0164,-0.3905,-32.69,83.75,9.06,5.1239,8.4792,0.8346,9.9422
2,6,1,2,1,22.461,22461,9.2000,8.8800,1.1900,12.8417,0.0971,0.0611,0.8825,-35.44,82.94,11.38,5.6610,8.5320,0.8814,10.2771
2,6,1,2,1,22.597,22597,3.0700,5.9200,0.3700,6.6789,0.0185,-0.1134,-1.2152,-31.50,82.88,7.50,5.3196,8.1878,0.8140,9.7980
2,6,1,2,1,22.729,22729,6.0700,9.0200,1.3300,10.9533,0.0175,0.1385,1.3810,-31.06,82.75,7.00,5.4185,8.2974,0.8820,9.9491
2,6,1,2,1,22.859,22859,3.3100,7.6800,0.9000,8.4112,-0.0033,-0.1004,-1.2435,-30.19,82.63,6.06,5.1406,8.2161,0.8844,9.7320
2,7,1,2,1,23.032,23032,7.4500,9.2000,1.3600,11.9160,-0.0065,0.0785,0.4789,-31.81,82.69,7.44,5.4449,8.3457,0.9471,10.0098
2,7,1,2,1,23.163,23163,3.6600,7.8400,1.2200,8.7378,0.0164,-0.0131,0.1953,-29.56,83.00,5.38,5.2097,8.2791,0.9830,9.8311
2,7,1,2,1,23.293,23293,6.1500,8.2500,0.8100,10.3219,-0.0873,-0.0327,-0.1571,-31.81,83.06,7.75,5.3336,8.2753,0.9602,9.8919
2,7,1,2,1,23.424,23424,3.7600,8.0100,0.9100,8.8953,-0.0753,-0.0785,-0.1691,-28.25,83.56,5.00,5.1263,8.2403,0.9536,9.7514
2,7,1,2,1,23.555,23555,6.5600,9.0200,1.0400,11.2016,-0.0785,-0.0491,-0.1200,-30.44,83.69,7.63,5.3152,8.3431,0.9650,9.9393
2,7,1,2,1,23.685,23685,3.0000,7.5600,0.7200,8.1653,-0.0491,-0.0600,-0.0327,-26.69,84.13,4.69,5.0101,8.2399,0.9327,9.6885
2,7,1,2,1,23.816,23816,6.3100,9.1400,1.0500,11.1561,0.0447,-0.0611,0.1985,-30.63,83.75,8.69,5.1814,8.3585,0.9482,9.8798
2,7,1,2,1,23.946,23946,3.3200,7.4000,0.8300,8.1530,-0.0022,-0.0044,0.1276,-28.25,83.38,6.75,4.9361,8.2322,0.9326,9.6438
2,7,1,2,1,24.119,24119,4.5700,8.8000,1.2800,9.9982,0.0033,-0.0633,-0.5890,-29.00,83.50,7.50,4.8879,8.3070,0.9784,9.6879
2,7,1,2,1,24.254,24254,5.1100,8.1600,0.9900,9.6787,0.0338,0.0251,0.4887,-29.19,83.13,7.69,4.9171,8.2876,0.9799,9.6862
2,7,1,2,1,24.385,24385,2.3100,7.1600,0.7300,7.5587,0.0022,-0.0469,-0.6185,-27.31,83.19,6.00,4.5736,8.1390,0.9470,9.3839
2,7,1,2,1,24.515,24515,6.8000,9.5700,1.1500,11.7961,0.0949,0.0425,1.2043,-32.25,82.44,10.63,4.8670,8.3276,0.9737,9.6946
2,7,1,2,1,24.646,24646,2.8000,8.0400,0.1900,8.5157,0.0316,-0.0065,-0.6381,-29.75,82.38,8.19,4.5946,8.2897,0.8705,9.5177
2,7,1,2,1,24.776,24776,5.5100,9.6100,1.0600,11.1282,-0.0764,0.1353,0.4494,-30.38,83.00,8.44,4.7152,8.4637,0.8954,9.7298
2,7,1,2,1,24.907,24907,4.5700,8.1500,1.1800,9.4181,-0.0251,0.0382,-0.5781,-29.81,83.75,7.38,4.6961,8.4223,0.9329,9.6881
2,7,1,2,1,25.037,25037,4.0900,8.5000,0.7000,9.4588,0.0425,0.0578,0.5236,-27.69,84.00,5.06,4.6162,8.4326,0.9022,9.6557
2,7,1,2,1,25.210,25210,5.0200,8.7800,0.7700,10.1431,0.0905,-0.0796,-0.3043,-29.31,83.13,6.50,4.6694,8.4784,0.8848,9.7195
2,7,1,2,1,25.340,25340,4.1900,8.2400,1.1000,9.3093,-0.0240,-0.0851,-0.2509,-27.63,82.63,5.31,4.6063,8.4470,0.9132,9.6645
2,7,1,2,1,25.470,25470,4.3700,8.4200,0.9100,9.5300,-0.0109,-0.0240,-0.0404,-27.13,82.69,5.19,4.5751,8.4434,0.9127,9.6465
2,7,1,2,1,25.600,25600,4.3100,8.9700,1.5300,10.0687,0.0469,-0.0251,0.0818,-26.25,82.50,4.50,4.5402,8.5128,0.9941,9.6989
2,7,1,2,1,25.730,25730,5.0400,8.8000,1.3500,10.2305,0.0164,0.0120,0.3382,-28.19,82.19,6.38,4.6060,8.5506,1.0410,9.7679
2,7,1,2,1,25.861,25861,4.8600,8.2400,1.1500,9.6353,-0.0153,-0.0316,-0.2509,-29.13,82.06,7.31,4.6395,8.5097,1.0554,9.7496
2,7,1,2,1,25.991,25991,5.2300,8.6400,1.2600,10.1779,0.0240,0.0065,0.0960,-28.19,82.00,6.50,4.7173,8.5269,1.0823,9.8047
2,7,1,2,1,26.121,26121,4.8500,9.1900,1.1100,10.4504,0.0229,0.0196,-0.1189,-27.56,82.00,5.81,4.7348,8.6143,1.0860,9.8895
2,7,1,2,1,26.294,26294,4.4500,8.5400,1.1700,9.7007,-0.0393,0.0393,-0.0142,-28.00,82.31,6.00,4.6973,8.6045,1.0970,9.8643
2,7,1,2,1,26.425,26425,4.6500,9.0100,1.0200,10.1903,-0.0502,0.0295,-0.1571,-27.50,82.88,5.38,4.6910,8.6579,1.0869,9.9069
2,7,1,2,1,26.555,26555,4.4700,8.3100,1.2300,9.5158,-0.0098,0.0065,-0.1342,-27.31,83.06,5.13,4.6619,8.6121,1.1057,9.8551
2,7,1,2,1,26.686,26686,5.0700,9.4300,1.1900,10.7725,0.0393,-0.0033,0.2007,-27.56,82.94,5.31,4.7157,8.7198,1.1168,9.9760
2,7,1,2,1,26.817,26817,5.3900,8.6500,1.1800,10.2600,0.0295,-0.0251,0.1320,-28.94,82.50,6.69,4.8045,8.7106,1.1252,10.0112
2,7,1,2,1,26.947,26947,3.6600,7.6500,0.8200,8.5200,-0.0567,-0.0382,-0.2345,-27.88,82.63,5.88,4.6537,8.5709,1.0850,9.8130
2,7,1,2,1,27.078,27078,6.0200,9.9600,1.4500,11.7279,0.0175,0.0055,0.5694,-29.81,82.63,8.00,4.8338,8.7539,1.1331,10.0638
2,7,1,2,1,27.208,27208,5.1700,8.0100,1.3100,9.6232,0.0524,-0.0524,0.0524,-31.88,82.00,10.06,4.8781,8.6559,1.1564,10.0029
2,7,1,2,1,27.381,27381,3.4300,6.5100,0.7200,7.3935,-0.0142,0.0098,-0.5552,-31.88,81.56,10.06,4.6873,8.3731,1.0989,9.6585
2,7,1,2,1,27.516,27516,5.9000,9.8300,1.7500,11.5975,0.0873,0.1385,0.7439,-31.56,81.75,9.13,4.8471,8.5651,1.1847,9.9125
2,7,1,2,1,27.647,27647,5.1400,8.4600,1.2300,9.9752,0.0316,0.0535,-0.2280,-31.13,81.69,8.00,4.8857,8.5513,1.1906,9.9202
2,7,1,2,1,27.777,27777,5.5600,8.3600,1.2100,10.1127,0.0349,0.0436,0.0535,-31.31,81.69,7.75,4.9745,8.5261,1.1932,9.9430
2,7,1,2,1,27.908,27908,4.2300,7.7000,1.1400,8.8590,0.0338,0.0022,0.0349,-31.06,81.63,7.31,4.8764,8.4172,1.1862,9.7998
2,7,1,2,1,28.038,28038,6.3900,8.9000,1.5700,11.0683,0.0589,-0.0524,0.1811,-33.94,80.94,10.06,5.0759,8.4808,1.2368,9.9608
2,7,1,2,1,28.169,28169,4.9500,7.4200,1.1800,8.9973,0.0218,-0.0960,-0.2793,-33.56,80.19,10.13,5.0593,8.3410,1.2293,9.8326
2,7,1,2,1,28.299,28299,5.6700,7.8800,1.8300,9.8789,-0.0065,-0.0305,-0.0087,-35.00,79.75,11.75,5.1398,8.2803,1.3084,9.8332
2,7,1,2,1,28.472,28472,6.8000,9.1700,2.3400,11.6535,0.0371,0.0229,0.4211,-35.75,79.75,12.56,5.3585,8.3975,1.4444,10.0657
2,7,1,2,1,28.602,28602,1.5300,3.9400,0.5100,4.2573,-0.1047,-0.0894,-1.6057,-32.75,80.06,9.75,4.8540,7.8101,1.3212,9.2901
2,8,1,2,1,28.733,28733,8.9800,8.8200,1.7600,12.7095,-0.0338,0.1778,1.3952,-33.19,81.25,10.00,5.3977,7.9432,1.3791,9.7022
2,8,1,2,1,28.863,28863,5.9800,7.6200,0.5000,9.6992,-0.0393,-0.0698,-1.0101,-32.00,81.88,8.88,5.4745,7.9006,1.2632,9.6946
2,8,1,2,1,28.994,28994,5.4700,8.5400,1.2000,10.2124,-0.0065,0.0327,0.5149,-32.38,82.19,9.44,5.4739,7.9849,1.2549,9.7620
2,8,1,2,1,29.125,29125,4.3700,8.2000,1.2100,9.3702,-0.0360,-0.0654,-0.2651,-31.13,82.38,8.50,5.3284,8.0132,1.2490,9.7038
2,8,1,2,1,29.255,29255,5.1600,8.5500,0.9500,10.0315,-0.0131,-0.0262,0.1025,-31.81,82.19,9.50,5.3062,8.0840,1.2096,9.7452
2,8,1,2,1,29.386,29386,4.5700,8.2600,1.1400,9.5085,-0.0022,-0.0196,-0.0949,-31.25,82.13,9.06,5.2092,8.1072,1.2004,9.7110
2,8,1,2,1,29.563,29563,5.2400,8.5200,1.2600,10.0814,0.0175,0.0131,-0.1134,-31.38,82.00,9.06,5.2133,8.1616,1.2083,9.7596
2,8,1,2,1,29.694,29694,4.4400,7.7800,1.1000,9.0251,0.0109,0.0098,-0.1767,-29.88,82.00,7.44,5.1114,8.1113,1.1940,9.6615
2,8,1,2,1,29.825,29825,5.7900,8.7600,1.3100,10.5820,-0.0218,0.0382,-0.0098,-30.81,82.06,8.13,5.2008,8.1968,1.2093,9.7825
2,8,1,2,1,29.955,29955,3.3900,7.3400,1.2700,8.1842,0.0098,-0.0578,-0.5301,-28.25,82.25,5.69,4.9622,8.0839,1.2173,9.5631
2,8,1,2,1,30.085,30085,6.1500,8.1400,1.5500,10.3191,-0.0185,-0.0415,0.1025,-30.75,81.69,8.25,5.1187,8.0913,1.2611,9.6571
2,8,1,2,1,30.216,30216,3.5900,8.0800,0.8200,8.8796,-0.0545,-0.0371,-0.0120,-28.25,81.88,6.31,4.9173,8.0898,1.2030,9.5431
2,8,1,2,1,30.346,30346,4.4700,8.0700,1.3900,9.3294,-0.0567,-0.0382,-0.0676,-29.13,82.19,7.50,4.8583,8.0872,1.2276,9.5138
2,8,1,2,1,30.477,30477,5.4800,9.1800,1.7700,10.8368,-0.0120,-0.0316,0.1014,-30.25,82.25,8.94,4.9402,8.2312,1.2991,9.6874
2,8,1,2,1,30.650,30650,3.9700,7.7100,1.1800,8.7520,-0.0338,0.0164,0.1058,-29.06,82.38,8.13,4.8124,8.1625,1.2834,9.5620
2,8,1,2,1,30.781,30781,5.2500,8.1800,0.8900,9.7605,-0.0644,0.0338,-0.0873,-30.44,82.94,9.44,4.8701,8.1648,1.2316,9.5864
2,8,1,2,1,30.911,30911,4.5200,9.3500,1.1000,10.4433,-0.0720,0.0404,0.0622,-28.25,83.88,7.38,4.8239,8.3210,1.2142,9.6945
2,8,1,2,1,31.042,31042,5.0000,8.7100,0.9500,10.0879,0.0349,-0.0415,-0.2509,-29.19,83.81,8.25,4.8471,8.3722,1.1794,9.7458
2,8,1,2,1,31.172,31172,3.6400,8.1700,0.8200,8.9817,0.0698,-0.0720,-0.2956,-26.81,83.25,6.06,4.6881,8.3456,1.1321,9.6389
2,8,1,2,1,31.304,31304,5.2100,9.5200,1.5100,10.9569,0.1429,-0.0033,0.5498,-27.75,82.19,6.94,4.7568,8.5004,1.1819,9.8123
2,8,1,2,1,31.435,31435,4.0600,7.5500,0.8500,8.6144,0.0295,-0.0654,-0.5334,-28.38,81.31,7.50,4.6650,8.3751,1.1381,9.6540
2,8,1,2,1,31.570,31570,3.4900,7.8800,1.3000,8.7158,-0.0284,0.0469,0.2280,-26.69,81.50,5.88,4.5102,8.3099,1.1595,9.5258
2,8,1,2,1,31.743,31743,5.0200,8.9300,1.1600,10.3097,0.0033,0.0065,-0.1287,-27.94,81.88,6.81,4.5774,8.3916,1.1595,9.6289
2,8,1,2,1,31.873,31873,4.8800,8.9400,1.2700,10.2641,0.0524,-0.0535,-0.2542,-27.06,81.56,5.94,4.6172,8.4639,1.1741,9.7126
2,8,1,2,1,32.003,32003,4.0300,9.0400,1.3300,9.9866,0.0327,-0.0349,-0.1004,-25.13,81.19,4.25,4.5399,8.5398,1.1946,9.7450
2,8,1,2,1,32.133,32133,4.2100,8.6800,1.1400,9.7142,-0.0229,0.0185,0.1145,-25.63,81.00,4.81,4.4964,8.5583,1.1874,9.7402
2,8,1,2,1,32.263,32263,4.3100,9.0600,1.3700,10.1260,-0.0327,0.0338,0.0284,-25.69,81.38,4.75,4.4718,8.6244,1.2115,9.7900
2,8,1,2,1,32.394,32394,5.1400,9.4300,1.4600,10.8386,-0.0371,0.0262,0.0415,-26.06,81.56,5.00,4.5599,8.7305,1.2442,9.9279
2,8,1,2,1,32.524,32524,4.3300,8.8200,1.1400,9.8915,-0.0087,-0.0131,-0.0785,-25.31,81.81,4.38,4.5296,8.7423,1.2305,9.9227
2,8,1,2,1,32.655,32655,3.7800,9.3800,1.3000,10.1962,-0.0055,-0.0153,-0.0022,-24.44,81.88,3.69,4.4308,8.8264,1.2397,9.9536
2,8,1,2,1,32.828,32828,4.5200,9.1900,1.2700,10.3199,-0.0327,0.0098,-0.0480,-25.31,82.00,4.56,4.4426,8.8743,1.2437,10.0018
2,8,1,2,1,32.959,32959,3.8800,9.3500,1.1600,10.1893,-0.0207,0.0033,-0.1396,-24.31,82.25,3.63,4.3684,8.9370,1.2326,10.0236
2,8,1,2,1,33.090,33090,4.5400,9.3500,1.6200,10.5194,0.0535,0.0142,0.1614,-25.63,82.06,4.75,4.3910,8.9914,1.2837,10.0883
2,9,1,2,1,33.220,33220,3.7700,8.0500,1.1600,8.9644,0.0938,0.0207,0.3502,-26.63,81.38,5.44,4.3092,8.8673,1.2674,9.9401
2,9,1,2,1,33.351,33351,4.3800,7.9500,1.1600,9.1505,0.0218,0.0480,0.0938,-29.00,81.00,7.44,4.3185,8.7465,1.2532,9.8347
2,9,1,2,1,33.481,33481,5.4600,8.2100,1.4800,9.9703,-0.0393,0.0774,0.1429,-30.00,81.25,8.00,4.4689,8.6758,1.2831,9.8431
2,9,1,2,1,33.614,33614,5.3200,8.6100,1.2500,10.1979,-0.0305,0.0087,-0.1724,-29.50,81.81,7.38,4.5811,8.6671,1.2787,9.8864
2,9,1,2,1,33.745,33745,5.7500,9.0400,1.1600,10.7763,0.0142,-0.0404,0.0676,-29.56,81.75,7.63,4.7351,8.7162,1.2631,9.9995
2,9,1,2,1,33.920,33920,4.4700,8.5700,1.3500,9.7595,0.0382,-0.0393,0.2978,-29.13,81.06,7.56,4.7002,8.6970,1.2746,9.9676
2,9,1,2,1,34.050,34050,5.0600,8.5800,1.5000,10.0732,-0.0295,-0.0480,-0.2574,-30.00,80.75,8.69,4.7476,8.6816,1.3043,9.9805
2,9,1,2,1,34.181,34181,4.9600,8.2500,1.5000,9.7424,-0.0698,0.0665,0.1364,-30.06,81.19,8.81,4.7756,8.6247,1.3301,9.9479
2,9,1,2,1,34.311,34311,2.8000,5.9700,0.6700,6.6280,-0.0807,0.0600,-0.1920,-29.13,82.13,7.75,4.5153,8.2749,1.2431,9.5082
2,9,1,2,1,34.442,34442,8.2500,9.4400,1.8300,12.6698,0.0142,-0.0273,-0.0578,-31.94,82.63,10.19,5.0074,8.4284,1.3204,9.8922
2,9,1,2,1,34.572,34572,2.3900,7.8700,0.8000,8.2637,-0.0676,0.0513,0.5356,-27.06,82.69,5.94,4.6625,8.3548,1.2518,9.6493
2,9,1,2,1,34.702,34702,5.2700,7.8400,1.2100,9.5238,-0.0273,-0.0611,-0.5400,-29.81,82.88,8.63,4.7425,8.2870,1.2463,9.6291
2,9,1,2,1,34.833,34833,4.9700,8.5800,1.3300,10.0043,0.0382,0.0131,0.5934,-29.00,82.94,8.06,4.7725,8.3256,1.2574,9.6785
2,9,1,2,1,35.006,35006,3.4400,8.0000,1.2200,8.7933,0.0087,-0.0185,-0.1636,-27.69,82.88,7.00,4.5969,8.2827,1.2524,9.5553
2,9,1,2,1,35.136,35136,5.3700,9.1600,0.8900,10.6553,-0.0098,0.0055,0.0295,-29.00,82.81,8.25,4.6988,8.3983,1.2047,9.6985
2,9,1,2,1,35.267,35267,3.8900,8.1200,0.4000,9.0126,-0.0055,0.0305,-0.0611,-27.88,82.81,7.00,4.5922,8.3616,1.0986,9.6027
2,9,1,2,1,35.398,35398,5.7000,8.9400,1.4600,10.7026,0.0327,0.0469,0.0753,-29.25,82.88,7.94,4.7382,8.4378,1.1463,9.7448
2,9,1,2,1,35.528,35528,4.8300,8.2600,0.9500,9.6156,0.0404,0.0120,-0.0087,-28.63,82.69,7.13,4.7503,8.4144,1.1204,9.7274
2,9,1,2,1,35.659,35659,4.5700,8.7400,1.1600,9.9307,-0.0011,0.0175,0.1167,-27.75,82.63,6.13,4.7265,8.4573,1.1256,9.7536
2,9,1,2,1,35.789,35789,4.9600,8.2200,1.3300,9.6922,0.0033,-0.0644,-0.3022,-28.63,82.50,7.06,4.7573,8.4260,1.1525,9.7447
2,9,1,2,1,35.920,35920,4.0100,8.1600,1.1000,9.1584,-0.0284,0.0087,0.2007,-27.06,82.56,5.81,4.6588,8.3910,1.1456,9.6657
2,9,1,2,1,36.097,36097,4.5300,8.5600,1.3200,9.7743,0.0109,-0.0229,-0.2498,-27.63,82.69,6.44,4.6419,8.4133,1.1686,9.6796
2,9,1,2,1,36.228,36228,4.2200,8.6500,1.1200,9.6894,-0.0447,0.0251,0.0065,-26.56,82.88,5.44,4.5863,8.4444,1.1622,9.6795
2,9,1,2,1,36.358,36358,4.3400,8.7300,1.1300,9.8146,-0.0295,-0.0055,-0.1309,-26.25,83.25,5.19,4.5538,8.4821,1.1580,9.6966
2,9,1,2,1,36.489,36489,4.6100,8.8600,0.9100,10.0289,0.0164,-0.0120,0.1614,-26.50,83.19,5.50,4.5612,8.5319,1.1253,9.7398
2,9,1,2,1,36.619,36619,4.4500,8.7300,0.9700,9.8466,-0.0196,-0.0229,-0.0578,-26.69,83.19,5.81,4.5466,8.5580,1.1048,9.7535
2,9,1,2,1,36.750,36750,4.3700,8.5700,1.0200,9.6738,0.0076,-0.0316,0.0698,-26.81,83.13,6.13,4.5233,8.5596,1.0936,9.7428
2,9,1,2,1,36.880,36880,4.6500,8.8500,1.0600,10.0533,0.0382,-0.0251,0.1364,-27.50,82.81,6.94,4.5400,8.5978,1.0892,9.7837
2,9,1,2,1,37.011,37011,4.0900,7.9200,1.0600,8.9765,0.0218,0.0076,0.0153,-27.69,82.50,7.06,4.4807,8.5085,1.0854,9.6773
2,9,1,2,1,37.184,37184,5.0200,8.2200,1.4100,9.7343,0.0458,-0.0022,-0.0131,-28.50,82.31,7.63,4.5518,8.4705,1.1281,9.6820
2,9,1,2,1,37.315,37315,3.6900,8.5500,1.0500,9.3713,0.0164,-0.0076,0.0807,-27.19,82.06,6.31,4.4382,8.4810,1.1178,9.6371
2,9,1,2,1,37.445,37445,4.9500,8.1500,1.5400,9.6590,0.0436,-0.0360,-0.1604,-28.63,81.69,7.75,4.5056,8.4374,1.1735,9.6367
2,9,1,2,1,37.576,37576,4.9300,8.6100,1.2800,10.0038,0.0087,-0.0316,0.2378,-28.81,81.38,8.06,4.5616,8.4601,1.1875,9.6846
2,9,1,2,1,37.707,37707,4.3900,7.7600,0.9400,8.9651,-0.0600,-0.0098,0.0600,-29.13,81.31,8.69,4.5390,8.3679,1.1549,9.5894
2,9,1,2,1,37.838,37838,4.5500,8.6200,1.4900,9.8604,-0.1069,0.0371,-0.0251,-28.56,82.19,8.31,4.5404,8.4011,1.1991,9.6245
2,9,1,2,1,37.969,37969,5.4400,9.3800,1.5300,10.9507,0.0502,0.0000,0.1822,-29.38,82.44,9.13,4.6590,8.5301,1.2427,9.7986
2,9,1,2,1,38.104,38104,4.0700,7.9500,0.8500,8.9716,0.0000,0.0164,-0.0873,-29.06,82.13,8.75,4.5813,8.4536,1.1909,9.6887
2,9,1,2,1,38.277,38277,4.9500,8.4000,0.8500,9.7870,-0.0262,0.0993,0.1167,-29.81,82.88,8.88,4.6299,8.4466,1.1460,9.7002
2,9,1,2,1,38.407,38407,5.6300,8.8400,1.2700,10.5572,0.0153,0.0774,0.0796,-31.00,83.25,9.44,4.7617,8.4984,1.1623,9.8106
2,9,1,2,1,38.537,38537,5.4100,8.3600,0.8200,9.9915,0.0480,0.0087,-0.1102,-31.06,83.25,9.19,4.8471,8.4802,1.1172,9.8314
2,9,1,2,1,38.667,38667,5.2700,8.3800,0.8500,9.9358,0.0785,0.0055,0.0764,-30.81,82.75,8.69,4.9029,8.4670,1.0820,9.8437
2,9,1,2,1,38.797,38797,5.8600,8.2400,1.4700,10.2175,0.0360,-0.0349,-0.0175,-31.56,82.25,9.31,5.0290,8.4371,1.1331,9.8873
2,9,1,2,1,38.928,38928,4.5800,8.0700,1.3600,9.3782,-0.0022,-0.0633,-0.3251,-29.63,82.06,7.69,4.9698,8.3887,1.1630,9.8195
2,9,1,2,1,39.059,39059,4.4800,8.5700,1.3700,9.7669,-0.0033,0.0218,0.3589,-29.31,81.94,7.56,4.9053,8.4126,1.1903,9.8107
2,9,1,2,1,39.189,39189,5.2600,8.2300,1.2700,9.8495,-0.0436,-0.0098,-0.2771,-31.00,82.00,9.25,4.9520,8.3885,1.2008,9.8149
2,9,1,2,1,39.362,39362,4.4300,8.3400,1.0000,9.4963,-0.0502,-0.0033,-0.2651,-28.75,82.75,7.13,4.8832,8.3821,1.1743,9.7717
2,9,1,2,1,39.492,39492,5.3900,9.7000,1.2400,11.1660,-0.0251,0.0316,0.1102,-28.56,83.13,6.94,4.9500,8.5558,1.1830,9.9551
2,9,1,2,1,39.623,39623,4.3400,8.5000,1.2000,9.6190,0.0153,-0.0131,-0.2247,-28.06,83.13,6.38,4.8696,8.5484,1.1852,9.9093
2,9,1,2,1,39.753,39753,5.6900,9.2100,1.2800,10.9013,0.0589,0.0229,0.3131,-28.94,82.94,7.06,4.9777,8.6356,1.1977,10.0392
2,9,1,2,1,39.884,39884,4.8900,8.8800,1.2200,10.2105,0.0676,-0.0327,-0.1113,-28.56,82.56,6.63,4.9662,8.6678,1.2007,10.0616
2,10,1,2,1,40.015,40015,4.5500,8.1700,1.4100,9.4572,0.0633,-0.0120,0.2596,-29.00,81.88,7.00,4.9113,8.6022,1.2282,9.9814
2,10,1,2,1,40.145,40145,5.6800,8.2800,1.3900,10.1367,0.0469,0.0229,0.2127,-31.38,81.25,9.19,5.0126,8.5598,1.2496,9.9979
2,10,1,2,1,40.276,40276,4.5600,8.1700,1.3000,9.4463,-0.0164,0.0382,0.0131,-30.44,81.38,8.13,4.9530,8.5084,1.2562,9.9249
2,10,1,2,1,40.453,40453,5.0900,8.2300,1.2600,9.7585,-0.0731,0.0665,-0.1625,-31.25,82.06,8.50,4.9710,8.4717,1.2567,9.9025
2,10,1,2,1,40.584,40584,5.4900,8.4400,1.0700,10.1251,-0.0415,0.0458,0.0327,-31.88,82.81,8.88,5.0394,8.4675,1.2321,9.9304
2,10,1,2,1,40.715,40715,5.1300,7.5300,1.2400,9.1954,-0.0131,0.0175,0.0393,-32.00,83.06,8.94,5.0514,8.3440,1.2331,9.8315
2,10,1,2,1,40.845,40845,6.2300,8.6500,1.0500,10.7116,0.0131,0.0131,0.1200,-32.75,82.94,9.63,5.2067,8.3843,1.2090,9.9432
2,10,1,2,1,40.975,40975,2.8100,5.5600,0.5000,6.2498,0.0382,-0.1014,-0.6654,-29.88,82.63,7.00,4.8909,8.0121,1.1156,9.4530
2,10,1,2,1,41.106,41106,8.4300,8.1000,1.7500,11.8211,0.1309,-0.0382,0.4102,-33.69,81.63,10.63,5.3572,8.0237,1.1992,9.7220
2,10,1,2,1,41.236,41236,2.7200,8.7200,0.9200,9.1806,-0.0087,-0.0175,0.0316,-27.19,81.44,4.56,5.0097,8.1155,1.1624,9.6078
2,10,1,2,1,41.367,41367,5.1200,7.3800,1.9900,9.1999,0.0720,-0.0153,-0.3589,-30.81,80.88,7.88,5.0242,8.0186,1.2715,9.5476
2,10,1,2,1,41.540,41540,5.0000,7.9000,2.0300,9.5672,0.0589,0.0262,0.3436,-29.38,81.00,6.50,5.0210,8.0029,1.3714,9.5467
2,10,1,2,1,41.671,41671,4.1000,7.6800,1.9300,8.9172,0.0164,-0.0065,-0.2651,-28.13,81.06,5.25,4.8997,7.9604,1.4450,9.4585
2,10,1,2,1,41.801,41801,5.3300,9.1200,1.0700,10.6174,-0.0382,0.0273,0.0524,-28.50,81.19,5.44,4.9564,8.1132,1.3956,9.6092
2,10,1,2,1,41.932,41932,3.9700,7.7900,1.4300,8.8595,0.0131,0.0109,-0.1287,-27.31,81.31,4.25,4.8264,8.0706,1.4001,9.5073
2,10,1,2,1,42.062,42062,5.4800,9.4800,1.3600,11.0341,0.0055,0.0098,0.2029,-27.69,81.38,4.50,4.9125,8.2563,1.3948,9.7080
2,10,1,2,1,42.193,42193,4.2100,8.0800,1.1700,9.1858,-0.0098,-0.0185,-0.1898,-27.31,81.38,4.13,4.8200,8.2331,1.3652,9.6374
2,10,1,2,1,42.324,42324,4.3500,9.0100,1.5200,10.1199,0.0458,-0.0022,0.2847,-27.13,81.25,4.06,4.7580,8.3355,1.3856,9.6974
2,10,1,2,1,42.454,42454,4.7500,7.6600,1.4800,9.1339,0.0229,-0.0458,-0.5269,-28.50,80.75,5.31,4.7570,8.2465,1.3980,9.6222
2,10,1,2,1,42.627,42627,5.0700,8.6100,1.8200,10.1562,0.0262,0.0600,0.8912,-27.38,80.81,4.25,4.7982,8.2944,1.4537,9.6919
2,10,1,2,1,42.761,42761,3.3400,8.0900,1.4000,8.8636,-0.0644,-0.0262,-0.7069,-26.81,80.94,3.69,4.6061,8.2674,1.4466,9.5739
2,10,1,2,1,42.892,42892,4.9400,9.0000,1.4000,10.3616,0.0142,0.0720,0.4134,-26.56,81.25,3.19,4.6501,8.3640,1.4404,9.6775
2,10,1,2,1,43.023,43023,4.6100,8.3300,1.1900,9.5946,0.0622,-0.0393,-0.7341,-25.00,81.13,1.50,4.6448,8.3595,1.4074,9.6662
2,10,1,2,1,43.154,43154,4.2800,8.9200,1.5800,10.0190,0.0807,0.0033,0.1276,-23.44,80.69,359.88,4.5967,8.4334,1.4302,9.7106
2,10,1,2,1,43.284,43284,3.1300,8.7300,1.2200,9.3540,-0.0033,-0.0164,-0.3458,-21.88,80.44,358.25,4.4034,8.4724,1.4025,9.6509
2,10,1,2,1,43.415,43415,3.5400,9.7000,1.6300,10.4536,0.0022,0.0175,-0.1145,-21.44,80.56,357.63,4.2897,8.6342,1.4325,9.7469
2,10,1,2,1,43.545,43545,3.9800,9.2000,1.4500,10.1283,0.0349,-0.0055,-0.1691,-21.31,80.50,357.38,4.2489,8.7088,1.4348,9.7956
2,10,1,2,1,43.718,43718,2.8500,7.7600,1.3000,8.3684,-0.0055,-0.0458,-0.4298,-19.88,80.25,356.00,4.0645,8.5837,1.4170,9.6025
2,10,1,2,1,43.849,43849,3.7400,10.4900,1.3300,11.2159,-0.0404,0.0251,0.1920,-18.63,80.56,354.88,4.0218,8.8349,1.4055,9.8085
2,10,1,2,1,43.980,43980,2.7600,8.9800,1.9100,9.5868,-0.0622,0.0338,-0.2193,-17.19,81.19,353.44,3.8555,8.8541,1.4720,9.7686
2,10,1,2,1,44.110,44110,2.8200,9.1600,1.8800,9.7669,0.0120,-0.0033,-0.1309,-16.69,81.44,352.88,3.7190,8.8944,1.5258,9.7606
2,10,1,2,1,44.241,44241,3.5300,9.1500,1.6000,9.9370,0.0240,-0.0098,0.2214,-17.81,81.19,353.94,3.6941,8.9281,1.5356,9.7834
2,10,1,2,1,44.371,44371,3.4200,9.3000,1.2800,9.9912,-0.0567,-0.0284,0.1178,-17.94,81.25,354.31,3.6580,8.9771,1.5019,9.8094
2,10,1,2,1,44.501,44501,3.4100,9.5000,1.3300,10.1807,-0.1440,-0.0207,0.0818,-19.00,81.94,355.75,3.6253,9.0460,1.4792,9.8570
2,10,1,2,1,44.632,44632,3.6600,10.2700,1.2000,10.9685,-0.1233,-0.0055,0.1298,-20.00,82.94,357.06,3.6299,9.2073,1.4424,10.0015
2,10,1,2,1,44.809,44809,3.6000,9.4100,1.0600,10.1307,-0.0349,0.0338,0.1604,-21.31,83.63,358.50,3.6260,9.2340,1.3920,10.0176
2,10,1,2,1,44.939,44939,3.6600,9.3600,1.0700,10.1069,0.0175,0.0567,0.2978,-22.56,83.69,359.50,3.6304,9.2506,1.3496,10.0287
2,11,1,2,1,45.071,45071,4.5200,8.6100,1.1700,9.7945,0.0404,0.0502,0.3163,-25.88,83.44,2.25,3.7477,9.1662,1.3259,9.9911
2,11,1,2,1,45.201,45201,4.7400,7.4100,0.9600,8.8486,0.0055,0.0055,-0.0480,-27.94,83.19,4.00,3.8784,8.9348,1.2777,9.8237
2,11,1,2,1,45.332,45332,4.6700,9.1900,1.0200,10.3588,-0.1113,0.1233,0.7374,-27.31,83.88,3.38,3.9827,8.9684,1.2438,9.8915
2,11,1,2,1,45.462,45462,4.6300,9.3800,1.0000,10.5082,-0.1254,-0.0382,-0.5236,-28.63,84.75,4.63,4.0680,9.0226,1.2116,9.9712
2,11,1,2,1,45.592,45592,4.8200,8.7000,0.3300,9.9514,-0.0491,-0.0513,0.2553,-28.00,84.88,4.50,4.1671,8.9801,1.0955,9.9603
2,11,1,2,1,45.723,45723,4.3400,8.3500,0.4300,9.4204,-0.0065,-0.0654,0.0916,-28.06,84.75,5.13,4.1899,8.8971,1.0078,9.8858
2,11,1,2,1,45.896,45896,5.9200,8.7000,1.3000,10.6031,0.0087,-0.0469,-0.0524,-30.00,84.63,7.38,4.4179,8.8711,1.0463,9.9654
2,11,1,2,1,46.026,46026,1.6800,6.0700,0.1500,6.3000,-0.0578,-0.0273,-0.2411,-25.00,84.56,3.00,4.0571,8.5020,0.9282,9.4660
2,11,1,2,1,46.157,46157,6.9900,9.0200,1.0300,11.4578,-0.0229,-0.0295,-0.0785,-31.44,84.50,9.06,4.4436,8.5703,0.9416,9.6996
2,11,1,2,1,46.288,46288,2.6000,7.6900,0.7300,8.1504,0.0142,-0.0131,0.0153,-26.38,84.50,4.50,4.2006,8.4543,0.9137,9.4845
2,11,1,2,1,46.418,46418,5.6800,9.1600,0.7200,10.8021,-0.0207,-0.0175,-0.0447,-29.25,84.38,7.25,4.3956,8.5473,0.8882,9.6522
2,11,1,2,1,46.549,46549,3.6500,7.8900,1.0500,8.7565,0.0404,0.0109,0.0633,-27.00,84.31,5.19,4.2973,8.4607,0.9095,9.5329
2,11,1,2,1,46.679,46679,5.3600,8.7400,0.9400,10.2957,0.0502,-0.0175,-0.1549,-28.50,83.94,6.44,4.4374,8.4975,0.9135,9.6297
2,11,1,2,1,46.810,46810,3.6800,8.0200,1.0500,8.8862,0.0425,0.0327,0.0491,-26.31,83.69,4.25,4.3376,8.4345,0.9315,9.5301
2,11,1,2,1,46.987,46987,4.1300,7.8200,1.0400,8.9045,-0.0087,-0.0044,-0.4265,-26.88,83.56,4.38,4.3102,8.3536,0.9458,9.4475
2,11,1,2,1,47.119,47119,3.6000,7.5400,1.0100,8.4162,0.0065,0.0153,0.1244,-25.88,83.50,3.25,4.2166,8.2464,0.9543,9.3109
2,11,1,2,1,47.249,47249,5.9500,9.3400,0.9000,11.1107,-0.0360,-0.0207,0.0862,-28.75,83.50,6.13,4.4450,8.3905,0.9471,9.5423
2,11,1,2,1,47.380,47380,3.3700,7.1700,0.6200,7.9467,-0.1505,0.0109,-0.1014,-27.06,84.06,4.88,4.3034,8.2296,0.9040,9.3308
2,11,1,2,1,47.510,47510,4.9600,9.2100,1.0900,10.5173,-0.1156,0.0284,0.0535,-27.75,85.13,5.69,4.3899,8.3588,0.9285,9.4870
2,11,1,2,1,47.641,47641,4.3400,7.9400,0.4700,9.0609,-0.1124,0.0262,-0.1974,-27.56,86.00,5.75,4.3833,8.3036,0.8681,9.4296
2,11,1,2,1,47.771,47771,4.6600,8.9400,0.8800,10.1200,0.0109,0.0567,0.3098,-27.00,86.56,5.13,4.4198,8.3875,0.8697,9.5206
2,11,1,2,1,47.901,47901,4.6000,8.7200,0.4800,9.8706,-0.0131,0.0436,-0.1473,-27.56,86.75,5.38,4.4435,8.4313,0.8183,9.5656
2,11,1,2,1,48.074,48074,3.8900,8.3500,0.7200,9.2398,0.0404,0.0153,-0.3185,-26.38,86.81,3.81,4.3706,8.4206,0.8054,9.5214
2,11,1,2,1,48.204,48204,4.4800,9.5100,0.4800,10.5234,0.1004,0.0262,-0.1309,-25.44,86.31,2.50,4.3850,8.5642,0.7625,9.6517
2,11,1,2,1,48.334,48334,4.5300,8.5100,0.6200,9.6605,0.0796,0.0185,0.0175,-25.50,85.81,2.06,4.4041,8.5570,0.7437,9.6526
2,11,1,2,1,48.464,48464,4.2300,9.0800,0.5200,10.0304,0.0622,-0.0153,-0.0076,-24.44,85.38,0.88,4.3812,8.6259,0.7142,9.7011
2,11,1,2,1,48.594,48594,4.2200,8.5600,1.1500,9.6127,0.0022,-0.0360,-0.2291,-23.88,84.94,0.38,4.3599,8.6172,0.7717,9.6882
2,11,1,2,1,48.725,48725,4.4700,11.0500,1.1500,11.9752,-0.0109,-0.0404,-0.0633,-22.69,85.00,359.50,4.3744,8.9378,0.8215,9.9847
2,11,1,2,1,48.855,48855,3.7700,8.7800,0.7700,9.5861,-0.0469,-0.0076,0.3098,-22.44,85.19,359.56,4.2948,8.9170,0.8147,9.9309
2,11,1,2,1,48.986,48986,4.4400,9.7100,0.7000,10.6999,-0.0524,-0.0284,-0.3054,-23.06,85.56,0.38,4.3139,9.0215,0.7996,10.0318
2,11,1,2,1,49.158,49158,3.6700,9.5400,0.6200,10.2404,-0.0502,-0.0033,0.1189,-22.31,86.00,359.94,4.2291,9.0898,0.7759,10.0555
2,12,1,2,1,49.288,49288,3.7900,8.9300,0.5800,9.7183,-0.0022,0.0055,0.1724,-23.75,86.19,1.44,4.1712,9.0688,0.7501,10.0102
2,12,1,2,1,49.418,49418,4.4300,9.3100,0.9700,10.3558,0.0349,0.0076,0.4920,-24.94,86.06,2.63,4.2053,9.1006,0.7791,10.0554
2,12,1,2,1,49.548,49548,4.8400,8.4700,0.9200,9.7986,0.0622,-0.0884,-0.2258,-26.19,85.44,4.00,4.2889,9.0175,0.7977,10.0173
2,12,1,2,1,49.678,49678,4.5700,8.5000,0.7300,9.6782,0.0022,-0.0415,0.2923,-26.00,84.94,4.19,4.3260,8.9493,0.7887,9.9713
2,12,1,2,1,49.808,49808,4.4600,8.7700,1.0100,9.8906,-0.0295,-0.0305,-0.1091,-25.88,84.88,4.38,4.3436,8.9257,0.8179,9.9601
2,12,1,2,1,49.939,49939,4.6500,8.9800,0.9400,10.1561,-0.0185,-0.0044,-0.0273,-26.31,85.00,4.88,4.3840,8.9328,0.8340,9.9855
2,12,1,2,1,50.070,50070,3.4400,8.1400,0.5700,8.8554,-0.0491,0.0415,0.2585,-25.56,85.31,4.25,4.2596,8.8283,0.7992,9.8348
2,12,1,2,1,50.242,50242,4.9500,9.3900,0.5900,10.6312,-0.0415,0.0142,-0.1353,-27.19,86.00,5.56,4.3506,8.9024,0.7716,9.9386
2,12,1,2,1,50.372,50372,4.8200,9.7300,0.8600,10.8924,0.0807,-0.0055,0.1636,-26.94,85.81,5.25,4.4124,9.0114,0.7833,10.0642
2,12,1,2,1,50.502,50502,4.6300,8.2700,0.5400,9.4932,0.0753,0.0218,-0.0971,-27.44,85.13,5.44,4.4411,8.9137,0.7512,9.9871
2,12,1,2,1,50.632,50632,4.8200,8.6700,1.1800,9.9897,0.0905,0.0284,0.0240,-27.38,84.81,4.94,4.4910,8.8816,0.8077,9.9852
2,12,1,2,1,50.762,50762,2.0800,6.4500,0.5400,6.7986,-0.0033,-0.0360,-0.7276,-23.94,84.38,1.44,4.1733,8.5612,0.7724,9.5555
2,12,1,2,1,50.893,50893,5.9100,9.0900,1.5000,10.9456,0.0545,0.0305,0.5334,-25.63,84.06,2.88,4.4022,8.6309,0.8683,9.7275
2,12,1,2,1,51.023,51023,3.2700,7.4100,1.1900,8.1864,-0.0742,-0.0251,-0.6272,-22.38,84.44,359.81,4.2530,8.4700,0.9107,9.5214
2,12,1,2,1,51.154,51154,5.2500,9.3500,1.0500,10.7744,-0.0131,-0.0415,0.0938,-24.69,84.69,2.19,4.3844,8.5859,0.9291,9.6853
2,12,1,2,1,51.327,51327,3.9900,8.9600,0.7300,9.8354,-0.0295,-0.0087,0.2662,-23.88,84.94,2.00,4.3324,8.6352,0.9028,9.7032
2,12,1,2,1,51.458,51458,4.1300,8.7500,0.6900,9.7003,-0.0055,-0.0349,-0.0218,-24.75,84.94,3.06,4.3057,8.6504,0.8748,9.7022
2,12,1,2,1,51.588,51588,4.2600,8.8300,0.8500,9.8407,0.0207,-0.0011,0.0982,-25.00,84.81,3.44,4.2997,8.6740,0.8715,9.7204
2,12,1,2,1,51.718,51718,4.4200,8.6000,0.8700,9.7084,0.0393,-0.0098,0.0764,-26.00,84.56,4.31,4.3156,8.6643,0.8713,9.7187
2,12,1,2,1,51.848,51848,4.3800,8.6300,0.9700,9.7264,0.0491,-0.0109,0.1974,-26.25,84.19,4.56,4.3240,8.6598,0.8843,9.7196
2,12,1,2,1,51.978,51978,4.5700,7.7700,0.9100,9.0601,0.0415,-0.0338,0.0207,-27.69,83.63,6.00,4.3565,8.5425,0.8877,9.6302
2,12,1,2,1,52.108,52108,3.4900,8.5400,1.3000,9.3167,0.0349,0.0022,0.1844,-27.13,83.31,5.56,4.2423,8.5422,0.9420,9.5840
2,12,1,2,1,52.238,52238,6.1000,8.7100,1.3800,10.7228,0.1200,-0.0033,0.2105,-30.94,82.63,8.94,4.4871,8.5643,0.9997,9.7201
2,12,1,2,1,52.411,52411,4.9200,7.8600,1.3900,9.3765,0.0382,0.0687,0.0175,-30.00,82.25,7.63,4.5441,8.4715,1.0512,9.6706
2,12,1,2,1,52.541,52541,3.8800,8.5100,0.7500,9.3828,-0.0196,0.1058,-0.0884,-27.94,82.63,5.06,4.4566,8.4766,1.0115,9.6300
2,12,1,2,1,52.671,52671,5.3000,8.6000,1.2400,10.1778,-0.0273,0.1276,-0.2116,-29.75,83.19,5.94,4.5677,8.4928,1.0416,9.6994
2,12,1,2,1,52.801,52801,4.8400,9.1700,0.8800,10.4062,-0.0720,0.0873,-0.3545,-27.00,84.13,2.69,4.6036,8.5821,1.0203,9.7921
2,12,1,2,1,52.931,52931,4.0600,8.5500,0.9800,9.5156,-0.0316,0.0076,-0.6065,-24.44,84.69,359.88,4.5320,8.5778,1.0150,9.7544
2,12,1,2,1,53.061,53061,3.6300,9.2400,1.2700,10.0084,0.0425,-0.0109,0.1353,-22.13,84.88,357.63,4.4131,8.6651,1.0486,9.7805
2,12,1,2,1,53.193,53193,3.3600,8.8100,0.9200,9.4738,0.0633,-0.0654,-0.1549,-21.69,84.31,357.25,4.2744,8.6842,1.0317,9.7339
2,12,1,2,1,53.323,53323,4.0300,8.9100,0.9300,9.8231,-0.0273,-0.0240,-0.0393,-22.25,84.00,358.06,4.2422,8.7139,1.0183,9.7450
2,12,1,2,1,53.498,53498,3.3200,9.0900,0.9200,9.7210,-0.0894,0.0000,-0.3131,-20.19,84.75,356.31,4.1206,8.7635,1.0053,9.7360
2,12,1,2,1,53.629,53629,4.0300,10.3800,1.0300,11.1824,-0.0153,0.0142,0.3174,-20.19,85.13,356.38,4.1087,8.9765,1.0086,9.9235
2,12,1,2,1,53.763,53763,4.0500,9.4000,0.6300,10.2547,-0.0207,-0.0360,-0.1898,-21.06,85.13,357.31,4.1010,9.0323,0.9587,9.9659
2,12,1,2,1,53.894,53894,3.6500,9.3200,0.8400,10.0444,-0.0295,-0.0295,0.1571,-20.88,85.19,357.44,4.0415,9.0702,0.9430,9.9746
2,12,1,2,1,54.024,54024,3.6600,9.8800,0.8000,10.5665,0.0338,-0.0349,0.1604,-21.31,85.06,358.13,3.9913,9.1769,0.9242,10.0499
2,12,1,2,1,54.155,54155,4.2300,9.1200,1.2800,10.1344,0.0535,-0.0229,0.1854,-23.00,84.44,359.94,4.0227,9.1694,0.9711,10.0600
2,13,1,2,1,54.286,54286,3.9200,9.1700,1.1300,10.0365,0.0185,0.0065,0.0284,-23.06,84.19,0.00,4.0092,9.1695,0.9920,10.0567
2,13,1,2,1,54.416,54416,3.5000,8.7800,0.8600,9.4909,0.0349,0.0044,-0.0469,-23.50,84.00,0.31,3.9421,9.1182,0.9746,9.9815
2,13,1,2,1,54.589,54589,4.4000,8.6000,0.9300,9.7049,0.0131,0.0338,0.0011,-24.69,83.88,1.13,4.0024,9.0499,0.9687,9.9428
2,13,1,2,1,54.720,54720,3.3900,8.7100,1.0300,9.4030,0.0240,0.0218,0.1004,-23.56,84.00,359.94,3.9217,9.0051,0.9768,9.8705
2,13,1,2,1,54.850,54850,4.8800,8.6900,0.9000,10.0070,-0.0109,-0.0044,-0.2705,-26.13,83.88,2.19,4.0480,8.9636,0.9667,9.8826
2,13,1,2,1,54.981,54981,5.0500,9.8500,1.8400,11.2210,0.0753,0.0589,0.8607,-25.13,83.88,1.13,4.1800,9.0804,1.0818,10.0547
2,13,1,2,1,55.111,55111,5.2200,9.1200,0.4200,10.5166,-0.0785,-0.0698,-0.8814,-26.25,83.63,2.25,4.3171,9.0856,0.9946,10.1081
2,13,1,2,1,55.242,55242,2.2900,6.7500,0.7900,7.1715,-0.0436,0.0185,0.2062,-22.13,83.94,358.50,4.0500,8.7778,0.9676,9.7154
2,13,1,2,1,55.373,55373,3.6600,7.9300,1.0600,8.7980,0.0065,-0.0622,-0.2422,-23.25,83.81,359.81,3.9986,8.6661,0.9798,9.5943
2,13,1,2,1,55.503,55503,4.4700,8.7100,1.2900,9.8747,0.0393,0.0087,0.2683,-24.44,83.63,1.06,4.0607,8.6719,1.0207,9.6298
2,13,1,2,1,55.676,55676,3.9500,8.9900,0.9700,9.8673,0.0229,-0.0196,0.1516,-23.75,83.75,0.69,4.0461,8.7138,1.0140,9.6607
2,13,1,2,1,55.811,55811,4.0800,8.8300,0.7200,9.7537,-0.0349,-0.0087,-0.1331,-24.00,83.69,1.06,4.0506,8.7291,0.9752,9.6724
2,13,1,2,1,55.942,55942,4.1500,9.0900,1.2200,10.0667,-0.0033,0.0098,0.1156,-23.81,83.88,0.81,4.0637,8.7767,1.0075,9.7241
2,13,1,2,1,56.073,56073,3.8800,8.2700,1.0300,9.1928,-0.0044,0.0044,-0.1091,-23.81,83.75,0.81,4.0395,8.7099,1.0105,9.6541
2,13,1,2,1,56.203,56203,4.2500,9.2700,1.1300,10.2602,-0.0065,0.0153,0.1134,-23.25,83.94,0.25,4.0672,8.7837,1.0262,9.7339
2,13,1,2,1,56.333,56333,4.0300,8.2000,0.9300,9.1840,-0.0218,-0.0185,-0.1560,-23.50,84.00,0.50,4.0623,8.7068,1.0135,9.6612
2,13,1,2,1,56.464,56464,2.5700,9.5900,1.1200,9.9914,0.0404,0.0425,0.9894,-22.06,84.25,359.38,3.8657,8.8232,1.0276,9.6875
2,13,1,2,1,56.594,56594,5.0100,8.4600,1.4700,9.9415,-0.0840,-0.0818,-0.8127,-24.56,84.19,1.94,4.0165,8.7753,1.0859,9.7117
2,13,1,2,1,56.767,56767,3.3400,9.5900,0.6700,10.1771,-0.0251,0.0262,0.8421,-21.38,84.81,359.38,3.9273,8.8827,1.0311,9.7667
2,13,1,2,1,56.898,56898,4.4000,8.6300,0.9300,9.7315,0.0076,-0.1145,-0.4931,-24.38,84.50,2.50,3.9896,8.8494,1.0177,9.7603
2,13,1,2,1,57.029,57029,3.3800,8.8900,0.6800,9.5351,-0.0164,0.0022,0.3403,-22.56,84.31,1.19,3.9093,8.8547,0.9732,9.7281
2,13,1,2,1,57.159,57159,3.3300,8.8400,0.9100,9.4901,-0.0284,-0.0153,-0.3338,-22.06,84.44,0.75,3.8329,8.8528,0.9649,9.6951
2,13,1,2,1,57.290,57290,3.0100,8.8600,1.1000,9.4218,0.0273,0.0480,0.1898,-21.88,84.50,0.38,3.7245,8.8537,0.9827,9.6554
2,13,1,2,1,57.420,57420,4.2900,8.6100,0.8600,9.6579,-0.0065,0.0393,-0.1549,-23.19,84.50,1.31,3.7990,8.8216,0.9665,9.6534
2,13,1,2,1,57.550,57550,3.7400,9.5800,0.9200,10.3252,-0.0393,0.0436,-0.0404,-21.88,84.88,359.81,3.7912,8.9216,0.9604,9.7412
2,13,1,2,1,57.681,57681,3.7600,9.4100,0.6500,10.1542,-0.0175,0.0360,-0.1309,-21.56,85.31,359.31,3.7871,8.9859,0.9195,9.7946
2,13,1,2,1,57.858,57858,4.1900,10.0500,0.7500,10.9143,0.0360,0.0316,0.1942,-22.38,85.31,359.81,3.8402,9.1261,0.8972,9.9418
2,13,1,2,1,57.988,57988,3.0700,8.3100,0.8700,8.9016,0.0415,0.0153,-0.2334,-21.69,85.06,358.88,3.7387,9.0186,0.8936,9.8036
2,13,1,2,1,58.120,58120,4.2100,9.7000,0.9400,10.6159,0.0567,0.0120,0.0033,-21.44,84.75,358.38,3.8008,9.1084,0.8997,9.9105
2,13,1,2,1,58.251,58251,3.9000,9.3800,1.1200,10.2200,0.0196,0.0033,-0.0196,-21.50,84.38,358.31,3.8139,9.1442,0.9287,9.9511
2,13,1,2,1,58.381,58381,4.0500,9.3400,0.7700,10.2094,-0.0229,0.0142,0.0862,-21.69,84.31,358.44,3.8450,9.1700,0.9078,9.9848
2,13,1,2,1,58.511,58511,3.0200,8.2700,0.7300,8.8344,-0.0284,-0.0175,-0.2422,-20.38,84.56,357.31,3.7363,9.0514,0.8844,9.8321
2,13,1,2,1,58.642,58642,4.0400,10.8600,1.2000,11.6491,0.0316,-0.0076,0.1647,-20.31,84.56,357.25,3.7763,9.2897,0.9260,10.0706
2,13,1,2,1,58.772,58772,3.4400,8.8200,0.6900,9.4922,0.0087,-0.0295,0.0458,-20.88,84.25,357.88,3.7320,9.2278,0.8949,9.9941
2,13,1,2,1,58.945,58945,3.6300,10.0200,0.8500,10.6911,-0.0415,-0.0120,0.0720,-21.50,84.63,358.81,3.7186,9.3322,0.8890,10.0850
2,13,1,2,1,59.075,59075,4.4000,9.3500,1.4700,10.4376,0.0731,-0.0545,0.0305,-22.38,84.31,359.81,3.8084,9.3346,0.9655,10.1277
2,14,1,2,1,59.205,59205,4.0900,8.9100,0.7100,9.8296,0.0774,-0.0742,0.1124,-23.19,83.38,0.94,3.8455,9.2786,0.9319,10.0870
2,14,1,2,1,59.335,59335,4.5400,8.8700,1.3000,10.0488,-0.0153,-0.0295,-0.0480,-23.94,83.13,1.88,3.9370,9.2248,0.9804,10.0776
2,14,1,2,1,59.465,59465,3.1800,8.9800,1.3600,9.6230,-0.0633,0.0218,0.2476,-23.00,83.50,1.25,3.8372,9.1925,1.0304,10.0144
2,14,1,2,1,59.595,59595,4.8300,9.6800,0.7200,10.8420,-0.0785,0.0535,-0.3229,-24.81,84.13,2.88,3.9681,9.2567,0.9895,10.1199
2,14,1,2,1,59.726,59726,4.9800,9.2800,1.1000,10.5891,-0.0785,0.1484,0.4614,-25.25,85.13,2.81,4.1014,9.2598,1.0041,10.1771
2,14,1,2,1,59.857,59857,4.1200,8.9400,0.8700,9.8820,-0.0447,0.0622,-0.2509,-25.00,85.81,2.19,4.1039,9.2177,0.9864,10.1380
2,14,1,2,1,60.029,60029,5.4300,9.0400,0.5100,10.5578,-0.0011,0.0644,0.7439,-27.19,86.38,3.81,4.2786,9.1943,0.9236,10.1830
2,14,1,2,1,60.159,60159,4.3900,7.7800,0.1200,8.9339,0.0251,-0.1102,-0.0840,-28.00,86.13,4.88,4.2933,9.0079,0.8177,10.0121
2,14,1,2,1,60.289,60289,2.2200,7.4700,-0.0800,7.7933,0.0033,-0.1004,0.0436,-25.38,85.69,3.06,4.0201,8.8052,0.6994,9.7048
2,14,1,2,1,60.419,60419,5.5500,8.2400,1.2200,10.0094,0.0676,-0.0993,0.1636,-29.00,85.06,6.94,4.2217,8.7308,0.7680,9.7282
2,14,1,2,1,60.549,60549,3.0400,7.8400,0.6700,8.4354,0.0142,-0.0360,0.1058,-26.75,84.63,5.31,4.0660,8.6134,0.7551,9.5547
2,14,1,2,1,60.680,60680,5.5000,8.9200,1.1300,10.5401,0.0502,-0.0524,-0.1494,-28.94,84.31,7.56,4.2549,8.6538,0.8045,9.6768
2,14,1,2,1,60.810,60810,4.0400,8.2400,0.7200,9.2053,0.0567,0.0273,0.1898,-27.25,83.94,6.00,4.2266,8.5993,0.7934,9.6146
2,14,1,2,1,60.941,60941,5.1300,8.6800,1.3800,10.1766,0.0393,0.0262,-0.0873,-28.25,83.69,6.56,4.3457,8.6099,0.8707,9.6837
2,14,1,2,1,61.113,61113,4.8400,8.4700,1.2600,9.8364,0.0600,0.0447,0.0545,-27.81,83.25,5.63,4.4108,8.5915,0.9220,9.7015
2,14,1,2,1,61.243,61243,4.5500,8.5500,1.0900,9.7464,0.0316,0.0055,-0.1691,-27.69,82.94,5.13,4.4291,8.5860,0.9441,9.7071
2,14,1,2,1,61.373,61373,3.0000,8.4200,1.1700,9.0147,-0.0207,0.0251,-0.1407,-26.19,83.00,3.50,4.2408,8.5641,0.9739,9.6061
2,14,1,2,1,61.503,61503,6.0600,8.2300,1.7000,10.3608,0.0687,-0.0262,-0.0709,-29.63,82.69,6.56,4.4805,8.5201,1.0696,9.6856
2,14,1,2,1,61.633,61633,3.3100,7.7600,0.8300,8.4772,-0.0436,0.0098,-0.2182,-26.44,82.81,3.63,4.3263,8.4199,1.0380,9.5231
2,14,1,2,1,61.763,61763,5.1300,9.3500,1.2500,10.7379,-0.0862,0.0458,0.3927,-28.50,83.25,5.56,4.4322,8.5425,1.0659,9.6827
2,14,1,2,1,61.894,61894,3.4800,7.8400,1.0300,8.6393,-0.0524,-0.0360,-0.4178,-27.31,83.69,4.56,4.3067,8.4499,1.0612,9.5433
2,14,1,2,1,62.025,62025,4.6000,8.5800,1.3400,9.8271,0.0327,-0.0436,-0.0884,-27.25,83.69,4.75,4.3454,8.4671,1.0979,9.5801
2,14,1,2,1,62.198,62198,4.0900,8.5200,0.9400,9.4975,0.0425,-0.0196,0.2902,-26.44,83.13,4.19,4.3117,8.4740,1.0771,9.5687
2,14,1,2,1,62.328,62328,3.7500,8.6600,1.1400,9.5057,-0.0338,-0.0262,-0.2629,-25.94,83.13,3.88,4.2377,8.4985,1.0854,9.5583
2,14,1,2,1,62.459,62459,4.0800,8.6500,1.4400,9.6717,-0.0382,0.0251,0.0196,-25.63,83.38,3.63,4.2169,8.5185,1.1321,9.5723
2,14,1,2,1,62.589,62589,4.5100,9.0300,0.9200,10.1355,-0.0338,0.0425,-0.1789,-25.19,83.81,3.00,4.2555,8.5859,1.1042,9.6461
2,14,1,2,1,62.720,62720,3.8600,8.9800,0.8000,9.8071,0.0044,0.0425,-0.3796,-22.75,84.13,0.31,4.2034,8.6378,1.0641,9.6651
2,14,1,2,1,62.850,62850,3.8300,9.9800,0.8400,10.7226,0.0916,0.0371,-0.2280,-20.75,83.94,357.88,4.1542,8.8147,1.0346,9.7993
2,14,1,2,1,62.980,62980,3.0900,8.7700,0.8600,9.3381,0.1189,0.0218,0.0785,-19.94,83.25,356.69,4.0140,8.8088,1.0116,9.7330
2,14,1,2,1,63.111,63111,3.5800,8.8800,1.2900,9.6610,0.0676,0.0022,0.2662,-21.19,82.56,357.63,3.9568,8.8182,1.0483,9.7219
2,14,1,2,1,63.288,63288,4.2500,9.2300,1.5200,10.2745,-0.0742,-0.0349,0.0829,-22.44,82.44,359.06,3.9954,8.8725,1.1104,9.7937
2,14,1,2,1,63.418,63418,3.5500,8.8500,1.3500,9.6306,-0.0916,-0.0316,0.0120,-22.06,82.94,359.19,3.9367,8.8695,1.1420,9.7709
2,14,1,2,1,63.550,63550,3.8000,9.0100,1.1500,9.8459,-0.0600,0.0065,0.1364,-22.94,83.31,0.38,3.9187,8.8880,1.1430,9.7806
2,14,1,2,1,63.680,63680,4.0900,9.3000,0.8600,10.1960,-0.0654,0.0273,-0.1200,-22.94,83.94,0.38,3.9413,8.9423,1.1057,9.8347
2,14,1,2,1,63.810,63810,3.6500,9.6200,0.9600,10.3339,-0.0065,0.0425,0.0142,-22.06,84.38,359.38,3.9029,9.0316,1.0865,9.8986
2,14,1,2,1,63.941,63941,3.6700,8.8500,0.9100,9.6239,0.0131,0.0305,-0.0153,-22.50,84.31,359.50,3.8722,9.0077,1.0633,9.8622
2,14,1,2,1,64.072,64072,4.4400,9.5700,0.9800,10.5952,0.0033,0.0153,0.0033,-22.56,84.38,359.38,3.9470,9.0818,1.0523,9.9582
2,14,1,2,1,64.202,64202,4.0500,9.6300,0.9300,10.4883,-0.0196,-0.0109,0.0087,-22.44,84.38,359.25,3.9606,9.1540,1.0362,10.0278
2,15,1,2,1,64.375,64375,3.3400,8.5300,1.1700,9.2350,-0.0240,-0.0611,0.0065,-22.69,84.38,359.88,3.8788,9.0718,1.0538,9.9224
2,15,1,2,1,64.506,64506,4.7400,9.1700,1.2100,10.3933,-0.0033,-0.0720,0.2116,-24.81,84.19,2.38,3.9923,9.0847,1.0744,9.9812
2,15,1,2,1,64.636,64636,3.7100,8.7700,0.2600,9.5260,-0.0654,-0.0731,0.0076,-24.75,84.13,2.94,3.9551,9.0433,0.9671,9.9176
2,15,1,2,1,64.767,64767,3.5100,8.2600,0.2900,8.9795,-0.1091,-0.0196,-0.0316,-24.69,84.63,3.44,3.8964,8.9400,0.8779,9.7917
2,15,1,2,1,64.897,64897,5.0300,9.7000,1.4500,11.0224,0.0000,-0.0251,0.0676,-25.00,85.13,4.00,4.0458,9.0402,0.9533,9.9500
2,15,1,2,1,65.028,65028,4.1300,9.9000,0.8500,10.7605,0.0633,-0.0327,0.1134,-23.81,84.75,3.13,4.0569,9.1535,0.9396,10.0562
2,15,1,2,1,65.159,65159,4.7500,9.1100,0.6700,10.2958,0.1331,-0.0240,0.2269,-25.38,83.88,4.50,4.1482,9.1478,0.9041,10.0850
2,15,1,2,1,65.290,65290,4.1500,9.7800,1.2500,10.6974,0.1102,-0.0065,0.4025,-25.31,83.00,4.38,4.1485,9.2311,0.9497,10.1649
2,15,1,2,1,65.466,65466,3.5500,5.6800,0.6400,6.7286,0.0142,0.0218,0.0774,-27.50,81.63,6.19,4.0696,8.7631,0.9089,9.7047
2,15,1,2,1,65.597,65597,4.0100,8.7200,1.6200,9.7336,-0.0774,0.0447,-0.3109,-24.38,82.69,3.06,4.0618,8.7574,1.0026,9.7055
2,15,1,2,1,65.727,65727,4.3900,8.1400,1.4700,9.3644,-0.0425,0.0065,0.0022,-25.00,82.94,3.63,4.1050,8.6761,1.0642,9.6570
2,15,1,2,1,65.858,65858,4.0800,9.0700,1.3800,10.0407,-0.1080,0.0349,-0.0742,-23.69,83.69,2.38,4.1017,8.7280,1.1058,9.7069
2,15,1,2,1,65.988,65988,3.9700,8.9000,0.8800,9.7850,-0.0600,-0.0240,0.0087,-23.56,84.19,2.50,4.0844,8.7507,1.0760,9.7167
2,15,1,2,1,66.119,66119,4.0500,9.1000,0.5800,9.9774,-0.1069,-0.0076,0.0022,-23.44,84.88,2.69,4.0798,8.7967,1.0107,9.7493
2,15,1,2,1,66.249,66249,4.1100,9.5200,0.3800,10.3763,-0.0567,-0.0316,-0.0131,-23.19,85.44,2.81,4.0838,8.8920,0.9276,9.8288
2,15,1,2,1,66.380,66380,3.9900,9.2700,0.4100,10.1005,0.0196,-0.0436,0.0644,-23.00,85.44,2.94,4.0714,8.9418,0.8594,9.8626
2,15,1,2,1,66.553,66553,3.6700,9.1400,0.6600,9.8714,0.0545,-0.0447,-0.0185,-23.19,84.94,3.38,4.0185,8.9679,0.8331,9.8624
2,15,1,2,1,66.683,66683,3.9400,9.0200,1.0900,9.9031,0.0971,-0.0305,0.0098,-23.44,84.25,3.69,4.0082,8.9748,0.8670,9.8673
2,15,1,2,1,66.813,66813,3.8900,8.4500,1.3200,9.3956,0.1374,-0.0011,0.1865,-24.00,83.25,4.00,3.9926,8.9056,0.9267,9.8036
2,15,1,2,1,66.943,66943,3.8700,8.3300,1.1100,9.2519,0.0567,0.0502,0.1516,-25.63,82.50,5.25,3.9765,8.8298,0.9508,9.7304
2,15,1,2,1,67.073,67073,3.2900,6.9600,0.9600,7.7580,0.0218,0.0709,0.0000,-26.63,82.50,5.63,3.8860,8.5834,0.9520,9.4701
2,15,1,2,1,67.203,67203,8.5700,10.4200,1.7000,13.5982,0.1244,0.0535,0.7919,-31.81,81.94,10.00,4.5032,8.8254,1.0506,9.9635
2,15,1,2,1,67.333,67333,3.4700,7.3400,1.1900,8.2056,0.0556,-0.1134,-1.2403,-28.25,81.13,6.50,4.3671,8.6297,1.0690,9.7306
2,15,1,2,1,67.464,67464,5.0000,7.6000,1.4800,9.2169,0.0720,0.0120,0.2989,-26.88,80.50,5.06,4.4505,8.4940,1.1231,9.6548
2,15,1,2,1,67.637,67637,4.7300,8.6000,1.7400,9.9680,0.0175,0.0284,0.2291,-27.25,79.56,5.13,4.4873,8.5080,1.2044,9.6939
2,15,1,2,1,67.768,67768,4.6900,9.3000,1.7200,10.5567,-0.0316,0.0894,0.2225,-27.19,79.81,4.81,4.5140,8.6123,1.2724,9.8065
2,15,1,2,1,67.898,67898,4.1700,8.2300,1.5600,9.3571,-0.0894,0.0349,-0.6567,-26.31,80.63,3.56,4.4687,8.5619,1.3103,9.7464
2,15,1,2,1,68.029,68029,4.5000,8.9100,1.7600,10.1359,0.0000,0.0742,0.3174,-25.19,81.13,2.19,4.4728,8.6078,1.3695,9.7967
2,15,1,2,1,68.159,68159,3.9600,8.8300,1.1900,9.7502,-0.0164,0.0098,-0.2313,-25.00,81.31,1.75,4.4052,8.6371,1.3459,9.7886
2,15,1,2,1,68.292,68292,5.2500,8.7200,1.0800,10.2356,-0.0469,-0.0218,0.1963,-25.75,81.38,2.56,4.5166,8.6480,1.3108,9.8441
2,15,1,2,1,68.423,68423,4.6300,8.7600,0.8200,9.9422,-0.1069,-0.0949,-0.0011,-26.38,82.00,3.81,4.5315,8.6628,1.2462,9.8555
2,15,1,2,1,68.557,68557,4.1300,8.9200,1.3100,9.9166,-0.1331,-0.1080,0.0709,-25.88,82.50,4.44,4.4786,8.6967,1.2546,9.8622
2,15,1,2,1,68.730,68730,4.0800,9.1800,1.3000,10.1296,-0.0131,-0.1200,-0.2782,-25.88,82.69,5.69,4.4261,8.7604,1.2606,9.8956
2,15,1,2,1,68.860,68860,4.7400,9.1300,1.4300,10.3860,0.0065,-0.0196,0.1920,-26.31,82.44,6.56,4.4674,8.8091,1.2829,9.9601
2,15,1,2,1,68.990,68990,3.9500,8.1800,1.2400,9.1680,-0.0273,0.0545,-0.0185,-25.81,82.69,6.00,4.3993,8.7262,1.2772,9.8555
2,15,1,2,1,69.120,69120,4.8600,9.4900,1.2900,10.7398,-0.0458,0.0971,0.1953,-26.50,83.31,6.31,4.4600,8.8268,1.2789,9.9720
2,15,1,2,1,69.250,69250,5.2500,9.8700,1.2100,11.2447,0.0087,0.0807,0.1680,-26.94,83.75,6.31,4.5641,8.9643,1.2698,10.1391
2,16,1,2,1,69.380,69380,4.3200,8.5100,0.9600,9.5919,0.0382,0.0240,-0.0589,-26.94,83.75,5.88,4.5319,8.9044,1.2290,10.0667
2,16,1,2,1,69.526,69526,5.0400,8.8400,1.1200,10.2373,0.0218,0.0524,0.2836,-28.25,83.56,6.81,4.5989,8.8959,1.2146,10.0877
2,16,1,2,1,69.660,69660,4.5400,8.3400,1.0200,9.5503,-0.0251,-0.0022,-0.3709,-28.38,83.63,6.75,4.5911,8.8227,1.1890,10.0166
2,16,1,2,1,69.833,69833,5.3500,9.1100,1.1300,10.6250,0.0011,-0.0207,0.0229,-28.13,83.69,6.38,4.6911,8.8605,1.1812,10.0951
2,16,1,2,1,69.963,69963,3.8500,7.8900,0.9300,8.8283,0.0469,-0.0458,0.1636,-27.00,83.31,5.56,4.5803,8.7326,1.1481,9.9275
2,16,1,2,1,70.093,70093,5.2200,9.2600,1.3600,10.7166,-0.0349,-0.0142,0.1287,-27.81,83.38,6.63,4.6646,8.8021,1.1760,10.0309
2,16,1,2,1,70.224,70224,3.7400,8.5200,1.0700,9.3661,0.0022,-0.0764,-0.3207,-26.63,83.38,5.88,4.5427,8.7650,1.1621,9.9404
2,16,1,2,1,70.354,70354,5.7300,9.1400,1.1900,10.8530,0.0327,0.0611,0.6600,-28.44,83.06,7.69,4.6992,8.8144,1.1657,10.0566
2,16,1,2,1,70.484,70484,3.1000,5.3500,0.2100,6.1868,-0.0480,-0.0404,-1.3330,-26.06,83.31,5.19,4.4885,8.3579,1.0398,9.5437
2,16,1,2,1,70.614,70614,3.0800,10.1500,1.5300,10.7168,0.0589,0.1385,1.1890,-21.63,84.13,0.63,4.3029,8.5940,1.1044,9.6743
2,16,1,2,1,70.745,70745,2.3500,8.7000,0.1600,9.0132,0.1058,-0.0774,-1.1159,-23.31,83.38,1.94,4.0455,8.6080,0.9799,9.5616
2,16,1,2,1,70.918,70918,4.6500,9.5600,1.3900,10.7214,0.1353,0.0273,0.1254,-22.44,82.63,0.63,4.1252,8.7334,1.0340,9.7139
2,16,1,2,1,71.049,71049,2.4600,9.0500,0.9600,9.4274,0.1516,0.0098,-0.1396,-20.31,81.75,358.25,3.9057,8.7752,1.0242,9.6596
2,16,1,2,1,71.180,71180,3.8800,8.6700,2.2800,9.7684,0.0905,0.0131,0.0131,-21.44,80.94,358.94,3.9024,8.7613,1.1897,9.6646
2,16,1,2,1,71.311,71311,2.9500,8.6800,1.6800,9.3203,0.0055,0.0131,-0.0087,-20.56,80.56,357.94,3.7769,8.7506,1.2543,9.6130
2,16,1,2,1,71.442,71442,3.8400,8.8600,1.8500,9.8320,-0.0425,0.0131,0.0415,-21.44,80.38,358.69,3.7852,8.7650,1.3328,9.6400
2,16,1,2,1,71.575,71575,3.4400,8.2400,1.6500,9.0804,-0.0851,-0.0164,-0.0785,-21.31,80.69,358.75,3.7397,8.6958,1.3746,9.5652
2,16,1,2,1,71.708,71708,4.8000,9.2300,1.7500,10.5497,-0.1298,0.0338,0.2683,-23.44,81.31,1.06,3.8794,8.7662,1.4241,9.6915
2,16,1,2,1,71.838,71838,2.4700,7.7900,1.1300,8.2500,-0.1374,-0.0273,-0.3240,-21.63,82.50,359.63,3.6937,8.6376,1.3853,9.4958
2,16,1,2,1,72.011,72011,5.1800,9.3900,0.5800,10.7397,-0.1767,0.0000,-0.1963,-24.25,83.69,2.56,3.8895,8.7367,1.2792,9.6486
2,16,1,2,1,72.141,72141,0.8400,8.4500,0.4700,8.5046,-0.1342,-0.0480,-0.3142,-19.31,84.75,358.38,3.4877,8.6989,1.1726,9.4451
2,16,1,2,1,72.271,72271,5.9300,9.9700,0.4600,11.6094,-0.0469,-0.0055,0.4941,-25.50,84.88,4.44,3.8095,8.8664,1.0787,9.7103
2,16,1,2,1,72.401,72401,2.2700,7.6500,0.2400,7.9833,-0.0796,0.0011,-0.4232,-22.00,85.31,1.50,3.6067,8.7061,0.9682,9.4732
2,16,1,2,1,72.531,72531,3.7700,9.3800,0.8500,10.1449,-0.0207,0.1069,0.4156,-23.25,85.94,2.44,3.6282,8.7949,0.9526,9.5615
2,16,1,2,1,72.661,72661,3.8600,9.6400,0.4800,10.3952,0.0578,0.0600,-0.4669,-22.06,86.13,0.69,3.6587,8.9063,0.8903,9.6696
2,16,1,2,1,72.792,72792,4.2400,9.8000,0.5100,10.6901,0.1669,0.0687,-0.0774,-21.81,85.50,359.56,3.7353,9.0241,0.8402,9.8027
2,16,1,2,1,72.922,72922,3.4400,9.0900,1.0200,9.7725,0.1953,0.0785,-0.0894,-19.75,84.31,356.69,3.6964,9.0328,0.8639,9.7980
2,16,1,2,1,73.095,73095,3.4300,8.9400,1.4100,9.6787,0.0076,0.0469,-0.0218,-20.69,83.56,356.69,3.6613,9.0205,0.9359,9.7801
2,16,1,2,1,73.225,73225,4.3500,9.8700,0.9100,10.8244,-0.0938,0.0764,0.4178,-21.44,84.25,357.25,3.7521,9.1325,0.9324,9.9171
2,16,1,2,1,73.355,73355,4.2900,9.4300,0.8100,10.3916,-0.1374,0.0098,-0.1724,-21.13,85.19,357.00,3.8229,9.1717,0.9163,9.9787
2,16,1,2,1,73.485,73485,3.9100,9.8400,0.5600,10.6032,-0.0611,-0.0185,0.3240,-21.25,85.81,357.44,3.8344,9.2597,0.8694,10.0599
2,16,1,2,1,73.615,73615,3.4100,8.7200,0.4400,9.3734,-0.0535,-0.0676,-0.0164,-22.81,85.94,359.44,3.7785,9.1886,0.8128,9.9684
2,16,1,2,1,73.745,73745,4.5000,9.9300,0.6100,10.9191,0.0033,-0.0436,0.3523,-23.69,85.94,0.75,3.8736,9.2863,0.7861,10.0925
2,16,1,2,1,73.875,73875,4.0100,9.6800,0.6400,10.4972,-0.0251,-0.0644,0.0862,-24.44,85.75,2.00,3.8915,9.3382,0.7668,10.1456
2,16,1,2,1,74.006,74006,4.5300,8.9300,1.0500,10.0682,0.0742,-0.0305,0.2738,-26.19,85.31,3.94,3.9757,9.2844,0.8041,10.1318
2,16,1,2,1,74.179,74179,5.2500,9.0300,0.7100,10.4694,0.0742,0.0076,0.5061,-28.44,84.31,6.13,4.1436,9.2509,0.7917,10.1673
2,17,1,2,1,74.311,74311,4.1900,8.2000,1.0400,9.2670,0.0567,0.0098,-0.0785,-28.25,83.94,5.75,4.1497,9.1124,0.8244,10.0467
2,17,1,2,1,74.442,74442,4.7200,8.6900,0.9100,9.9309,0.0109,0.0524,0.2727,-29.19,83.81,6.38,4.2249,9.0567,0.8357,10.0286
2,17,1,2,1,74.577,74577,4.7500,9.0400,1.2500,10.2882,-0.0251,0.0807,-0.1047,-28.63,84.25,5.50,4.2941,9.0545,0.8903,10.0606
2,17,1,2,1,74.708,74708,4.3700,8.1000,0.8300,9.2410,0.0425,-0.0087,-0.3567,-26.75,84.31,3.31,4.3041,8.9287,0.8824,9.9512
2,17,1,2,1,74.839,74839,2.5600,7.2100,0.7400,7.6867,0.0698,-0.0207,-0.1244,-23.44,84.06,0.00,4.0742,8.7023,0.8636,9.6475
2,17,1,2,1,74.969,74969,4.0500,7.6100,0.6100,8.6421,-0.0065,-0.0251,-0.1069,-24.75,83.63,1.31,4.0711,8.5583,0.8302,9.5136
2,17,1,2,1,75.100,75100,4.1600,8.9000,1.2400,9.9022,-0.0131,-0.0316,0.1124,-24.00,83.75,0.88,4.0828,8.6034,0.8842,9.5639
2,17,1,2,1,75.273,75273,3.6000,8.7700,1.1400,9.5484,0.0065,-0.0720,-0.0185,-23.81,83.75,1.31,4.0192,8.6253,0.9179,9.5599
2,17,1,2,1,75.403,75403,4.0800,9.2800,0.8900,10.1763,0.0207,-0.0382,0.2160,-24.38,83.50,2.25,4.0272,8.7116,0.9142,9.6408
2,17,1,2,1,75.533,75533,3.6000,8.4800,1.1000,9.2780,0.0273,-0.0316,-0.1876,-24.63,83.13,2.69,3.9709,8.6811,0.9387,9.5922
2,17,1,2,1,75.663,75663,4.6800,9.1100,1.3000,10.3240,0.0774,-0.0120,0.0676,-25.00,82.69,3.00,4.0643,8.7376,0.9863,9.6870
2,17,1,2,1,75.793,75793,4.1100,8.3600,1.1800,9.3901,0.0360,0.0142,-0.1582,-24.19,82.25,2.00,4.0703,8.6878,1.0118,9.6473
2,17,1,2,1,75.923,75923,4.2500,8.9900,1.4200,10.0448,0.0524,0.0251,0.1691,-23.81,82.00,1.38,4.0940,8.7277,1.0656,9.6989
2,17,1,2,1,76.053,76053,3.9600,7.5400,1.2500,8.6079,0.0240,0.0033,-0.0447,-24.88,81.56,2.31,4.0764,8.5711,1.0899,9.5535
2,17,1,2,1,76.183,76183,3.6600,9.2800,1.5800,10.1000,0.0447,0.0240,0.4614,-24.44,81.50,1.75,4.0215,8.6646,1.1545,9.6218
2,17,1,2,1,76.356,76356,3.4300,8.2300,1.3200,9.0133,-0.0567,-0.0185,-0.4538,-24.88,81.44,2.19,3.9435,8.6073,1.1763,9.5405
2,17,1,2,1,76.486,76486,3.7500,9.0400,1.5200,9.9043,-0.0436,0.0273,0.1822,-24.19,82.00,1.56,3.9180,8.6643,1.2216,9.5872
2,17,1,2,1,76.616,76616,4.2700,8.3000,1.4300,9.4429,0.0076,0.0022,0.1167,-25.88,82.06,3.19,3.9644,8.6163,1.2491,9.5665
2,17,1,2,1,76.746,76746,4.0600,8.7200,0.9100,9.6618,0.0065,0.0142,0.1887,-25.88,82.00,3.19,3.9770,8.6300,1.2044,9.5783
2,17,1,2,1,76.876,76876,4.0600,7.8500,0.8500,8.8785,-0.1156,0.0785,-0.0425,-26.19,82.44,3.38,3.9880,8.5272,1.1577,9.4846
2,17,1,2,1,77.006,77006,4.2700,8.9800,0.7000,9.9681,-0.2509,0.1724,0.0971,-26.38,84.38,3.31,4.0251,8.5869,1.0974,9.5467
2,17,1,2,1,77.136,77136,4.9300,9.6300,0.2500,10.8215,-0.2542,0.1985,-0.0971,-26.56,86.94,3.00,4.1444,8.7243,0.9857,9.7088
2,17,1,2,1,77.267,77267,4.3200,9.6500,0.5400,10.5866,0.0207,0.0665,-0.2531,-24.38,88.25,0.31,4.1675,8.8463,0.9270,9.8226
2,17,1,2,1,77.440,77440,3.9600,10.0700,0.0400,10.8207,0.1876,-0.0491,-0.0513,-22.56,87.06,358.00,4.1402,9.0076,0.8101,9.9465
2,17,1,2,1,77.571,77571,4.1200,9.3800,0.8200,10.2777,0.1407,-0.0578,0.1713,-23.19,85.69,358.63,4.1375,9.0566,0.8114,9.9900
2,17,1,2,1,77.702,77702,4.0600,8.8000,0.9100,9.7340,0.0142,-0.0567,0.0153,-23.44,84.88,359.13,4.1273,9.0228,0.8244,9.9562
2,17,1,2,1,77.834,77834,4.2500,9.2800,0.9800,10.2538,-0.0360,-0.0295,0.2007,-23.75,84.88,359.81,4.1435,9.0567,0.8449,9.9953
2,17,1,2,1,77.965,77965,4.3200,8.8900,0.9800,9.9325,-0.0098,-0.0262,0.1178,-24.81,84.88,1.19,4.1667,9.0347,0.8627,9.9866
2,17,1,2,1,78.099,78099,4.3000,9.4500,0.6500,10.4026,0.0131,-0.0284,0.0884,-25.25,84.75,1.81,4.1843,9.0895,0.8347,10.0411
2,17,1,2,1,78.230,78230,4.7000,9.5600,0.6600,10.6733,0.0447,-0.0273,0.1254,-26.31,84.50,3.00,4.2522,9.1515,0.8117,10.1237
2,18,1,2,1,78.360,78360,4.1800,8.5800,0.8900,9.5855,0.0382,-0.0098,0.0633,-26.50,84.13,3.19,4.2427,9.0762,0.8220,10.0525
2,18,1,2,1,78.533,78533,4.7700,8.8900,1.3800,10.1828,0.0480,-0.0327,0.0185,-26.38,83.81,3.00,4.3122,9.0516,0.8955,10.0662
2,18,1,2,1,78.664,78664,4.6800,9.0800,0.8300,10.2488,0.0273,0.0207,0.4723,-27.31,83.56,4.00,4.3607,9.0554,0.8869,10.0897
2,18,1,2,1,78.794,78794,4.0200,7.2500,0.8600,8.3344,0.0316,-0.0458,-0.1789,-28.94,83.13,5.56,4.3158,8.8175,0.8833,9.8567
2,18,1,2,1,78.925,78925,4.6200,8.5300,1.2100,9.7760,0.0033,0.0371,0.4778,-28.88,83.06,5.50,4.3559,8.7796,0.9264,9.8444
2,18,1,2,1,79.056,79056,4.9800,8.7300,1.2800,10.1317,-0.0044,0.0109,0.0731,-30.25,83.06,6.81,4.4381,8.7731,0.9730,9.8798
2,18,1,2,1,79.186,79186,4.2900,8.4900,0.9200,9.5567,-0.0884,-0.0251,-0.4767,-29.56,83.38,6.31,4.4186,8.7358,0.9660,9.8372
2,18,1,2,1,79.317,79317,7.3000,8.2800,1.6600,11.1626,0.0404,0.0382,0.7821,-32.00,83.50,8.69,4.7983,8.6757,1.0575,9.9704
2,18,1,2,1,79.447,79447,5.0500,7.8800,1.2600,9.4438,0.0229,0.0175,0.1156,-32.44,83.25,9.13,4.8315,8.5708,1.0841,9.8984
2,18,1,2,1,79.620,79620,5.7100,8.2900,1.2300,10.1411,-0.0240,-0.0033,-0.2313,-32.31,83.50,8.94,4.9472,8.5338,1.1034,9.9257
2,18,1,2,1,79.755,79755,6.4900,9.2100,1.1800,11.3286,0.0240,0.0229,0.3851,-32.19,83.69,8.75,5.1505,8.6229,1.1135,10.1056
2,18,1,2,1,79.886,79886,3.3100,6.1200,0.6200,6.9853,-0.0185,-0.0785,-1.0428,-30.81,83.50,7.44,4.9080,8.2931,1.0484,9.6935
2,18,1,2,1,80.016,80016,3.7200,8.2000,1.4100,9.1141,-0.0360,0.0436,0.4974,-27.00,83.81,4.00,4.7514,8.2808,1.0961,9.6099
2,18,1,2,1,80.146,80146,4.7000,8.2100,0.7400,9.4890,-0.0284,-0.0807,-0.7385,-27.94,84.00,5.00,4.7447,8.2715,1.0492,9.5932
2,18,1,2,1,80.277,80277,4.4700,9.1600,0.6600,10.2138,-0.0535,-0.0196,0.2149,-26.50,84.31,4.00,4.7085,8.3886,0.9979,9.6713
2,18,1,2,1,80.408,80408,4.3500,8.4800,0.6900,9.5556,-0.0316,-0.0578,-0.3905,-26.63,84.31,4.44,4.6612,8.4006,0.9573,9.6548
2,18,1,2,1,80.538,80538,4.9100,8.9500,1.0100,10.2582,0.0098,0.0000,0.2280,-27.44,84.25,5.44,4.6940,8.4730,0.9643,9.7343
2,18,1,2,1,80.711,80711,3.4100,8.1400,0.7600,8.8581,0.0305,-0.0087,0.0578,-26.25,83.88,4.44,4.5248,8.4291,0.9373,9.6126
2,18,1,2,1,80.841,80841,4.7100,8.0200,1.1100,9.3668,0.0382,-0.0011,-0.1014,-27.69,83.69,5.63,4.5492,8.3752,0.9601,9.5792
2,18,1,2,1,80.972,80972,3.6600,9.3100,0.6700,10.0260,0.0753,0.0971,1.1803,-27.19,83.25,4.94,4.4320,8.4984,0.9219,9.6289
2,18,1,2,1,81.102,81102,3.7800,8.6000,1.8600,9.5764,0.0240,-0.0185,-0.8574,-29.19,83.06,6.50,4.3461,8.5118,1.0455,9.6142
2,18,1,2,1,81.233,81233,3.8800,7.9200,1.2500,8.9075,0.0164,0.0284,-0.3109,-27.13,83.13,4.19,4.2847,8.4338,1.0724,9.5204
2,18,1,2,1,81.364,81364,5.4500,8.9500,1.2000,10.5473,-0.0022,0.0338,0.3403,-28.44,82.94,5.13,4.4383,8.5018,1.0892,9.6522
2,18,1,2,1,81.494,81494,4.6200,7.2400,0.7000,8.6170,-0.0709,0.0382,-0.2607,-28.88,83.06,5.38,4.4622,8.3356,1.0380,9.5116
2,18,1,2,1,81.625,81625,3.2200,8.3100,0.7400,8.9427,-0.1505,0.0840,0.2171,-25.50,84.63,2.19,4.2985,8.3322,0.9987,9.4287
2,18,1,2,1,81.801,81801,3.9300,9.6000,0.0700,10.3735,-0.1309,0.0415,-0.1145,-26.94,86.00,3.50,4.2500,8.4993,0.8763,9.5429
2,18,1,2,1,81.932,81932,4.8000,8.9100,0.8300,10.1547,-0.0927,0.0338,-0.1669,-28.00,86.56,4.38,4.3224,8.5534,0.8702,9.6229
2,18,1,2,1,82.063,82063,5.3600,9.6400,0.7200,11.0534,-0.0251,0.0851,0.1680,-27.56,87.19,3.75,4.4592,8.6966,0.8504,9.8101
2,18,1,2,1,82.193,82193,4.4500,8.9700,0.3700,10.0200,-0.0011,0.0687,-0.1800,-26.31,87.56,2.06,4.4580,8.7326,0.7871,9.8362
2,18,1,2,1,82.324,82324,4.6200,8.8800,0.3000,10.0144,-0.0087,0.0338,-0.1571,-25.75,87.75,1.13,4.4793,8.7520,0.7229,9.8582
2,18,1,2,1,82.454,82454,4.4700,8.9600,0.2500,10.0162,-0.0349,0.0316,0.1276,-25.56,88.00,0.81,4.4781,8.7794,0.6606,9.8776
2,18,1,2,1,82.584,82584,4.4200,9.4000,0.4200,10.3958,-0.0567,-0.0076,-0.0360,-25.50,88.44,0.81,4.4704,8.8612,0.6289,9.9449
2,18,1,2,1,82.715,82715,4.5800,9.2100,0.3100,10.2906,0.0000,-0.0753,-0.0676,-25.13,88.50,0.88,4.4849,8.9072,0.5869,9.9898
2,18,1,2,1,82.888,82888,4.3000,9.2700,0.1700,10.2202,0.0425,-0.0807,0.1876,-25.31,87.81,1.75,4.4605,8.9550,0.5319,10.0185
2,18,1,2,1,83.018,83018,4.3400,9.4800,0.4800,10.4373,0.0109,-0.0622,0.1985,-26.31,87.44,3.13,4.4446,9.0242,0.5251,10.0730
2,19,1,2,1,83.148,83148,4.6700,8.6800,0.5600,9.8724,0.0153,-0.0774,0.1996,-28.31,87.06,5.50,4.4743,8.9788,0.5297,10.0459
2,19,1,2,1,83.278,83278,4.9000,8.6100,0.6200,9.9261,-0.0207,-0.0556,-0.0022,-29.25,86.81,6.88,4.5304,8.9302,0.5416,10.0283
2,19,1,2,1,83.408,83408,4.4900,8.9500,0.6300,10.0329,-0.0076,-0.0076,-0.1462,-28.56,86.88,6.44,4.5251,8.9328,0.5532,10.0288
2,19,1,2,1,83.538,83538,4.5700,8.8500,0.9300,10.0036,0.0764,0.0109,-0.0447,-28.69,86.63,6.38,4.5310,8.9219,0.6029,10.0247
2,19,1,2,1,83.669,83669,5.0500,8.7600,0.5800,10.1280,0.1080,-0.0327,-0.0284,-29.00,85.81,6.44,4.5994,8.9006,0.5999,10.0367
2,19,1,2,1,83.799,83799,4.4500,8.1500,0.7000,9.3121,0.0807,-0.0491,-0.2291,-28.31,85.00,5.63,4.5797,8.8017,0.6131,9.9408
2,19,1,2,1,83.972,83972,4.2000,7.7000,0.9500,8.8223,0.0491,-0.0753,-0.1353,-27.81,83.88,5.38,4.5297,8.6565,0.6575,9.7921
2,19,1,2,1,84.102,84102,4.5300,8.5900,0.8400,9.7475,0.0087,-0.0305,0.2694,-26.81,83.75,4.81,4.5297,8.6477,0.6815,9.7860
2,19,1,2,1,84.233,84233,4.8700,8.4800,1.5000,9.8933,0.0044,-0.0807,-0.1527,-26.81,83.56,5.25,4.5746,8.6256,0.7894,9.7955
2,19,1,2,1,84.363,84363,3.8000,8.3300,1.1500,9.2278,0.0055,-0.0240,0.3262,-25.06,83.38,4.00,4.4725,8.5867,0.8369,9.7177
2,19,1,2,1,84.494,84494,3.8200,8.7600,0.8300,9.5926,-0.0774,-0.0545,-0.2520,-25.00,83.63,4.31,4.3865,8.6095,0.8360,9.6987
2,19,1,2,1,84.625,84625,4.4900,8.9300,1.2600,10.0744,-0.0153,-0.0142,0.4342,-25.63,83.75,5.25,4.4001,8.6517,0.8919,9.7473
2,19,1,2,1,84.756,84756,3.8900,8.8200,0.5900,9.6578,-0.0305,-0.0262,-0.1527,-25.81,83.69,5.69,4.3329,8.6739,0.8521,9.7333
2,19,1,2,1,84.887,84887,4.7700,8.6200,1.2700,9.9333,0.0109,0.0393,0.2291,-26.75,83.81,6.44,4.3905,8.6668,0.9072,9.7577
2,19,1,2,1,85.062,85062,4.1100,8.1800,1.0100,9.2100,0.0425,0.0513,0.1276,-26.56,83.81,6.06,4.3536,8.6027,0.9207,9.6854
2,19,1,2,1,85.193,85193,4.6400,8.6800,0.8700,9.8807,0.0284,0.0055,-0.2945,-26.63,83.81,5.75,4.3913,8.6129,0.9140,9.7108
2,19,1,2,1,85.324,85324,4.4100,8.8900,0.9500,9.9691,0.0567,0.0229,0.2007,-26.38,83.56,5.31,4.3938,8.6494,0.9188,9.7448
2,19,1,2,1,85.454,85454,4.0500,9.2400,1.0000,10.1381,0.0371,-0.0404,-0.1080,-25.88,83.31,4.81,4.3485,8.7272,0.9295,9.7948
2,19,1,2,1,85.584,85584,5.1000,8.6600,0.8700,10.0877,-0.0218,-0.0316,-0.1167,-26.94,82.94,5.88,4.4475,8.7183,0.9216,9.8305
2,19,1,2,1,85.715,85715,3.8800,9.0900,0.8600,9.9208,-0.0142,0.0098,0.3327,-24.56,83.19,3.81,4.3727,8.7673,0.9135,9.8398
2,19,1,2,1,85.845,85845,4.1300,8.8500,0.6900,9.7906,-0.0327,-0.0480,-0.5432,-25.00,83.13,4.31,4.3407,8.7782,0.8841,9.8326
2,19,1,2,1,85.976,85976,4.2500,8.5300,1.2100,9.6066,-0.0218,0.0502,0.3207,-24.38,83.31,3.75,4.3288,8.7455,0.9270,9.8021
2,19,1,2,1,86.149,86149,3.2900,8.3400,0.9900,9.0200,-0.0131,0.0120,-0.1658,-22.81,83.75,2.13,4.1919,8.6921,0.9353,9.6953
2,19,1,2,1,86.280,86280,3.5500,9.0000,0.5700,9.6916,-0.0022,0.0513,0.0011,-22.31,83.88,1.44,4.1073,8.7326,0.8872,9.6910
2,19,1,2,1,86.410,86410,5.5600,10.0600,1.1800,11.5546,0.0000,0.1189,0.4036,-24.56,84.06,3.06,4.2987,8.9076,0.9258,9.9338
2,19,1,2,1,86.541,86541,2.5900,9.2000,0.5100,9.5712,-0.0404,0.0415,-0.2323,-22.00,84.56,0.31,4.0736,8.9461,0.8710,9.8684
2,19,1,2,1,86.671,86671,4.0500,9.4000,1.0000,10.2841,0.0436,0.0535,0.0349,-24.13,84.56,1.88,4.0705,9.0059,0.8880,9.9229
2,19,1,2,1,86.804,86804,3.7600,8.5000,0.9200,9.3399,0.0098,0.0480,-0.1036,-23.44,84.63,0.75,4.0296,8.9392,0.8922,9.8460
2,19,1,2,1,86.935,86935,3.7000,8.3900,0.8500,9.2089,0.0164,-0.0076,-0.0567,-22.50,84.50,359.63,3.9861,8.8669,0.8866,9.7620
2,19,1,2,1,87.069,87069,4.0100,8.9600,1.2300,9.8932,0.0033,-0.0742,0.0927,-23.56,84.31,0.94,3.9893,8.8791,0.9319,9.7786
2,19,1,2,1,87.242,87242,4.1300,9.1500,0.8600,10.0757,0.0033,-0.1156,-0.1538,-23.63,84.00,1.94,4.0078,8.9148,0.9224,9.8177
2,19,1,2,1,87.372,87372,3.7500,9.2000,1.1500,10.0012,0.0371,-0.0993,0.0033,-23.31,83.50,2.31,3.9738,8.9524,0.9524,9.8409
2,19,1,2,1,87.502,87502,4.2300,8.7600,1.0400,9.7833,-0.0087,-0.0469,0.1996,-23.75,83.13,3.25,4.0076,8.9271,0.9639,9.8327
2,19,1,2,1,87.632,87632,4.8800,10.0800,1.1600,11.2591,-0.0818,-0.0415,-0.0491,-23.63,83.44,3.56,4.1226,9.0790,0.9898,10.0201
2,19,1,2,1,87.762,87762,2.9400,9.0000,1.0600,9.5272,-0.0545,-0.0218,-0.0480,-21.50,84.00,2.00,3.9667,9.0686,0.9990,9.9485
2,19,1,2,1,87.892,87892,3.6500,10.0700,1.1900,10.7770,-0.0229,0.0316,0.1200,-22.13,84.25,2.63,3.9250,9.2005,1.0242,10.0551
2,19,1,2,1,88.023,88023,4.6200,8.8500,1.0900,10.0427,0.0142,0.0469,0.0600,-25.50,84.13,5.56,4.0166,9.1543,1.0329,10.0500
2,19,1,2,1,88.153,88153,4.1500,9.2400,0.7000,10.1533,0.0131,0.0916,0.4571,-25.13,84.38,4.81,4.0342,9.1656,0.9890,10.0629
2,19,1,2,1,88.326,88326,4.4100,9.0400,0.7700,10.0877,-0.0087,0.0611,0.0273,-26.19,84.63,5.25,4.0837,9.1491,0.9601,10.0650
2,19,1,2,1,88.456,88456,3.9900,8.2300,0.9100,9.1914,0.0044,0.0382,-0.0240,-26.25,84.75,5.00,4.0713,9.0280,0.9535,9.9493
2,19,1,2,1,88.587,88587,5.0200,9.2400,0.9100,10.5549,0.0447,0.0524,0.3054,-27.56,84.75,5.94,4.1963,9.0559,0.9478,10.0258
2,19,1,2,1,88.717,88717,5.5100,9.6100,0.6800,11.0984,0.0458,0.0142,0.0207,-28.75,84.56,6.75,4.3695,9.1289,0.9125,10.1618
2,19,1,2,1,88.847,88847,4.6800,9.3000,0.9300,10.4526,0.0513,-0.0425,-0.2651,-28.44,84.13,6.38,4.4104,9.1515,0.9148,10.1999
2,20,1,2,1,88.977,88977,4.8700,8.6300,1.2900,9.9929,0.1276,-0.0164,0.4112,-29.13,83.31,7.00,4.4709,9.0828,0.9643,10.1693
2,20,1,2,1,89.107,89107,4.6300,7.1100,1.1800,8.5663,0.0622,-0.0949,-0.4145,-30.50,82.31,8.44,4.4919,8.8228,0.9927,9.9501
2,20,1,2,1,89.237,89237,2.4000,6.7800,2.0500,7.4787,-0.0545,0.0055,-0.1167,-25.44,82.44,3.81,4.2162,8.5536,1.1320,9.6032
2,20,1,2,1,89.410,89410,4.7100,8.4100,1.3600,9.7346,0.0393,-0.0164,-0.1014,-28.75,82.31,6.94,4.2813,8.5347,1.1621,9.6188
2,20,1,2,1,89.541,89541,4.5100,8.5400,1.0600,9.7157,-0.0131,0.0654,0.3098,-28.94,82.31,6.94,4.3114,8.5354,1.1486,9.6312
2,20,1,2,1,89.671,89671,5.3100,8.3100,1.1000,9.9228,0.0240,0.0065,-0.1614,-29.56,82.50,7.38,4.4430,8.5057,1.1422,9.6639
2,20,1,2,1,89.802,89802,4.1800,8.4700,0.9000,9.4881,0.0196,0.0207,0.0425,-27.75,82.50,5.50,4.4084,8.5010,1.1103,9.6402
2,20,1,2,1,89.932,89932,4.4200,8.4800,1.3700,9.6604,0.0316,-0.0229,-0.3371,-27.94,82.38,5.50,4.4099,8.4982,1.1445,9.6424
2,20,1,2,1,90.063,90063,4.9400,8.4800,1.3100,9.9010,0.0524,0.0076,0.2814,-28.31,82.00,5.75,4.4798,8.4958,1.1663,9.6751
2,20,1,2,1,90.194,90194,4.4400,8.3700,1.2700,9.5595,-0.0087,-0.0207,-0.1800,-27.94,81.88,5.38,4.4745,8.4792,1.1800,9.6598
2,20,1,2,1,90.324,90324,4.9000,8.4000,1.2100,9.7997,0.0295,-0.0251,0.1385,-27.94,81.63,5.44,4.5306,8.4688,1.1839,9.6772
2,20,1,2,1,90.497,90497,4.8100,8.5400,1.5700,9.9264,0.0284,-0.0142,0.3054,-27.88,81.19,5.63,4.5674,8.4782,1.2348,9.7090
2,20,1,2,1,90.631,90631,3.7100,7.7600,1.3600,8.7081,-0.0251,-0.0207,-0.0873,-28.00,81.00,5.94,4.4544,8.3835,1.2513,9.5756
2,20,1,2,1,90.762,90762,4.6000,8.5200,1.2800,9.7667,-0.0098,-0.0240,-0.1625,-28.19,81.13,6.25,4.4736,8.4015,1.2551,9.6007
2,20,1,2,1,90.893,90893,4.0800,7.9600,1.2900,9.0373,-0.0120,-0.0218,-0.0785,-27.56,81.06,5.81,4.4217,8.3433,1.2597,9.5263
2,20,1,2,1,91.023,91023,4.3400,8.8500,1.0900,9.9170,-0.0382,0.0098,0.0884,-27.44,81.31,5.81,4.4110,8.4101,1.2373,9.5769
2,20,1,2,1,91.154,91154,5.0400,9.3500,1.3700,10.7099,-0.0502,0.0142,-0.0862,-28.13,81.69,6.50,4.4939,8.5340,1.2548,9.7261
2,20,1,2,1,91.284,91284,3.9700,8.8200,1.3800,9.7702,-0.0513,0.0207,-0.2858,-26.00,82.25,4.50,4.4248,8.5717,1.2713,9.7298
2,20,1,2,1,91.415,91415,3.9100,9.3600,1.3900,10.2386,0.0622,0.0262,-0.1996,-24.94,82.19,3.19,4.3570,8.6755,1.2869,9.7931
2,20,1,2,1,91.588,91588,4.8700,9.2600,1.2900,10.5418,0.0611,0.0665,0.1669,-26.13,81.38,3.56,4.4246,8.7526,1.2873,9.8915
2,20,1,2,1,91.720,91720,4.4500,8.2700,1.3200,9.4836,-0.0404,0.0807,-0.0567,-26.56,81.50,3.50,4.4279,8.6890,1.2917,9.8373
2,20,1,2,1,91.851,91851,3.9400,8.3800,1.0600,9.3205,-0.1178,0.1047,-0.0207,-25.56,82.56,2.13,4.3636,8.6483,1.2611,9.7685
2,20,1,2,1,91.986,91986,4.8100,9.4900,1.6300,10.7635,-0.0862,0.0622,-0.2389,-25.63,83.69,1.88,4.4225,8.7592,1.3097,9.8993
2,20,1,2,1,92.117,92117,4.1000,9.1400,0.5900,10.0348,-0.0622,0.0698,0.2171,-24.25,84.50,0.31,4.3800,8.8094,1.2149,9.9129
2,20,1,2,1,92.248,92248,4.7500,9.4000,1.0800,10.5872,-0.0284,-0.0327,-0.1429,-25.13,84.81,1.19,4.4287,8.8872,1.1971,10.0014
2,20,1,2,1,92.378,92378,4.5700,9.0100,0.7300,10.1291,-0.0720,-0.0622,0.1244,-24.63,85.13,1.19,4.4473,8.9034,1.1356,10.0169
2,20,1,2,1,92.509,92509,3.5400,9.4400,0.9800,10.1294,-0.0600,-0.1178,-0.1440,-24.25,85.31,1.63,4.3278,8.9741,1.1151,10.0253
2,20,1,2,1,92.682,92682,4.9600,8.1500,0.9600,9.5888,0.0262,-0.1156,0.2913,-28.13,84.69,6.31,4.4111,8.8655,1.0946,9.9626
2,20,1,2,1,92.813,92813,4.6300,8.7200,1.1300,9.9374,-0.0273,-0.0916,-0.0480,-28.00,84.38,7.00,4.4399,8.8463,1.0993,9.9589
2,20,1,2,1,92.943,92943,4.8000,8.9600,1.1500,10.2296,0.0022,-0.0436,-0.0654,-28.06,84.13,7.56,4.4874,8.8613,1.1060,9.9941
2,20,1,2,1,93.073,93073,4.7200,9.2700,1.2400,10.4761,0.0109,-0.0033,-0.0535,-28.06,84.13,7.69,4.5180,8.9152,1.1236,10.0576
2,20,1,2,1,93.204,93204,5.1500,9.0200,1.0700,10.4416,0.0644,0.0338,0.1669,-29.88,83.88,9.13,4.6013,8.9290,1.1166,10.1067
2,20,1,2,1,93.334,93334,4.5200,7.8800,0.6500,9.1075,0.0644,-0.0545,-0.6403,-29.38,83.44,8.38,4.5906,8.7907,1.0551,9.9732
2,20,1,2,1,93.465,93465,3.7900,7.3600,0.9900,8.3375,0.0589,-0.0087,0.0415,-27.88,83.00,6.81,4.4851,8.6022,1.0465,9.7575
