participant,rep,equipment_code,exercise_code,quality_code,timestamp,timestamp_ms,accelX,accelY,accelZ,accelMag,gyroX,gyroY,gyroZ,roll,pitch,yaw,filteredX,filteredY,filteredZ,filteredMag
3,1,1,2,1,00.000,0,0.1500,9.6200,1.0800,9.6816,-0.0131,0.0240,-0.0076,-1.50,82.88,343.44,0.1125,9.6808,1.2090,9.7567
3,1,1,2,1,00.130,130,0.5200,9.5700,1.2300,9.6627,0.0022,0.0295,0.0753,-1.88,82.88,343.63,0.1662,9.6662,1.2118,9.7433
3,1,1,2,1,00.260,260,0.9800,9.7700,1.0800,9.8782,-0.0087,0.0142,0.0316,-2.06,82.94,343.63,0.2734,9.6799,1.1944,9.7571
3,1,1,2,1,00.391,391,0.4200,9.5700,1.1300,9.6456,0.0087,-0.0033,0.0055,-1.94,82.94,343.50,0.2927,9.6654,1.1859,9.7423
3,1,1,2,1,00.521,521,0.4800,9.7800,1.1700,9.8614,0.0044,-0.0229,0.0567,-2.19,82.94,343.81,0.3174,9.6805,1.1838,9.7578
3,1,1,2,1,00.652,652,0.4400,9.3500,1.1500,9.4307,-0.0098,-0.0393,-0.0894,-2.00,82.94,343.88,0.3336,9.6370,1.1794,9.7146
3,1,1,2,1,00.783,783,0.1500,9.6200,1.4600,9.7313,0.0295,-0.0251,0.0654,-1.94,82.88,344.06,0.3094,9.6347,1.2164,9.7161
3,1,1,2,1,00.913,913,0.2000,9.2700,1.0300,9.3292,-0.0175,-0.0284,-0.0698,-2.00,82.81,344.31,0.2950,9.5867,1.1918,9.6650
3,1,1,2,1,01.086,1086,-0.2600,9.6300,1.1600,9.7031,0.0142,0.0022,0.0065,-2.38,82.81,344.75,0.2218,9.5924,1.1876,9.6682
3,1,1,2,1,01.217,1217,-0.2100,8.2700,1.0000,8.3329,0.0207,-0.0284,-0.1549,-2.31,82.69,344.75,0.1649,9.4181,1.1629,9.4911
3,1,1,2,1,01.347,1347,2.7400,11.9500,0.3800,12.2660,-0.1331,0.0338,0.6120,-4.13,82.88,346.50,0.5043,9.7518,1.0597,9.8221
3,1,1,2,1,01.481,1481,-0.4400,7.4400,0.8000,7.4958,-0.0709,-0.0109,0.0993,-2.06,83.31,344.75,0.3798,9.4471,1.0255,9.5102
3,1,1,2,1,01.612,1612,0.2700,10.5700,1.7700,10.7206,0.0251,0.0098,0.2334,-4.81,83.44,347.44,0.3654,9.5951,1.1236,9.6676
3,1,1,2,1,01.745,1745,-0.7100,9.0200,2.0600,9.2794,0.1058,-0.0404,-0.6949,-4.50,83.00,347.00,0.2236,9.5193,1.2470,9.6032
3,1,1,2,1,01.876,1876,3.8900,7.8900,1.8600,8.9913,0.1418,-0.0545,-0.2149,-5.06,82.19,347.56,0.7068,9.3046,1.3278,9.4254
3,1,1,2,1,02.007,2007,-1.2400,9.1100,1.5200,9.3188,0.0687,0.0774,1.2534,-6.75,81.63,349.31,0.4502,9.2790,1.3531,9.3879
3,1,1,2,1,02.179,2179,3.2600,9.9000,1.2700,10.5000,0.1527,0.0698,0.8759,-11.63,80.56,353.75,0.8205,9.3608,1.3422,9.4921
3,1,1,2,1,02.309,2309,2.5200,9.8000,1.8000,10.2777,0.0327,0.0720,0.4211,-13.63,80.38,355.44,1.0444,9.4187,1.4025,9.5796
3,1,1,2,1,02.439,2439,2.4600,9.6100,1.9200,10.1040,-0.0502,0.0098,-0.2716,-12.94,80.88,354.63,1.2310,9.4439,1.4707,9.6367
3,1,1,2,1,02.569,2569,3.3100,10.7300,1.9000,11.3885,-0.0175,0.0262,0.3742,-12.56,81.25,354.25,1.5049,9.6134,1.5273,9.8496
3,1,1,2,1,02.699,2699,2.0400,10.8100,0.8000,11.0299,-0.0098,-0.0415,-0.2847,-11.94,81.13,353.69,1.5755,9.7711,1.4314,10.0002
3,1,1,2,1,02.829,2829,1.6200,9.7400,1.2900,9.9577,-0.0425,-0.0316,-0.2487,-11.06,81.38,353.00,1.5813,9.7670,1.4128,9.9945
3,1,1,2,1,02.960,2960,1.6000,10.5900,1.0700,10.7635,-0.0131,-0.0196,0.0011,-11.06,81.69,353.13,1.5838,9.8754,1.3676,10.0947
3,1,1,2,1,03.090,3090,1.3400,9.5900,1.3700,9.7796,0.0295,-0.0196,-0.0764,-11.06,81.44,353.19,1.5517,9.8378,1.3679,10.0529
3,1,1,2,1,03.263,3263,1.1800,9.5100,1.5800,9.7123,0.0284,-0.0218,-0.2247,-10.50,81.06,352.69,1.5027,9.7946,1.3959,10.0070
3,1,1,2,1,03.393,3393,4.9100,10.7200,1.3500,11.8680,-0.0567,0.0185,0.2618,-11.31,81.06,353.50,1.9517,9.9166,1.3898,10.2019
3,2,1,2,1,03.523,3523,-1.3500,9.5000,1.8600,9.7741,-0.0185,-0.0360,-0.6578,-9.50,81.56,351.81,1.5166,9.8617,1.4518,10.0827
3,2,1,2,1,03.653,3653,-1.3400,8.8100,1.1900,8.9904,-0.0949,-0.0993,-0.8967,-7.19,81.75,349.81,1.1402,9.7231,1.4173,9.8918
3,2,1,2,1,03.783,3783,1.9200,9.1200,1.9400,9.5197,-0.0011,0.0164,-0.0589,-6.13,82.19,348.88,1.2429,9.6436,1.4862,9.8363
3,2,1,2,1,03.913,3913,-2.0400,10.7700,0.6700,10.9820,-0.0720,0.0229,-0.0742,-5.25,82.63,347.94,0.8103,9.7920,1.3786,9.9218
3,2,1,2,1,04.044,4044,0.6800,10.2700,0.6500,10.3130,-0.0327,-0.0055,-0.5978,-5.63,82.69,348.06,0.7932,9.8550,1.2826,9.9697
3,2,1,2,1,04.174,4174,-5.6900,9.1300,-0.1200,10.7586,-0.1113,0.0524,0.1713,0.69,82.69,341.88,-0.0612,9.7595,1.0978,9.8212
3,2,1,2,1,04.347,4347,-6.6400,6.4500,-0.8000,9.2915,0.0851,-0.0873,-1.3570,5.13,82.38,337.50,-0.9281,9.3234,0.8477,9.4077
3,2,1,2,1,04.478,4478,-0.6100,12.0000,1.6000,12.1216,-0.1614,0.0425,0.3862,2.38,83.13,339.88,-0.8862,9.6761,0.9468,9.7626
3,2,1,2,1,04.608,4608,-2.4500,8.5200,0.7200,8.8945,0.1636,-0.0120,-0.8236,6.06,83.13,336.13,-1.0922,9.5237,0.9169,9.6299
3,2,1,2,1,04.739,4739,-2.6800,8.5400,2.0300,9.1780,0.0949,0.0764,0.5192,5.31,82.44,336.50,-1.3015,9.3941,1.0636,9.5433
3,2,1,2,1,04.870,4870,-1.0000,9.3300,1.6300,9.5240,0.0087,-0.0305,-0.3338,3.31,82.31,338.31,-1.2617,9.3857,1.1383,9.5383
3,2,1,2,1,05.001,5001,-0.8200,10.1000,1.1500,10.1983,-0.0185,-0.0076,0.0676,4.25,82.44,337.44,-1.2035,9.4798,1.1398,9.6236
3,2,1,2,1,05.132,5132,-0.9500,9.4300,1.4800,9.5926,0.0382,-0.0273,-0.0382,3.69,82.13,338.13,-1.1701,9.4732,1.1846,9.6185
3,2,1,2,1,05.267,5267,-1.1000,9.1300,1.2900,9.2861,-0.0229,-0.0589,-0.1353,4.69,82.25,337.44,-1.1609,9.4280,1.1985,9.5745
3,2,1,2,1,05.440,5440,-0.6100,9.6400,1.2200,9.7360,-0.0120,-0.0371,0.2193,4.38,82.50,338.25,-1.0883,9.4559,1.2013,9.5939
3,2,1,2,1,05.570,5570,-1.5500,8.9500,0.7400,9.1133,-0.0305,-0.0513,-0.1865,4.44,82.44,338.56,-1.1491,9.3893,1.1406,9.5278
3,2,1,2,1,05.700,5700,-0.6000,9.3700,1.0400,9.4466,-0.0600,-0.0284,-0.0480,4.81,82.88,338.44,-1.0768,9.3867,1.1273,9.5153
3,2,1,2,1,05.830,5830,0.3100,9.5800,1.1200,9.6502,-0.0098,0.0065,0.4003,3.31,82.94,340.00,-0.8940,9.4122,1.1263,9.5214
3,2,1,2,1,05.960,5960,-2.6200,8.7800,1.5000,9.2845,-0.0196,-0.0589,-0.6414,4.06,83.06,339.44,-1.1215,9.3289,1.1756,9.4693
3,2,1,2,1,06.091,6091,-1.1300,10.0800,0.8200,10.1762,0.0415,-0.0229,-0.2094,4.75,83.06,338.81,-1.1226,9.4279,1.1287,9.5613
3,2,1,2,1,06.221,6221,0.1400,9.2200,1.5600,9.3521,0.0120,0.0469,0.5705,2.44,82.94,340.94,-0.9562,9.4005,1.1856,9.5231
3,2,1,2,1,06.352,6352,0.0500,10.8100,0.1500,10.8112,-0.1353,0.0142,-0.0229,-0.06,83.38,343.25,-0.8236,9.5862,1.0491,9.6786
3,2,1,2,1,06.525,6525,-0.6200,9.9900,0.2700,10.0129,-0.0207,0.0807,0.6032,0.13,83.94,342.75,-0.7968,9.6394,0.9464,9.7185
3,2,1,2,1,06.655,6655,-0.8300,9.4200,1.4900,9.5732,0.0316,-0.0633,-0.3709,-2.88,83.88,345.56,-0.8012,9.6105,1.0181,9.6974
3,2,1,2,1,06.786,6786,2.3100,9.6600,1.5000,10.0450,0.1014,-0.0273,0.5236,-4.31,83.31,347.25,-0.3912,9.6170,1.0816,9.6856
3,2,1,2,1,06.916,6916,-2.2300,9.8400,0.8900,10.1287,-0.0022,-0.0971,-0.2978,-4.63,83.13,348.13,-0.6335,9.6464,1.0563,9.7247
3,2,1,2,1,07.047,7047,1.2200,9.6000,0.7900,9.7094,0.0262,-0.0185,0.2149,-6.19,82.81,349.94,-0.3893,9.6403,1.0212,9.7020
3,2,1,2,1,07.178,7178,1.4600,9.5400,1.2500,9.7317,0.1134,0.0436,0.3022,-7.75,82.31,351.31,-0.1456,9.6271,1.0514,9.6854
3,2,1,2,1,07.311,7311,1.1300,9.8700,1.2300,10.0103,-0.0207,0.0240,-0.1276,-9.00,82.19,352.19,0.0225,9.6591,1.0749,9.7187
3,2,1,2,1,07.442,7442,2.6600,9.5500,2.2000,10.1547,-0.0120,0.0360,-0.0513,-8.88,82.44,351.75,0.3701,9.6447,1.2232,9.7290
3,2,1,2,1,07.616,7616,0.9700,9.7100,1.3400,9.8499,-0.0774,0.0447,0.0415,-7.81,82.81,350.50,0.4491,9.6533,1.2386,9.7428
3,2,1,2,1,07.746,7746,0.8100,10.6300,1.0500,10.7124,-0.0545,0.0393,-0.1691,-7.25,83.38,349.69,0.4967,9.7820,1.2137,9.8695
3,2,1,2,1,07.877,7877,0.7500,8.9900,0.6200,9.0425,-0.0458,0.0382,-0.0873,-6.81,83.69,348.94,0.5301,9.6777,1.1355,9.7584
3,2,1,2,1,08.007,8007,1.3200,10.2000,1.0800,10.3416,-0.0098,0.0240,0.1604,-7.19,84.00,349.06,0.6342,9.7465,1.1282,9.8320
3,2,1,2,1,08.137,8137,1.9800,9.5400,1.2100,9.8182,0.0382,-0.0316,0.0000,-8.25,83.88,350.13,0.8115,9.7193,1.1390,9.8194
3,2,1,2,1,08.268,8268,0.7000,9.5200,0.8400,9.5826,0.0436,-0.0633,-0.2694,-7.19,83.50,349.44,0.7968,9.6930,1.0996,9.7877
3,2,1,2,1,08.398,8398,1.1200,8.7600,1.2000,8.9125,-0.0153,0.0153,0.2160,-7.69,83.44,350.06,0.8394,9.5701,1.1128,9.6710
3,2,1,2,1,08.529,8529,1.1300,10.5100,0.9900,10.6168,-0.0458,0.0295,-0.1320,-7.88,83.50,350.13,0.8777,9.6939,1.0966,9.7952
3,2,1,2,1,08.702,8702,1.9600,10.5200,1.3800,10.7896,-0.0185,0.1178,0.2607,-9.63,83.63,351.13,1.0203,9.8028,1.1340,9.9208
3,2,1,2,1,08.833,8833,0.9700,10.2100,1.4000,10.3511,-0.0164,0.0993,-0.2542,-10.50,83.94,351.13,1.0137,9.8564,1.1690,9.9772
3,3,1,2,1,08.963,8963,2.6900,9.5300,0.7600,9.9315,-0.0938,0.0480,-0.1396,-11.81,84.63,351.81,1.2346,9.8134,1.1151,9.9534
3,3,1,2,1,09.094,9094,1.1200,8.4300,0.8100,8.5426,0.0011,-0.0142,-0.1254,-9.81,85.13,349.88,1.2195,9.6311,1.0749,9.7674
3,3,1,2,1,09.224,9224,3.3000,10.7400,1.1300,11.2922,0.0894,-0.0545,0.3469,-10.75,84.69,351.06,1.4936,9.7772,1.0822,9.9497
3,3,1,2,1,09.357,9357,2.6400,7.5900,2.0100,8.2836,0.0927,0.0055,1.0003,-6.69,84.31,347.75,1.6447,9.4890,1.2044,9.7055
3,3,1,2,1,09.488,9488,1.5700,9.5100,-0.1300,9.6396,-0.0360,-0.0535,0.0185,-8.56,84.19,350.00,1.6349,9.4918,1.0286,9.6863
3,3,1,2,1,09.622,9622,0.2300,10.5900,-0.1500,10.5936,-0.1396,0.0044,0.1407,-8.13,84.88,349.75,1.4497,9.6365,0.8733,9.7840
3,3,1,2,1,09.795,9795,-3.7400,6.3300,0.3300,7.3597,-0.1462,-0.0305,-1.1236,0.31,86.19,341.75,0.7659,9.2008,0.8017,9.2674
3,3,1,2,1,09.925,9925,0.7200,10.9800,0.8700,11.0379,0.2574,-0.0011,-0.5345,-3.00,85.44,344.31,0.7598,9.4352,0.8107,9.5004
3,3,1,2,1,10.055,10055,0.2800,9.6900,0.5700,9.7108,0.1309,0.1276,0.5400,-0.88,84.19,341.69,0.6966,9.4688,0.7790,9.5263
3,3,1,2,1,10.185,10185,-0.4000,8.2800,1.5100,8.4261,-0.0153,0.0960,-0.0545,-0.50,84.13,340.69,0.5521,9.3122,0.8753,9.3695
3,3,1,2,1,10.315,10315,2.5200,11.6200,-0.0100,11.8901,0.0338,0.1189,0.6240,-2.44,84.06,341.81,0.8114,9.6163,0.7586,9.6802
3,3,1,2,1,10.445,10445,-0.9900,8.4300,0.8300,8.5284,0.0927,0.0535,-0.0818,-3.13,83.13,342.00,0.5740,9.4600,0.7680,9.5084
3,3,1,2,1,10.576,10576,1.5000,10.1600,1.3000,10.3521,0.0338,-0.0295,-0.1527,-4.13,83.06,342.81,0.6960,9.5522,0.8381,9.6141
3,3,1,2,1,10.706,10706,0.2700,9.5300,1.1200,9.5994,0.0000,-0.0425,0.2574,-3.81,82.94,342.75,0.6399,9.5493,0.8753,9.6106
3,3,1,2,1,10.879,10879,0.4500,9.0600,1.6000,9.2112,-0.0371,-0.0894,-0.0894,-3.63,82.88,343.31,0.6149,9.4848,0.9708,9.5542
3,3,1,2,1,11.010,11010,0.0800,9.5300,1.2800,9.6159,-0.0055,-0.0698,0.1134,-3.50,82.75,343.75,0.5444,9.4908,1.0115,9.5600
3,3,1,2,1,11.141,11141,1.0900,9.2200,0.8700,9.3249,0.0076,-0.0425,0.1865,-4.38,82.63,345.13,0.6163,9.4551,0.9929,9.5270
3,3,1,2,1,11.271,11271,0.4600,7.7300,1.3300,7.8571,-0.0818,-0.0240,-0.2116,-3.19,83.00,344.25,0.5957,9.2278,1.0373,9.3050
3,3,1,2,1,11.402,11402,0.6900,11.1300,-0.2400,11.1540,-0.1865,0.0971,0.9468,-5.00,83.88,345.94,0.6081,9.4784,0.8690,9.5376
3,3,1,2,1,11.532,11532,1.8200,9.5400,1.8800,9.8923,0.0873,-0.0207,-0.1909,-7.50,84.25,348.25,0.7678,9.4865,1.0022,9.5702
3,3,1,2,1,11.666,11666,2.6200,9.5600,0.2500,9.9157,-0.0262,-0.0011,0.3469,-7.56,84.13,348.38,1.0119,9.4962,0.9031,9.5926
3,3,1,2,1,11.797,11797,1.1300,8.4900,0.6400,8.5887,0.0535,-0.0131,0.2749,-9.13,83.75,350.06,1.0275,9.3636,0.8684,9.4598
3,3,1,2,1,11.971,11971,0.3600,8.9700,0.4500,8.9885,-0.0764,0.0284,0.3098,-11.00,84.38,352.00,0.9395,9.3118,0.8133,9.3943
3,3,1,2,1,12.101,12101,2.4400,10.0600,0.5800,10.3679,0.0654,-0.0022,0.2334,-12.81,84.44,353.81,1.1372,9.4104,0.7825,9.5111
3,3,1,2,1,12.232,12232,3.1600,10.2600,1.2800,10.8116,-0.0273,0.0044,0.1778,-14.56,84.13,355.50,1.4038,9.5223,0.8481,9.6625
3,3,1,2,1,12.362,12362,2.5600,9.0100,2.0100,9.5799,0.0469,-0.0120,0.0033,-13.06,84.13,354.19,1.5561,9.4548,1.0012,9.6342
3,3,1,2,1,12.493,12493,2.1800,9.8900,1.0700,10.1838,-0.0480,0.0022,-0.2640,-12.25,84.25,353.44,1.6383,9.5122,1.0103,9.7049
3,3,1,2,1,12.623,12623,1.3200,9.5400,0.7700,9.6616,-0.0109,0.0240,-0.1953,-10.38,84.44,351.50,1.5964,9.5158,0.9786,9.6983
3,3,1,2,1,12.753,12753,1.2200,10.3700,0.5200,10.4545,0.0273,0.0513,0.0851,-9.50,84.50,350.38,1.5468,9.6284,0.9182,9.7950
3,3,1,2,1,12.884,12884,1.0200,9.7700,0.7900,9.8548,0.0742,-0.0044,-0.1582,-10.56,84.00,351.13,1.4774,9.6470,0.9013,9.8010
3,3,1,2,1,13.057,13057,1.7000,9.6500,1.0900,9.8590,0.0109,0.0229,-0.0633,-10.81,83.88,351.06,1.5067,9.6474,0.9262,9.8082
3,3,1,2,1,13.187,13187,1.7100,9.6600,1.1200,9.8739,0.0251,0.0022,-0.0109,-10.31,83.63,350.50,1.5335,9.6491,0.9517,9.8164
3,3,1,2,1,13.317,13317,1.4300,9.7100,1.1100,9.8773,-0.0011,-0.0131,0.0098,-10.31,83.56,350.50,1.5199,9.6571,0.9726,9.8242
3,3,1,2,1,13.447,13447,1.9400,9.5900,1.0300,9.8383,0.0033,-0.0120,0.2040,-11.56,83.44,351.81,1.5752,9.6483,0.9801,9.8250
3,3,1,2,1,13.577,13577,2.1700,9.6000,1.4300,9.9455,-0.0393,0.0065,0.1876,-12.63,83.69,352.94,1.6536,9.6419,1.0394,9.8377
3,3,1,2,1,13.707,13707,2.4700,10.1700,1.1600,10.5297,-0.0556,-0.0382,-0.0764,-14.00,84.19,354.44,1.7612,9.7115,1.0553,9.9262
3,3,1,2,1,13.837,13837,1.0000,7.6800,0.3300,7.7519,-0.0938,-0.0742,-0.1909,-12.75,84.69,353.81,1.6609,9.4438,0.9597,9.6366
3,3,1,2,1,13.968,13968,5.4600,11.5300,0.6700,12.7750,-0.0894,-0.0273,0.2531,-14.38,85.25,355.69,2.1615,9.7187,0.9215,9.9987
3,3,1,2,1,14.141,14141,1.4700,9.0300,0.7700,9.1812,0.0109,-0.0196,0.0611,-11.44,85.38,353.44,2.0704,9.6280,0.9016,9.8892
3,3,1,2,1,14.274,14274,3.4400,10.2900,0.8700,10.8846,-0.0502,-0.0654,-0.4243,-11.06,85.38,353.31,2.2509,9.7152,0.8974,10.0128
3,4,1,2,1,14.405,14405,2.6500,9.4000,0.3700,9.7734,-0.0665,-0.0316,-0.2705,-7.25,85.56,350.00,2.3035,9.6737,0.8279,9.9785
3,4,1,2,1,14.539,14539,-4.5300,9.4900,0.8700,10.5517,0.0840,-0.0840,-0.9250,-3.13,85.38,346.25,1.4030,9.6495,0.8335,9.7865
3,4,1,2,1,14.670,14670,-0.2400,8.7800,0.3300,8.7895,0.1211,-0.0524,-0.8236,-1.06,84.44,344.31,1.1865,9.5349,0.7671,9.6390
3,4,1,2,1,14.801,14801,-0.8500,12.6300,-0.0700,12.6588,-0.0327,0.0796,-0.1669,-0.50,84.44,343.31,0.9181,9.9427,0.6568,10.0066
3,4,1,2,1,14.931,14931,-2.7800,5.0600,1.0500,5.8681,0.0109,0.1909,1.6624,5.88,84.63,337.00,0.4308,9.2993,0.7086,9.3362
3,4,1,2,1,15.061,15061,-0.2300,12.8600,-0.1700,12.8632,0.0905,0.0654,-0.0807,-1.75,84.44,343.63,0.3437,9.7685,0.5928,9.7925
3,4,1,2,1,15.234,15234,-1.7500,8.9200,1.5000,9.2130,0.0916,0.1189,0.8498,0.94,84.38,340.50,0.0678,9.6567,0.7124,9.6832
3,4,1,2,1,15.365,15365,0.9900,9.6400,1.1200,9.7552,0.0284,-0.0076,-0.4145,-1.19,84.31,342.25,0.1893,9.6545,0.7661,9.6867
3,4,1,2,1,15.495,15495,1.4200,9.8300,0.7000,9.9567,-0.0175,0.0338,0.5749,-0.81,84.13,341.88,0.3515,9.6776,0.7574,9.7136
3,4,1,2,1,15.626,15626,0.6600,9.4100,1.1400,9.5018,0.0131,-0.0502,0.0360,-2.00,83.94,343.19,0.3922,9.6424,0.8078,9.6841
3,4,1,2,1,15.757,15757,0.1000,9.6100,0.8600,9.6489,0.0011,-0.0644,0.0371,-1.50,84.06,343.19,0.3537,9.6381,0.8147,9.6789
3,4,1,2,1,15.887,15887,0.0300,9.7100,0.7400,9.7382,-0.0022,-0.0840,-0.0796,-1.63,84.00,343.81,0.3110,9.6476,0.8048,9.6861
3,4,1,2,1,16.018,16018,0.6300,9.4700,0.7700,9.5221,0.0044,-0.0480,0.1953,-2.38,83.94,345.06,0.3530,9.6242,0.8002,9.6638
3,4,1,2,1,16.148,16148,-0.2200,9.5200,1.0500,9.5803,-0.0480,-0.0502,-0.1898,-2.56,84.13,345.56,0.2775,9.6104,0.8332,9.6505
3,4,1,2,1,16.321,16321,-0.5500,8.1200,0.5700,8.1585,0.0185,0.0447,0.6578,-2.19,84.13,345.50,0.1685,9.4140,0.7985,9.4494
3,4,1,2,1,16.455,16455,0.4400,9.0900,-0.0700,9.1009,-0.2869,0.0360,-0.2149,-1.69,85.75,344.88,0.2043,9.3713,0.6840,9.3985
3,4,1,2,1,16.586,16586,4.4800,11.4800,1.9700,12.4797,0.0120,0.1331,0.9599,-4.06,87.00,346.63,0.7677,9.6492,0.8535,9.7173
3,4,1,2,1,16.717,16717,-3.6600,9.8600,0.4900,10.5288,0.3545,0.0589,0.4222,-5.38,85.00,347.44,0.1842,9.6770,0.8056,9.7122
3,4,1,2,1,16.847,16847,1.3000,7.6400,0.8900,7.8007,0.0873,-0.0098,-0.6305,-4.44,83.00,346.25,0.3313,9.4086,0.8167,9.4498
3,4,1,2,1,16.978,16978,-0.6700,8.7600,1.9600,9.0016,0.1080,0.1113,0.5465,-3.13,82.44,344.56,0.1993,9.3231,0.9674,9.3753
3,4,1,2,1,17.108,17108,-2.0700,10.4100,0.9000,10.6519,0.1014,0.0349,0.1429,-6.13,81.81,347.00,-0.0997,9.4663,0.9585,9.5153
3,4,1,2,1,17.239,17239,1.9900,10.4200,1.6600,10.7374,0.1211,0.0185,0.1473,-8.88,81.00,349.31,0.1757,9.5920,1.0509,9.6510
3,4,1,2,1,17.412,17412,1.2800,8.5100,1.6600,8.7644,0.0938,-0.0545,-0.1604,-8.50,80.19,349.00,0.3212,9.4494,1.1312,9.5223
3,4,1,2,1,17.542,17542,1.5400,9.1000,1.1300,9.2983,-0.0611,-0.0382,0.2367,-9.69,79.94,350.50,0.4818,9.4034,1.1310,9.4834
3,4,1,2,1,17.673,17673,3.4600,10.3000,1.3900,10.9542,-0.1680,-0.0229,0.0840,-11.50,80.69,352.63,0.8742,9.5215,1.1652,9.6323
3,4,1,2,1,17.803,17803,0.9100,9.8600,1.7100,10.0485,-0.1353,-0.0480,-0.1800,-9.44,82.00,351.13,0.8790,9.5661,1.2370,9.6857
3,4,1,2,1,17.936,17936,1.2400,10.1300,0.7200,10.2310,0.0153,-0.0545,-0.0305,-9.19,82.19,351.31,0.9265,9.6404,1.1688,9.7551
3,4,1,2,1,18.067,18067,1.1800,10.2500,1.0900,10.3751,0.0251,0.0175,0.0305,-9.25,81.94,351.44,0.9599,9.7208,1.1584,9.8365
3,4,1,2,1,18.201,18201,1.4700,10.2800,1.2700,10.4619,0.0338,0.0731,0.0295,-9.94,81.81,351.69,1.0271,9.7945,1.1731,9.9178
3,4,1,2,1,18.332,18332,1.7000,9.8800,1.4600,10.1309,0.0240,0.0949,0.1985,-11.06,81.75,352.13,1.1158,9.8057,1.2109,9.9430
3,4,1,2,1,18.505,18505,2.5600,9.9700,1.9000,10.4673,-0.0796,0.1124,0.2945,-13.00,82.44,353.25,1.3061,9.8274,1.3017,9.9989
3,5,1,2,1,18.638,18638,3.3300,9.3200,1.0700,9.9547,-0.0709,0.0229,-0.0480,-14.94,83.06,354.81,1.5728,9.7605,1.2712,9.9678
3,5,1,2,1,18.769,18769,1.7800,9.4100,0.5300,9.5915,-0.2029,0.0251,-0.1353,-13.50,84.31,353.44,1.6001,9.7143,1.1735,9.9149
3,5,1,2,1,18.903,18903,2.1000,9.7500,1.0400,10.0277,-0.1364,-0.0076,-0.1756,-13.44,85.44,353.44,1.6660,9.7190,1.1559,9.9283
3,5,1,2,1,19.034,19034,2.2900,9.4500,0.8900,9.7642,-0.0480,-0.0513,-0.4418,-12.25,86.00,352.56,1.7482,9.6836,1.1209,9.9038
3,5,1,2,1,19.165,19165,1.1200,10.4500,0.4600,10.5199,0.0600,-0.0404,0.3054,-11.06,85.81,351.63,1.6654,9.7846,1.0338,9.9790
3,5,1,2,1,19.295,19295,-0.5200,7.7700,-0.1400,7.7886,0.2280,-0.1233,-0.1734,-8.63,84.50,349.94,1.3774,9.5191,0.8791,9.6583
3,5,1,2,1,19.425,19425,-2.5800,5.3200,0.8000,5.9665,0.0175,-0.2553,-1.9995,-1.81,84.06,344.19,0.8560,8.9658,0.8687,9.0483
3,5,1,2,1,19.598,19598,0.0000,12.6400,-0.1800,12.6413,-0.0731,-0.0142,0.5258,-5.50,83.81,348.13,0.7432,9.4499,0.7305,9.5072
3,5,1,2,1,19.729,19729,0.2500,7.2900,1.7000,7.4898,0.0600,-0.0676,-0.5640,-5.88,83.81,348.69,0.6782,9.1653,0.8583,9.2304
3,5,1,2,1,19.859,19859,0.0300,10.5800,0.7600,10.6073,-0.0742,-0.0033,0.0175,-6.50,84.13,349.38,0.5928,9.3517,0.8453,9.4086
3,5,1,2,1,19.991,19991,2.3300,9.2700,0.9600,9.6064,0.0415,-0.0120,0.0949,-7.56,84.19,350.38,0.8217,9.3410,0.8604,9.4164
3,5,1,2,1,20.122,20122,1.4400,9.2700,1.0300,9.4376,0.0415,-0.0153,0.0076,-7.75,83.81,350.69,0.9032,9.3316,0.8828,9.4167
3,5,1,2,1,20.257,20257,1.7000,9.3200,0.8600,9.5127,0.0153,0.0076,-0.0425,-7.50,83.81,350.44,1.0082,9.3301,0.8798,9.4255
3,5,1,2,1,20.388,20388,1.1800,9.7200,1.1600,9.8598,0.0491,0.0436,0.2411,-8.06,83.56,350.81,1.0308,9.3815,0.9167,9.4823
3,5,1,2,1,20.519,20519,2.2800,9.7400,0.7900,10.0344,0.0153,0.0404,0.1036,-9.00,83.31,351.44,1.1954,9.4287,0.9000,9.5467
3,5,1,2,1,20.691,20691,2.1400,8.8800,1.1700,9.2088,0.1124,0.0535,0.4701,-9.50,82.81,351.56,1.3199,9.3564,0.9356,9.4952
3,5,1,2,1,20.822,20822,1.3900,7.6800,1.3300,7.9173,0.1178,0.0480,0.4080,-11.56,82.06,353.25,1.3291,9.1355,0.9876,9.2843
3,5,1,2,1,20.952,20952,2.8000,9.3600,0.9200,9.8131,-0.0338,0.0055,-0.1484,-14.88,81.75,356.25,1.5230,9.1651,0.9787,9.3422
3,5,1,2,1,21.083,21083,2.1400,8.6500,2.4900,9.2521,0.0862,-0.0153,-0.1516,-14.44,82.00,355.75,1.6043,9.0972,1.1778,9.3124
3,5,1,2,1,21.213,21213,3.2800,9.7100,0.7400,10.2757,0.0589,0.0044,0.4974,-16.13,81.19,357.38,1.8251,9.1780,1.1201,9.4245
3,5,1,2,1,21.344,21344,3.7600,9.0800,1.0800,9.8869,-0.0273,0.0011,-0.0873,-17.88,80.88,359.06,2.0801,9.1650,1.1148,9.4640
3,5,1,2,1,21.475,21475,3.5200,10.4100,1.8700,11.1470,-0.0022,-0.0033,0.0589,-18.25,81.06,359.38,2.2698,9.3291,1.2143,9.6777
3,5,1,2,1,21.605,21605,1.4500,7.8400,1.2700,8.0735,0.0960,-0.0764,-0.2553,-16.63,80.44,358.06,2.1618,9.1329,1.2217,9.4644
3,5,1,2,1,21.778,21778,0.7200,8.2600,2.1300,8.5605,-0.0022,-0.0938,-0.4167,-16.94,80.13,358.81,1.9718,9.0179,1.3414,9.3279
3,5,1,2,1,21.912,21912,2.0600,9.1300,1.5000,9.4790,-0.0393,-0.0360,-0.1658,-15.38,80.63,357.81,1.9834,9.0326,1.3623,9.3476
3,5,1,2,1,22.043,22043,1.8200,10.3600,1.1500,10.5813,-0.0894,0.0240,0.1025,-15.44,81.38,358.06,1.9619,9.2075,1.3343,9.5083
3,5,1,2,1,22.174,22174,3.5900,10.2000,1.0900,10.8681,-0.0338,0.0436,-0.5007,-15.13,81.88,357.38,2.1764,9.3383,1.3021,9.6766
3,5,1,2,1,22.304,22304,1.5500,9.2500,1.5300,9.5029,0.0731,0.0524,-0.2487,-12.13,81.94,354.00,2.0939,9.3267,1.3321,9.6512
3,5,1,2,1,22.435,22435,1.8300,10.6300,1.1500,10.8475,0.0720,0.0251,-0.2018,-11.25,81.50,352.69,2.0591,9.4984,1.3081,9.8067
3,5,1,2,1,22.565,22565,0.6300,8.7000,1.8000,8.9066,0.0622,0.0087,-0.1516,-9.38,81.19,350.75,1.8708,9.3932,1.3730,9.6756
3,5,1,2,1,22.696,22696,2.0400,10.3000,1.4200,10.5957,-0.0022,0.0175,0.2563,-11.06,81.06,352.19,1.8931,9.5127,1.3792,9.7968
3,5,1,2,1,22.869,22869,2.7000,9.7700,1.7200,10.2811,-0.0131,-0.0033,-0.0055,-12.56,81.19,353.63,1.9994,9.5466,1.4241,9.8572
3,5,1,2,1,23.003,23003,1.9500,9.6600,1.6800,9.9970,0.0142,0.0022,0.2280,-12.44,81.19,353.56,1.9929,9.5616,1.4578,9.8752
3,5,1,2,1,23.133,23133,2.0900,9.8900,0.7600,10.1370,0.0120,0.0000,0.2160,-13.94,81.06,355.13,2.0057,9.6048,1.3658,9.9066
3,5,1,2,1,23.267,23267,2.2300,9.5200,1.6600,9.9176,0.0469,-0.0251,-0.1025,-13.88,81.06,355.13,2.0353,9.5937,1.4046,9.9072
3,5,1,2,1,23.398,23398,3.1300,9.4800,1.0600,10.0395,0.0687,-0.0589,-0.3774,-14.13,80.44,355.44,2.1795,9.5787,1.3592,9.9171
3,5,1,2,1,23.529,23529,2.2200,11.2400,1.1100,11.5108,0.1571,-0.0229,0.1614,-13.63,79.81,354.88,2.1848,9.7976,1.3264,10.1255
3,5,1,2,1,23.659,23659,-1.8300,8.2100,2.5300,8.7837,-0.1385,0.0480,-0.0524,-8.31,80.13,349.69,1.6558,9.5884,1.4850,9.8430
3,5,1,2,1,23.789,23789,4.9500,10.6800,1.4800,11.8640,0.0469,-0.0393,-0.8978,-10.25,79.88,351.25,2.0899,9.7322,1.4843,10.0642
3,5,1,2,1,23.962,23962,12.4200,13.0800,2.0100,18.1489,-0.0600,0.2225,2.3071,-8.50,80.81,349.13,3.4511,10.1734,1.5536,10.8546
3,6,1,2,1,24.093,24093,-2.1800,7.4900,0.8400,7.8459,-0.0622,-0.1505,-2.2678,-4.00,80.69,344.75,2.7091,9.8198,1.4596,10.2907
3,6,1,2,1,24.223,24223,2.3700,9.3200,0.8600,9.6550,-0.1091,-0.0251,-0.2400,-2.69,80.63,343.50,2.6644,9.7539,1.3805,10.2051
3,6,1,2,1,24.354,24354,-3.4900,9.0900,1.1500,9.8046,-0.0589,0.0382,0.5934,-1.38,81.94,342.25,1.8534,9.6664,1.3502,9.9347
3,6,1,2,1,24.485,24485,-0.1300,9.6300,0.9700,9.6796,-0.0611,-0.0316,0.0982,-3.38,82.56,344.25,1.5921,9.6616,1.3001,9.8779
3,6,1,2,1,24.615,24615,1.9400,10.2100,0.5700,10.4083,-0.0982,-0.0611,0.1189,-4.50,83.06,345.75,1.6379,9.7339,1.2039,9.9439
3,6,1,2,1,24.746,24746,0.9600,9.2400,0.8300,9.3267,-0.0458,-0.0894,0.0316,-4.31,83.31,346.19,1.5486,9.6688,1.1546,9.8599
3,6,1,2,1,24.877,24877,1.2100,10.3200,0.3800,10.3976,-0.0600,-0.0905,0.0622,-5.19,83.50,347.75,1.5040,9.7546,1.0525,9.9258
3,6,1,2,1,25.051,25051,0.9300,9.3700,0.6200,9.4364,-0.0513,-0.0687,-0.0491,-4.88,83.69,348.25,1.4283,9.7039,0.9955,9.8589
3,6,1,2,1,25.184,25184,0.8100,10.0400,0.9900,10.1212,0.0022,-0.0382,-0.0098,-5.00,83.81,348.75,1.3468,9.7482,0.9948,9.8910
3,6,1,2,1,25.314,25314,1.3200,9.3700,0.9300,9.5081,-0.0044,-0.0098,0.0196,-5.13,83.75,349.06,1.3433,9.6984,0.9863,9.8405
3,6,1,2,1,25.445,25445,0.8600,9.7500,1.0200,9.8409,-0.0109,0.0251,0.0938,-5.31,83.88,349.25,1.2796,9.7052,0.9907,9.8392
3,6,1,2,1,25.575,25575,1.1900,9.7100,0.8200,9.8170,0.0415,0.0436,0.1767,-6.13,83.88,349.75,1.2678,9.7058,0.9682,9.8360
3,6,1,2,1,25.706,25706,1.2400,9.0100,0.6400,9.1174,-0.0131,0.0251,-0.0022,-6.69,83.81,350.06,1.2641,9.6141,0.9250,9.7409
3,6,1,2,1,25.836,25836,1.5100,10.1500,1.1000,10.3205,0.0142,0.0153,0.1898,-6.75,83.88,350.00,1.2965,9.6847,0.9480,9.8170
3,6,1,2,1,25.967,25967,2.1300,8.7600,1.8200,9.1971,0.0916,-0.0120,0.2476,-8.25,83.31,351.44,1.4064,9.5629,1.0629,9.7240
3,6,1,2,1,26.140,26140,-0.0800,7.3200,1.9100,7.5655,-0.0185,-0.0535,-0.0622,-10.81,82.38,354.25,1.2105,9.2673,1.1746,9.4196
3,6,1,2,1,26.270,26270,1.2000,9.1400,0.6800,9.2435,-0.0142,0.0251,0.2411,-13.00,82.81,356.50,1.2091,9.2506,1.1094,9.3950
3,6,1,2,1,26.401,26401,6.0300,10.2200,1.7300,11.9918,0.1974,0.0349,0.5072,-16.81,82.31,359.88,1.8444,9.3783,1.1912,9.6319
3,6,1,2,1,26.531,26531,0.6000,7.4800,1.5800,7.6686,0.0556,-0.0513,-0.4494,-16.44,81.44,359.44,1.6804,9.1282,1.2424,9.3643
3,6,1,2,1,26.663,26663,2.7300,9.2600,0.5500,9.6697,-0.0589,0.0480,-0.0982,-16.81,81.44,359.56,1.8187,9.1455,1.1512,9.3954
3,6,1,2,1,26.794,26794,3.4200,9.9400,2.5100,10.8074,0.0927,0.0873,0.2694,-18.25,81.63,0.44,2.0297,9.2502,1.3302,9.5633
3,6,1,2,1,26.929,26929,3.3500,8.5700,1.9300,9.4017,0.0349,0.0044,-0.0753,-18.44,81.19,0.25,2.2037,9.1606,1.4093,9.5267
3,6,1,2,1,27.060,27060,2.1500,9.7300,0.8100,9.9976,-0.0229,-0.0109,0.0938,-17.94,80.94,359.75,2.1966,9.2356,1.3303,9.5860
3,6,1,2,1,27.233,27233,2.4000,8.5400,1.6800,9.0285,-0.1473,-0.0622,-0.7450,-13.31,82.13,355.88,2.2234,9.1440,1.3764,9.5105
3,6,1,2,1,27.364,27364,0.1700,9.7400,1.6100,9.8736,-0.1702,-0.0589,-0.8170,-6.81,83.56,349.94,1.9528,9.2225,1.4072,9.5314
3,6,1,2,1,27.495,27495,1.7800,12.1700,0.6300,12.3156,0.0382,0.0142,-0.0120,-3.88,84.06,347.13,1.9301,9.6109,1.3048,9.8892
3,6,1,2,1,27.625,27625,-0.4600,8.5100,1.0700,8.5893,0.1931,0.0687,0.2051,-3.50,83.38,346.50,1.6151,9.4658,1.2738,9.6868
3,6,1,2,1,27.756,27756,2.1700,10.0400,0.7300,10.2977,0.0818,0.0774,0.1189,-6.50,82.50,348.81,1.6882,9.5415,1.2022,9.7640
3,6,1,2,1,27.886,27886,1.6200,9.4200,1.5100,9.6768,0.0284,0.0971,0.4342,-8.25,82.06,349.94,1.6792,9.5255,1.2427,9.7519
3,6,1,2,1,28.022,28022,2.3800,9.4300,1.4200,9.8288,-0.0098,0.0545,0.6425,-11.94,82.00,353.13,1.7716,9.5129,1.2661,9.7589
3,6,1,2,1,28.152,28152,3.0900,9.2000,1.4800,9.8173,0.0153,-0.0153,-0.0709,-14.63,81.94,355.63,1.9453,9.4717,1.2943,9.7556
3,6,1,2,1,28.325,28325,1.5800,9.6900,1.3300,9.9076,0.0796,0.0371,0.4112,-13.75,81.94,354.88,1.8972,9.5004,1.2990,9.7747
3,6,1,2,1,28.455,28455,3.9700,9.5500,0.7300,10.3680,0.1036,0.0393,0.5651,-17.81,81.13,358.50,2.1703,9.5070,1.2240,9.8281
3,6,1,2,1,28.585,28585,3.6700,10.2100,1.5700,10.9626,0.0109,0.0327,0.0436,-19.00,80.81,359.44,2.3679,9.5996,1.2696,9.9685
3,6,1,2,1,28.715,28715,3.4000,9.6200,2.0400,10.4051,-0.0338,-0.0022,-0.3000,-19.00,81.00,359.25,2.5039,9.6023,1.3711,10.0177
3,7,1,2,1,28.846,28846,2.8700,8.7900,1.7900,9.4183,-0.0295,0.0371,0.1647,-19.00,81.13,359.19,2.5522,9.4953,1.4263,9.9352
3,7,1,2,1,28.976,28976,2.5300,8.1300,0.9300,8.5652,0.0251,-0.0109,-0.1069,-19.50,81.06,359.56,2.5493,9.3154,1.3609,9.7533
3,7,1,2,1,29.107,29107,2.9600,11.1700,0.8300,11.5853,0.1254,-0.0491,-0.6000,-21.00,80.94,0.75,2.6034,9.5597,1.2910,9.9916
3,7,1,2,1,29.237,29237,2.8400,8.3800,1.0100,8.9056,-0.1047,-0.0993,-0.7123,-16.00,80.94,356.25,2.6346,9.4043,1.2539,9.8465
3,7,1,2,1,29.410,29410,4.5800,10.2500,1.1800,11.2885,-0.1025,0.0153,0.2585,-17.13,81.00,357.81,2.8909,9.5157,1.2442,10.0227
3,7,1,2,1,29.540,29540,2.7800,9.7400,2.3600,10.4003,-0.1527,0.0578,0.7538,-15.19,82.19,356.06,2.8763,9.5453,1.3912,10.0658
3,7,1,2,1,29.670,29670,0.6000,10.1900,-0.1400,10.2086,-0.1822,-0.0884,-0.8465,-17.31,82.13,358.31,2.5763,9.6302,1.1894,10.0396
3,7,1,2,1,29.800,29800,3.0700,9.3800,2.2400,10.1206,0.0633,-0.0556,-0.1604,-14.00,82.50,355.50,2.6414,9.5973,1.3279,10.0423
3,7,1,2,1,29.930,29930,1.0300,9.8100,0.9500,9.9096,0.0404,-0.0207,0.2520,-12.25,82.38,354.25,2.4291,9.6253,1.2781,10.0090
3,7,1,2,1,30.060,30060,2.2500,6.5300,0.9600,6.9732,0.0349,-0.0415,-0.7199,-8.38,82.06,350.56,2.4055,9.2174,1.2362,9.6060
3,7,1,2,1,30.190,30190,-2.2000,8.9800,1.2800,9.3337,-0.0262,0.0862,0.4920,-6.31,82.38,348.31,1.7986,9.1861,1.2419,9.4426
3,7,1,2,1,30.321,30321,2.9900,10.5400,0.1400,10.9568,-0.0185,-0.0175,-0.0938,-8.88,82.31,350.56,1.9556,9.3645,1.0967,9.6292
3,7,1,2,1,30.494,30494,1.8300,9.5700,1.2100,9.8182,-0.0753,0.0000,0.2116,-8.50,81.94,350.25,1.9390,9.3916,1.1117,9.6539
3,7,1,2,1,30.628,30628,2.2300,10.3800,0.5900,10.6332,-0.0349,-0.0436,0.0360,-9.19,81.94,351.13,1.9774,9.5219,1.0429,9.7808
3,7,1,2,1,30.759,30759,1.3600,9.2400,1.4000,9.4439,-0.0371,-0.0513,0.0469,-8.63,82.00,351.00,1.8960,9.4847,1.0900,9.7336
3,7,1,2,1,30.892,30892,1.6400,10.1100,0.7800,10.2718,-0.0545,-0.0404,0.0360,-8.81,82.38,351.63,1.8623,9.5671,1.0491,9.8030
3,7,1,2,1,31.022,31022,1.5100,9.2800,1.2400,9.4835,-0.0120,-0.0196,0.1167,-9.19,82.50,352.25,1.8159,9.5293,1.0743,9.7600
3,7,1,2,1,31.154,31154,1.6500,9.4300,1.3400,9.6666,-0.0665,-0.0011,-0.0349,-9.44,82.88,352.63,1.7940,9.5162,1.1093,9.7472
3,7,1,2,1,31.284,31284,1.7700,9.6600,1.0900,9.8811,0.0360,0.0120,0.1276,-9.50,82.94,352.63,1.7908,9.5351,1.1068,9.7648
3,7,1,2,1,31.414,31414,1.6200,9.3900,0.9900,9.5800,0.0055,-0.0022,0.0076,-10.19,82.81,353.25,1.7683,9.5160,1.0914,9.7403
3,7,1,2,1,31.587,31587,1.6800,9.3600,1.3400,9.6035,0.0404,-0.0185,-0.0840,-9.81,82.69,352.94,1.7567,9.4955,1.1241,9.7218
3,7,1,2,1,31.717,31717,1.3000,9.2300,0.9400,9.3684,0.0513,0.0033,0.0447,-9.56,82.44,352.69,1.6965,9.4605,1.0999,9.6741
3,7,1,2,1,31.847,31847,2.2800,9.0900,1.3500,9.4683,0.0251,0.0240,0.1407,-10.81,82.06,353.75,1.7734,9.4117,1.1328,9.6440
3,7,1,2,1,31.977,31977,1.5600,8.7300,1.3900,8.9766,0.0611,0.0196,0.1080,-11.00,81.81,353.81,1.7453,9.3218,1.1667,9.5553
3,7,1,2,1,32.107,32107,2.6500,9.9000,1.0900,10.3063,0.0251,0.0011,0.1364,-12.00,81.50,354.69,1.8645,9.3980,1.1566,9.6507
3,7,1,2,1,32.237,32237,1.6300,8.4600,0.8500,8.6574,-0.1145,-0.0240,-0.2280,-11.25,81.88,354.06,1.8336,9.2744,1.1162,9.5196
3,7,1,2,1,32.367,32367,2.8100,10.2300,2.1300,10.8206,0.0436,-0.0142,0.4505,-13.44,82.06,356.31,1.9623,9.4003,1.2498,9.6839
3,7,1,2,1,32.498,32498,1.5400,8.1700,0.7500,8.3476,0.0862,-0.0851,-0.2945,-14.63,81.19,357.81,1.9066,9.2382,1.1839,9.5069
3,7,1,2,1,32.670,32670,2.6800,9.1600,2.0200,9.7554,0.0164,0.0153,0.4102,-18.13,81.00,1.25,2.0085,9.2279,1.2941,9.5322
3,7,1,2,1,32.800,32800,3.1800,8.7900,1.6300,9.4886,0.1560,-0.0731,0.1767,-20.25,79.88,3.44,2.1629,9.1702,1.3384,9.5164
3,7,1,2,1,32.930,32930,2.7700,8.1500,1.0500,8.6717,0.0065,0.0065,0.1222,-21.13,78.81,4.31,2.2429,9.0358,1.3004,9.4003
3,7,1,2,1,33.060,33060,5.0300,8.8700,1.8100,10.3563,-0.1364,0.0654,-0.0240,-22.06,79.44,5.06,2.6102,9.0139,1.3675,9.4833
3,7,1,2,1,33.190,33190,5.2700,10.5300,0.1900,11.7767,-0.1451,-0.0513,-0.0262,-21.88,80.19,4.94,2.9607,9.2137,1.2124,9.7533
3,7,1,2,1,33.320,33320,2.4400,7.2600,1.8700,7.8840,0.0273,-0.0360,-0.0894,-20.56,80.31,4.13,2.8921,8.9563,1.2990,9.5008
3,7,1,2,1,33.451,33451,5.2800,10.6900,2.2700,12.1370,-0.0742,0.0142,0.2553,-21.94,80.88,5.63,3.2067,9.1847,1.4270,9.8325
3,7,1,2,1,33.581,33581,2.9600,7.9500,2.1500,8.7514,0.0960,-0.0425,-0.2258,-20.88,80.63,4.75,3.1742,9.0220,1.5222,9.6845
3,7,1,2,1,33.754,33754,3.7400,8.7300,2.3400,9.7814,0.1211,-0.0262,-0.0044,-19.94,79.69,3.69,3.2488,8.9835,1.6300,9.6910
3,7,1,2,1,33.885,33885,3.6500,8.3500,1.7800,9.2851,-0.0480,-0.0044,-0.1374,-19.50,79.69,3.38,3.3016,8.9000,1.6498,9.6350
3,7,1,2,1,34.016,34016,2.8800,9.1000,1.5200,9.6651,-0.1538,-0.0076,-0.1800,-18.38,80.69,2.50,3.2461,8.9264,1.6327,9.6376
3,7,1,2,1,34.146,34146,2.8200,10.9500,1.7200,11.4374,-0.0796,0.0011,0.1047,-17.88,81.63,2.31,3.1899,9.1931,1.6442,9.8687
3,7,1,2,1,34.277,34277,3.2400,8.5400,0.9600,9.1843,-0.0371,0.0087,0.0687,-18.69,81.94,3.19,3.1965,9.1070,1.5540,9.7760
3,7,1,2,1,34.409,34409,3.3200,10.0300,1.1400,10.6265,-0.0175,0.0098,-0.0960,-18.56,82.25,3.19,3.2128,9.2286,1.4995,9.8863
3,7,1,2,1,34.544,34544,4.1100,10.3600,1.2500,11.2154,0.0316,0.0480,0.2029,-19.56,82.19,3.88,3.3310,9.3777,1.4666,10.0592
3,8,1,2,1,34.674,34674,3.0000,9.2800,0.7400,9.7809,-0.0316,0.0327,-0.1669,-18.94,82.06,2.88,3.2874,9.3648,1.3708,10.0193
3,8,1,2,1,34.847,34847,2.9600,9.7500,1.2500,10.2658,0.0240,0.1036,0.2989,-19.69,82.25,2.94,3.2443,9.4156,1.3549,10.0506
3,8,1,2,1,34.977,34977,2.7500,9.3100,1.7600,9.8659,0.0371,0.0447,-0.0698,-20.00,82.00,2.75,3.1791,9.4017,1.4083,10.0241
3,8,1,2,1,35.107,35107,5.5900,10.3500,0.0000,11.7631,0.0207,0.1091,0.4483,-20.56,82.00,2.75,3.4968,9.5266,1.2227,10.2215
3,8,1,2,1,35.237,35237,1.8700,8.5500,1.5300,8.8848,-0.0185,-0.0349,-0.6632,-20.06,82.25,2.06,3.2824,9.3979,1.2632,10.0345
3,8,1,2,1,35.367,35367,-2.2600,8.7800,0.9900,9.1201,-0.0960,0.0720,0.1516,-17.56,83.00,359.44,2.5521,9.3165,1.2272,9.7374
3,8,1,2,1,35.497,35497,3.4200,8.6200,1.4800,9.3910,0.0993,-0.0600,-0.2858,-20.00,82.38,1.88,2.6665,9.2247,1.2605,9.6848
3,8,1,2,1,35.628,35628,2.7700,9.7200,2.9900,10.5400,0.0654,-0.1124,-0.1385,-18.94,82.00,1.06,2.6801,9.2900,1.4884,9.7828
3,8,1,2,1,35.758,35758,-1.1100,6.0200,1.2400,6.2458,-0.0611,-0.0862,-0.9785,-16.06,81.50,358.88,2.1807,8.8591,1.4557,9.2389
3,8,1,2,1,35.931,35931,6.1000,10.2600,1.4400,12.0229,0.0305,-0.0971,-0.4222,-20.50,81.25,3.25,2.6971,9.0437,1.4536,9.5486
3,8,1,2,1,36.061,36061,3.1700,8.2800,1.9300,9.0737,0.0447,0.0382,0.9610,-16.50,80.81,359.63,2.7594,8.9431,1.5164,9.4812
3,8,1,2,1,36.191,36191,2.2500,9.3600,-1.5400,9.7490,-0.2967,-0.0687,-1.7748,-13.69,81.13,357.06,2.6923,8.9980,1.1136,9.4580
3,8,1,2,1,36.321,36321,2.7700,9.6800,1.9600,10.2575,0.0567,0.1647,1.1148,-10.75,81.94,353.81,2.7026,9.0879,1.2252,9.5600
3,8,1,2,1,36.451,36451,0.5300,9.6300,1.6200,9.7797,0.2127,0.0698,0.1713,-11.88,81.00,354.31,2.4163,9.1593,1.2772,9.5584
3,8,1,2,1,36.581,36581,0.3200,7.3400,0.5000,7.3640,-0.1298,0.0840,-0.4712,-8.25,81.38,350.31,2.1400,8.9196,1.1748,9.2476
3,8,1,2,1,36.712,36712,3.0000,10.7000,2.9500,11.4975,0.0142,0.0371,0.3229,-10.81,81.44,352.19,2.2534,9.1542,1.4087,9.5321
3,8,1,2,1,36.842,36842,0.4100,8.2600,1.2800,8.3686,-0.0044,-0.0284,-0.2422,-10.81,80.94,352.19,2.0104,9.0364,1.3918,9.3613
3,8,1,2,1,37.015,37015,2.3100,10.3100,1.2500,10.6393,0.0022,-0.0600,0.0927,-11.19,81.19,352.94,2.0499,9.2042,1.3731,9.5291
3,8,1,2,1,37.146,37146,1.4800,8.0900,2.2200,8.5186,0.0458,-0.0600,-0.0185,-11.13,81.06,353.31,1.9748,9.0574,1.4847,9.3883
3,8,1,2,1,37.277,37277,1.5800,9.9700,1.1300,10.1575,-0.0611,-0.0360,0.0469,-11.19,81.31,353.75,1.9228,9.1776,1.4379,9.4865
3,8,1,2,1,37.407,37407,1.8100,9.4600,1.2100,9.7073,-0.0251,-0.0131,0.0175,-11.56,81.44,354.38,1.9079,9.2148,1.4079,9.5150
3,8,1,2,1,37.538,37538,1.8000,9.5800,1.2400,9.8262,-0.0055,0.0098,0.0469,-11.44,81.75,354.25,1.8937,9.2630,1.3858,9.5556
3,8,1,2,1,37.668,37668,1.8300,9.4400,1.2900,9.7019,0.0207,0.0262,0.0960,-11.81,81.81,354.50,1.8853,9.2863,1.3732,9.5747
3,8,1,2,1,37.799,37799,2.2400,9.3800,1.2300,9.7219,0.0338,0.0251,-0.0273,-12.19,81.69,354.69,1.9321,9.2986,1.3543,9.5933
3,8,1,2,1,37.930,37930,2.0400,9.4200,1.3500,9.7324,0.0382,0.0404,0.0491,-12.25,81.44,354.44,1.9463,9.3146,1.3537,9.6116
3,8,1,2,1,38.106,38106,1.9200,9.0900,1.4800,9.4077,0.0513,0.0142,-0.0862,-12.19,81.19,353.94,1.9428,9.2850,1.3704,9.5846
3,8,1,2,1,38.236,38236,1.7600,8.8200,1.4900,9.1165,0.0611,0.0262,0.1440,-12.31,80.75,353.88,1.9187,9.2237,1.3861,9.5226
3,8,1,2,1,38.367,38367,3.0400,9.8400,1.7700,10.4499,-0.0142,0.0305,0.2258,-14.00,80.56,355.31,2.0665,9.3050,1.4367,9.6393
3,8,1,2,1,38.498,38498,2.4600,9.4800,1.6800,9.9370,0.0065,0.0022,-0.0862,-13.88,80.63,355.19,2.1183,9.3280,1.4688,9.6776
3,8,1,2,1,38.628,38628,2.5000,8.6100,1.3300,9.0637,-0.0458,0.0567,0.3163,-14.00,80.69,355.13,2.1686,9.2334,1.4505,9.5949
3,8,1,2,1,38.758,38758,3.4600,10.1600,1.6800,10.8637,-0.0524,0.0644,0.4287,-17.13,81.06,357.94,2.3388,9.3555,1.4807,9.7564
3,8,1,2,1,38.889,38889,2.1100,7.9500,0.9300,8.2777,0.0415,-0.0349,-0.0633,-17.69,80.94,358.50,2.3086,9.1703,1.4082,9.5607
3,8,1,2,1,39.019,39019,2.7100,9.2800,1.2300,9.7455,-0.1364,0.0425,0.1974,-17.88,81.38,358.75,2.3615,9.1848,1.3847,9.5840
3,8,1,2,1,39.192,39192,3.6500,10.6500,0.8100,11.2872,0.0447,-0.0109,0.3262,-20.19,81.31,1.00,2.5313,9.3778,1.3090,9.8013
3,8,1,2,1,39.322,39322,3.4900,9.4500,0.5200,10.0873,0.0502,0.0076,0.1582,-21.06,80.75,1.75,2.6577,9.3873,1.2050,9.8304
3,8,1,2,1,39.452,39452,3.8600,10.1300,1.6000,10.9579,0.0949,-0.0447,0.1789,-22.50,80.31,3.19,2.8161,9.4852,1.2570,9.9740
3,9,1,2,1,39.582,39582,2.8200,7.7700,0.5200,8.2823,0.0240,-0.0742,-0.3174,-22.38,79.50,3.31,2.8166,9.2592,1.1599,9.7474
3,9,1,2,1,39.712,39712,4.3600,9.4500,2.1900,10.6352,-0.0055,0.0284,0.0949,-22.75,79.56,3.63,3.0200,9.2843,1.2957,9.8487
3,9,1,2,1,39.842,39842,4.1500,8.9800,1.2600,9.9725,-0.0600,0.0393,-0.1145,-22.63,80.00,3.38,3.1689,9.2442,1.2910,9.8572
3,9,1,2,1,39.972,39972,3.4900,9.6000,0.6500,10.2354,0.0087,-0.0120,-0.0764,-21.63,80.50,2.44,3.2112,9.2911,1.2065,9.9042
3,9,1,2,1,40.103,40103,3.7600,9.5700,1.1400,10.3451,-0.0774,0.0076,-0.0436,-21.38,80.94,2.31,3.2835,9.3279,1.1977,9.9612
3,9,1,2,1,40.276,40276,3.7700,9.6900,1.3000,10.4785,0.0218,-0.0305,-0.0513,-20.69,81.25,1.81,3.3476,9.3756,1.2112,10.0287
3,9,1,2,1,40.407,40407,3.1200,9.2400,1.4400,9.8583,0.0295,-0.0382,-0.0469,-19.88,80.94,1.19,3.3176,9.3577,1.2414,10.0057
3,9,1,2,1,40.538,40538,3.6600,9.1500,1.2400,9.9326,-0.0065,-0.0109,0.1974,-20.69,80.81,2.19,3.3627,9.3303,1.2412,9.9952
3,9,1,2,1,40.668,40668,3.4100,8.9500,1.6100,9.7120,-0.0207,-0.0033,-0.0611,-20.56,80.94,2.13,3.3690,9.2802,1.2898,9.9567
3,9,1,2,1,40.799,40799,3.4700,10.0600,1.4400,10.7386,0.0076,0.0153,0.1549,-20.63,81.06,2.19,3.3823,9.3830,1.3096,10.0596
3,9,1,2,1,40.932,40932,3.5200,8.7400,1.5800,9.5538,0.0316,0.0153,0.0665,-21.38,80.94,2.81,3.4004,9.2983,1.3452,9.9915
3,9,1,2,1,41.066,41066,3.7800,9.0600,1.5400,9.9370,0.0065,0.0098,0.0415,-22.25,80.81,3.56,3.4505,9.2669,1.3709,9.9830
3,9,1,2,1,41.196,41196,4.2700,9.2000,1.6700,10.2792,-0.0196,-0.0404,-0.2214,-22.38,80.81,3.75,3.5584,9.2580,1.4103,10.0181
3,9,1,2,1,41.369,41369,2.9100,8.6100,1.1100,9.1560,-0.0556,-0.0327,0.0742,-21.25,81.13,3.13,3.4730,9.1726,1.3707,9.9034
3,9,1,2,1,41.499,41499,4.7400,10.0000,1.4600,11.1624,-0.0622,-0.0360,0.0327,-21.88,81.38,4.13,3.6400,9.2817,1.3825,10.0653
3,9,1,2,1,41.629,41629,3.1400,8.8500,0.9600,9.4395,-0.0851,-0.0316,-0.1822,-20.81,81.81,3.50,3.5741,9.2248,1.3268,9.9815
3,9,1,2,1,41.759,41759,1.8900,9.3900,1.0100,9.6314,-0.0142,0.0164,0.1047,-20.94,82.19,3.75,3.3522,9.2466,1.2851,9.9190
3,9,1,2,1,41.889,41889,4.9400,9.9400,0.6100,11.1166,-0.0273,0.0753,0.1320,-22.88,82.25,5.38,3.5614,9.3379,1.1961,10.0654
3,9,1,2,1,42.019,42019,1.4500,7.5700,1.7300,7.8994,0.0262,0.0338,-0.6316,-20.81,82.50,2.81,3.2832,9.1050,1.2665,9.7613
3,9,1,2,1,42.150,42150,5.6000,8.2100,0.1000,9.9385,0.0807,0.0262,-0.3294,-21.94,81.75,3.25,3.5885,8.9870,1.1128,9.7407
3,9,1,2,1,42.280,42280,4.4100,12.2700,2.6300,13.3010,0.0131,0.0982,-0.3480,-19.88,82.38,0.38,3.6967,9.4196,1.3127,10.2039
3,9,1,2,1,42.453,42453,-1.3000,5.5000,1.7400,5.9133,0.1113,0.0240,-0.5214,-13.19,82.19,353.38,3.0383,8.9031,1.3690,9.5064
3,10,1,2,1,42.583,42583,4.4300,9.9500,1.3400,10.9737,0.0698,-0.0556,-0.2083,-15.75,81.50,355.63,3.2217,9.0411,1.3652,9.6945
3,10,1,2,1,42.713,42713,3.2700,10.4700,1.6700,11.0952,-0.0796,0.0393,0.1407,-14.25,81.63,354.19,3.2280,9.2294,1.4053,9.8781
3,10,1,2,1,42.843,42843,1.6400,9.3900,0.2000,9.5342,-0.0884,-0.0316,-0.3949,-12.88,82.25,353.00,3.0188,9.2505,1.2465,9.8102
3,10,1,2,1,42.973,42973,0.3800,7.9800,1.6300,8.1536,0.0011,-0.0327,-0.3163,-10.25,82.56,350.63,2.6711,9.0831,1.2970,9.5561
3,10,1,2,1,43.103,43103,1.3200,8.5100,0.3200,8.6177,0.0905,-0.0884,0.0327,-10.38,82.13,351.00,2.4930,9.0076,1.1683,9.4190
3,10,1,2,1,43.233,43233,1.5800,9.0300,1.0400,9.2260,-0.1025,-0.0316,0.2149,-11.50,82.00,352.63,2.3727,9.0106,1.1514,9.3886
3,10,1,2,1,43.364,43364,1.3300,9.4800,0.6700,9.5963,-0.0382,-0.0829,-0.0654,-11.31,82.44,353.13,2.2353,9.0724,1.0880,9.4069
3,10,1,2,1,43.537,43537,3.0900,9.5700,1.2200,10.1302,-0.0884,-0.0262,0.0207,-11.75,82.63,354.13,2.3479,9.1380,1.1054,9.4993
3,10,1,2,1,43.671,43671,1.3100,9.2300,1.2900,9.4113,-0.0033,0.0098,0.0109,-10.94,83.06,353.44,2.2112,9.1501,1.1297,9.4810
3,10,1,2,1,43.802,43802,2.0500,9.9200,0.7100,10.1545,-0.0131,0.0524,0.0665,-11.75,83.13,354.06,2.1899,9.2516,1.0744,9.5677
3,10,1,2,1,43.935,43935,2.3400,9.6500,0.6700,9.9522,-0.0022,0.0415,-0.0153,-11.63,83.25,353.50,2.2097,9.3041,1.0211,9.6172
3,10,1,2,1,44.066,44066,2.0800,9.6200,1.0200,9.8950,0.0633,0.0360,0.0513,-11.94,83.00,353.50,2.1926,9.3457,1.0210,9.6536
3,10,1,2,1,44.197,44197,1.9800,9.0400,1.0600,9.3148,0.0709,0.0251,0.1222,-12.19,82.63,353.50,2.1646,9.3054,1.0261,9.6088
3,10,1,2,1,44.327,44327,1.9600,8.6700,1.0100,8.9460,0.0338,0.0055,0.1014,-13.13,82.13,354.19,2.1376,9.2217,1.0240,9.5214
3,10,1,2,1,44.458,44458,2.6800,9.2700,1.4300,9.7550,-0.0262,0.0316,0.3283,-15.25,82.06,356.13,2.2091,9.2280,1.0775,9.5498
3,10,1,2,1,44.631,44631,2.8100,8.9800,1.4200,9.5159,0.0578,-0.0251,0.2913,-17.31,81.63,358.31,2.2883,9.1954,1.1226,9.5421
3,10,1,2,1,44.762,44762,3.5200,9.1700,1.3100,9.9094,0.0742,-0.0600,0.1876,-18.81,80.94,0.13,2.4506,9.1920,1.1473,9.5820
3,10,1,2,1,44.894,44894,1.8400,9.0600,1.5100,9.3675,-0.0065,-0.0327,-0.0360,-18.06,80.88,359.69,2.3701,9.1746,1.1951,9.5509
3,10,1,2,1,45.029,45029,2.9600,8.7700,2.4000,9.5621,0.1025,-0.0338,0.1593,-20.06,80.50,1.63,2.4479,9.1213,1.3539,9.5406
3,10,1,2,1,45.159,45159,4.0300,8.7800,1.4900,9.7749,0.0502,-0.0055,0.2062,-21.44,79.69,2.94,2.6563,9.0763,1.3718,9.5560
3,10,1,2,1,45.290,45290,2.7200,8.6700,1.7400,9.2518,-0.0589,0.0753,-0.1396,-20.00,80.06,1.44,2.6647,9.0228,1.4203,9.5147
3,10,1,2,1,45.421,45421,3.3800,9.7000,1.5300,10.3853,0.0185,0.0807,0.1811,-20.75,80.44,1.56,2.7590,9.1120,1.4348,9.6281
3,10,1,2,1,45.552,45552,4.2300,9.6800,1.3400,10.6485,0.1254,0.0360,0.2618,-22.94,79.88,3.19,2.9528,9.1869,1.4223,9.7540
3,10,1,2,1,45.724,45724,4.2400,8.3200,1.7700,9.5044,0.0894,-0.0284,-0.0371,-24.38,78.81,4.25,3.1224,9.0726,1.4681,9.7066
3,10,1,2,1,45.855,45855,4.5900,8.5400,1.7300,9.8485,-0.0196,-0.0164,0.1407,-24.25,78.63,4.25,3.3158,9.0025,1.5026,9.7107
3,10,1,2,1,45.985,45985,4.7700,8.2800,2.5600,9.8927,0.0175,-0.0840,-0.1200,-24.75,78.44,5.13,3.5075,8.9072,1.6420,9.7127
3,10,1,2,1,46.116,46116,3.3700,9.0200,2.0400,9.8427,-0.0633,-0.1440,-0.2182,-22.38,78.19,3.56,3.4893,8.9221,1.6944,9.7289
3,10,1,2,1,46.246,46246,3.3100,9.0900,1.7200,9.8256,-0.0829,-0.0469,0.1254,-22.19,78.31,4.19,3.4657,8.9442,1.6978,9.7413
3,10,1,2,1,46.377,46377,3.2300,8.6500,1.8500,9.4169,-0.1342,-0.0120,-0.1756,-21.56,79.25,4.06,3.4346,8.9055,1.7178,9.6982
3,10,1,2,1,46.508,46508,3.3800,9.5800,1.6100,10.2856,-0.0753,-0.0022,-0.1691,-20.50,80.13,3.31,3.4274,8.9943,1.7036,9.7749
3,10,1,2,1,46.638,46638,2.9300,9.7700,1.3400,10.2875,0.0022,0.0207,-0.0360,-19.56,80.44,2.38,3.3619,9.0966,1.6557,9.8382
3,10,1,2,1,46.811,46811,3.1900,9.4200,1.4000,10.0435,0.0589,0.0654,0.0196,-19.56,80.31,1.81,3.3392,9.1392,1.6220,9.8644
3,10,1,2,1,46.945,46945,3.2400,8.9500,1.7700,9.6816,0.0676,0.0785,0.1680,-20.13,80.06,1.75,3.3262,9.1143,1.6415,9.8401
3,10,1,2,1,47.076,47076,3.1400,8.4200,2.1600,9.2424,0.0382,0.0720,0.3556,-22.50,79.69,3.50,3.3016,9.0228,1.7098,9.7588
3,10,1,2,1,47.207,47207,5.3100,9.2400,1.2300,10.7278,-0.0458,0.0578,0.1636,-25.69,79.75,6.19,3.5663,9.0514,1.6466,9.8670
3,10,1,2,1,47.337,47337,4.3900,8.8200,1.3300,9.9415,-0.0818,0.0273,-0.1494,-25.81,80.44,6.19,3.6748,9.0209,1.6049,9.8720
3,10,1,2,1,47.467,47467,3.2900,8.0800,1.8300,8.9140,-0.0207,0.0415,0.0851,-25.38,80.94,5.75,3.6241,8.8969,1.6346,9.7448
3,10,1,2,1,47.598,47598,4.9000,9.5700,0.5200,10.7641,0.0087,0.0098,0.0436,-27.88,80.63,7.88,3.7922,8.9856,1.4877,9.8659
3,10,1,2,1,47.728,47728,4.4500,8.1000,0.9400,9.2896,-0.0393,-0.0218,-0.0654,-27.56,80.69,7.63,3.8789,8.8689,1.4155,9.7830
3,10,1,2,1,47.901,47901,6.0100,9.6300,1.3900,11.4363,-0.0491,0.0109,-0.0284,-26.69,81.44,6.94,4.1597,8.9692,1.4122,9.9872
3,10,1,2,1,48.032,48032,4.0500,9.0500,0.5600,9.9307,0.0982,-0.1124,-0.6840,-22.56,81.69,3.31,4.1453,8.9798,1.2999,9.9755
3,10,1,2,1,48.163,48163,0.9700,9.3400,0.5000,9.4035,-0.0316,-0.0491,-0.5651,-22.13,81.13,3.13,3.7269,9.0273,1.1945,9.8391
3,10,1,2,1,48.293,48293,5.8800,10.4100,2.3000,12.1751,-0.1593,0.0022,-0.3371,-22.00,81.88,2.94,4.0106,9.2095,1.3401,10.1339
3,10,1,2,1,48.424,48424,5.7600,10.5600,-1.0900,12.0781,-0.0982,-0.0753,-0.7865,-15.38,82.56,356.81,4.2411,9.3875,1.0199,10.3514
3,11,1,2,1,48.554,48554,-2.3600,4.5200,1.3900,5.2851,-0.0327,-0.0076,-0.8225,-4.13,83.56,346.19,3.3713,8.7461,1.0687,9.4340
3,11,1,2,1,48.688,48688,-1.1800,11.7700,1.0600,11.8764,0.1734,-0.0305,-0.1811,-9.75,83.25,351.19,2.7715,9.1445,1.0675,9.6148
3,11,1,2,1,48.818,48818,0.5500,9.0400,0.1900,9.0587,0.0087,-0.0382,-0.3502,-8.19,82.88,349.94,2.4788,9.1308,0.9519,9.5090
3,11,1,2,1,48.993,48993,-0.4500,10.0200,1.2100,10.1028,0.0993,-0.0175,0.1025,-8.00,82.19,349.81,2.0928,9.2479,0.9859,9.5329
3,11,1,2,1,49.123,49123,1.5100,10.6200,0.0100,10.7268,-0.0535,-0.0044,0.2094,-8.38,81.56,350.25,2.0160,9.4287,0.8573,9.6799
3,11,1,2,1,49.254,49254,1.0100,8.5100,2.0900,8.8209,-0.0098,0.0087,0.0098,-8.81,81.44,350.69,1.8835,9.3077,1.0197,9.5509
3,11,1,2,1,49.384,49384,1.4700,9.6700,1.4700,9.8909,-0.0164,0.0295,0.1287,-9.44,81.38,351.13,1.8290,9.3554,1.0791,9.5934
3,11,1,2,1,49.515,49515,1.9500,9.1000,1.5400,9.4331,-0.0502,0.0196,-0.0676,-9.94,81.63,351.44,1.8449,9.3218,1.1398,9.5707
3,11,1,2,1,49.645,49645,1.8400,9.7700,1.3600,10.0343,0.0371,0.0000,0.0960,-10.19,81.69,351.63,1.8443,9.3808,1.1688,9.6316
3,11,1,2,1,49.775,49775,1.8400,9.1300,1.1900,9.3893,0.0153,-0.0164,-0.0273,-10.56,81.56,352.00,1.8437,9.3478,1.1716,9.5996
3,11,1,2,1,49.921,49921,1.7000,9.3900,1.4100,9.6463,0.0251,0.0022,0.0905,-10.44,81.44,351.94,1.8248,9.3533,1.2030,9.6053
3,11,1,2,1,50.096,50096,1.5800,9.2600,1.5500,9.5208,0.0742,0.0011,0.0644,-10.56,81.31,352.06,1.7925,9.3410,1.2488,9.5931
3,11,1,2,1,50.226,50226,1.9500,9.4500,1.6000,9.7808,-0.0065,-0.0011,0.2323,-12.19,80.75,353.56,1.8133,9.3554,1.2950,9.6171
3,11,1,2,1,50.357,50357,1.2300,8.5300,1.2900,8.7142,0.0436,-0.0087,-0.0567,-11.81,80.50,353.31,1.7364,9.2466,1.2944,9.4969
3,11,1,2,1,50.488,50488,3.0400,8.9600,2.2000,9.7141,-0.0338,0.0436,0.6010,-14.69,80.44,356.06,1.9082,9.2089,1.4137,9.5101
3,11,1,2,1,50.618,50618,2.8300,8.9100,1.1700,9.4216,0.0087,0.0273,0.3862,-18.13,80.25,359.25,2.0297,9.1695,1.3816,9.4925
3,11,1,2,1,50.748,50748,2.7300,8.8900,1.5200,9.4231,0.0480,0.0578,0.2956,-21.31,80.25,2.13,2.1220,9.1327,1.3998,9.4798
3,11,1,2,1,50.879,50879,4.4900,9.3300,1.3300,10.4392,-0.0164,0.0753,0.4407,-24.31,80.44,4.69,2.4340,9.1587,1.3906,9.5781
3,11,1,2,1,51.009,51009,3.5000,9.2500,1.3600,9.9831,0.0295,-0.0273,-0.1953,-24.94,80.50,5.25,2.5745,9.1707,1.3866,9.6256
3,11,1,2,1,51.182,51182,4.0100,8.3300,0.7800,9.2778,-0.0011,-0.0393,-0.0425,-24.38,80.38,5.00,2.7636,9.0599,1.3067,9.5617
3,11,1,2,1,51.312,51312,5.8700,10.1300,1.0500,11.7548,-0.1309,0.0120,0.1844,-24.94,80.69,5.81,3.1730,9.2009,1.2728,9.8155
3,11,1,2,1,51.442,51442,4.1500,9.0800,1.8000,10.1444,-0.0360,-0.0535,-0.2105,-21.63,80.88,2.88,3.3017,9.1850,1.3423,9.8523
3,11,1,2,1,51.572,51572,1.8000,9.0500,1.4000,9.3329,-0.0644,-0.0044,0.1287,-17.38,80.94,359.06,3.1038,9.1672,1.3499,9.7721
3,11,1,2,1,51.702,51702,3.2300,9.6500,1.8100,10.3359,0.0044,-0.0404,-0.7603,-15.25,81.13,357.06,3.1205,9.2308,1.4105,9.8456
3,11,1,2,1,51.832,51832,-1.4900,9.3800,1.8600,9.6780,-0.1222,-0.0447,-0.7941,-10.56,81.69,352.63,2.5129,9.2505,1.4698,9.6977
3,11,1,2,1,51.962,51962,-0.6300,9.7100,0.0900,9.7308,0.0098,-0.0240,-0.1418,-7.06,82.06,349.44,2.0988,9.3110,1.2879,9.6311
3,11,1,2,1,52.093,52093,-0.0600,8.7700,2.0800,9.0135,-0.0153,0.0622,0.7985,-7.00,82.50,349.44,1.8143,9.2397,1.3923,9.5186
3,11,1,2,1,52.266,52266,0.8000,9.3800,1.3700,9.5132,0.0131,0.0065,-0.0665,-7.88,82.94,350.19,1.6806,9.2582,1.3894,9.5115
3,11,1,2,1,52.398,52398,1.7300,9.9800,1.3100,10.2132,0.0829,0.0349,0.2029,-8.56,82.75,350.63,1.6871,9.3533,1.3789,9.6038
3,11,1,2,1,52.529,52529,0.5300,9.9500,0.6100,9.9828,0.0229,-0.0076,-0.3851,-8.00,82.31,349.94,1.5347,9.4320,1.2776,9.6410
3,11,1,2,1,52.664,52664,1.2200,10.1200,1.7800,10.3475,0.0851,0.0567,0.2083,-6.38,82.00,348.19,1.4932,9.5226,1.3438,9.7322
3,11,1,2,1,52.795,52795,2.6800,10.8300,1.2700,11.2287,0.0851,-0.0065,-0.4167,-8.50,81.44,349.81,1.6496,9.6949,1.3341,9.9243
3,11,1,2,1,52.926,52926,0.9600,10.4400,0.6400,10.5036,0.1527,0.0218,0.0698,-6.94,81.00,348.06,1.5587,9.7931,1.2426,9.9939
3,12,1,2,1,53.056,53056,-0.4300,9.9600,0.6600,9.9911,-0.0513,-0.0829,-0.7516,-4.63,80.94,346.00,1.2967,9.8151,1.1658,9.9688
3,12,1,2,1,53.186,53186,-1.0200,9.5700,0.3000,9.6289,-0.0305,-0.0764,-0.0938,-1.56,81.25,343.56,0.9914,9.7828,1.0517,9.8890
3,12,1,2,1,53.359,53359,0.1300,9.2600,2.3400,9.5520,0.0720,-0.0731,0.2673,-3.25,81.75,345.94,0.8779,9.7139,1.2215,9.8297
3,12,1,2,1,53.489,53489,1.3500,10.7900,-0.4100,10.8819,-0.1691,-0.0971,-0.0840,-4.13,82.00,347.50,0.9401,9.8557,1.0065,9.9515
3,12,1,2,1,53.619,53619,-2.9100,9.1400,2.3000,9.8640,-0.1287,-0.0022,0.4058,-3.88,82.88,347.69,0.4327,9.7614,1.1770,9.8416
3,12,1,2,1,53.749,53749,2.4000,12.3000,-0.4600,12.5404,0.0305,-0.0742,-0.4167,-7.88,82.94,351.75,0.6920,10.0959,0.9613,10.1652
3,12,1,2,1,53.879,53879,-1.9700,8.4600,0.4700,8.6990,-0.1145,0.0556,0.4025,-1.00,83.19,345.44,0.3412,9.8803,0.8965,9.9268
3,12,1,2,1,54.009,54009,-4.3100,9.6600,-0.4300,10.5866,-0.0622,-0.0676,-1.5490,-3.56,82.81,347.56,-0.2717,9.8513,0.7217,9.8814
3,12,1,2,1,54.139,54139,3.1300,9.9500,1.4800,10.5352,0.0218,0.2356,1.7475,-1.50,83.31,345.06,0.1765,9.8643,0.8216,9.9000
3,12,1,2,1,54.270,54270,-0.9000,8.8200,1.1100,8.9350,-0.2214,0.0055,-1.6624,1.94,83.69,341.00,0.0347,9.7267,0.8596,9.7647
3,12,1,2,1,54.443,54443,-2.9300,8.9500,1.1200,9.4838,-0.0196,0.1200,0.1265,10.81,84.50,331.63,-0.3560,9.6243,0.8939,9.6723
3,12,1,2,1,54.573,54573,-1.5100,9.4800,0.5000,9.6125,0.1276,0.0938,-0.1287,9.31,83.81,332.38,-0.5081,9.6053,0.8420,9.6555
3,12,1,2,1,54.704,54704,-2.6800,8.7900,0.7800,9.2225,-0.0284,0.0567,-0.3862,11.19,83.38,329.94,-0.7943,9.4979,0.8339,9.5674
3,12,1,2,1,54.835,54835,-1.8400,8.9100,1.3800,9.2021,-0.0120,0.0720,0.2880,11.06,83.44,329.56,-0.9321,9.4204,0.9058,9.5097
3,12,1,2,1,54.965,54965,-1.6000,10.1700,0.3900,10.3025,-0.0098,0.0273,0.2978,8.63,83.44,331.63,-1.0201,9.5192,0.8379,9.6103
3,12,1,2,1,55.096,55096,-0.3900,9.7000,1.2000,9.7817,0.0196,-0.0087,0.2225,7.13,83.31,333.13,-0.9371,9.5430,0.8856,9.6297
3,12,1,2,1,55.226,55226,-1.0200,9.4500,1.0900,9.5672,0.0065,-0.0753,-0.1636,7.00,83.25,333.63,-0.9480,9.5308,0.9125,9.6212
3,12,1,2,1,55.357,55357,-1.2800,9.6100,0.9900,9.7453,0.0185,-0.0654,-0.0404,7.56,83.19,333.56,-0.9917,9.5412,0.9227,9.6369
3,12,1,2,1,55.534,55534,-1.8300,8.8600,1.0200,9.1043,0.0447,-0.0425,-0.0633,8.75,83.00,333.06,-1.1022,9.4514,0.9355,9.5614
3,12,1,2,1,55.664,55664,-1.2000,9.4100,0.8400,9.5233,0.0458,-0.0033,0.0076,8.63,82.88,333.38,-1.1151,9.4460,0.9230,9.5562
3,12,1,2,1,55.795,55795,-1.6100,8.4200,1.0300,8.6342,0.0076,0.0218,-0.0425,9.38,82.75,332.56,-1.1803,9.3108,0.9371,9.4320
3,12,1,2,1,55.925,55925,-2.4000,8.2700,1.4600,8.7341,-0.0774,0.0196,-0.0338,11.63,82.88,330.25,-1.3410,9.1736,1.0060,9.3255
3,12,1,2,1,56.056,56056,-1.8800,10.2300,1.7400,10.5458,-0.0240,0.0142,0.1974,8.81,83.13,332.75,-1.4120,9.3128,1.1027,9.4836
3,12,1,2,1,56.186,56186,-1.9600,9.5800,1.1600,9.8470,0.1102,-0.0098,-0.1494,10.75,82.75,331.00,-1.4843,9.3480,1.1102,9.5300
3,12,1,2,1,56.317,56317,-0.2400,7.7200,1.0000,7.7882,0.0371,0.0022,0.2847,10.25,81.81,331.81,-1.3203,9.1335,1.0957,9.2933
3,12,1,2,1,56.447,56447,-2.8700,8.3100,1.0700,8.8565,-0.1734,-0.0753,-0.7810,12.19,82.50,330.00,-1.5245,9.0250,1.0923,9.2178
3,12,1,2,1,56.620,56620,-0.3900,10.4300,2.1800,10.6625,0.0556,0.0022,-0.0175,7.81,83.38,333.88,-1.3750,9.2101,1.2357,9.3938
3,12,1,2,1,56.751,56751,-1.0400,9.4800,0.6400,9.5583,0.0960,-0.0404,-0.1865,8.19,82.75,333.69,-1.3309,9.2457,1.1572,9.4124
3,12,1,2,1,56.881,56881,-1.5400,7.8500,0.9000,8.0501,0.0545,0.0404,0.7374,8.44,82.06,333.75,-1.3584,9.0618,1.1233,9.2316
3,12,1,2,1,57.012,57012,-1.4400,10.2100,1.3400,10.3978,-0.0240,-0.0087,0.0284,4.31,82.19,337.69,-1.3692,9.2131,1.1518,9.3852
3,12,1,2,1,57.143,57143,2.4100,10.8800,2.2400,11.3666,0.0829,0.0360,0.4461,-0.63,82.13,342.31,-0.8712,9.4327,1.2952,9.5610
3,12,1,2,1,57.274,57274,-0.7300,8.9400,0.1300,8.9707,0.0513,-0.0404,-0.3458,-0.50,81.38,342.25,-0.8526,9.3678,1.1417,9.4756
3,12,1,2,1,57.405,57405,0.1100,9.8200,1.3000,9.9063,-0.0513,-0.0404,-0.3382,-0.31,81.19,342.19,-0.7257,9.4274,1.1625,9.5265
3,12,1,2,1,57.540,57540,0.1200,10.9000,1.8200,11.0516,0.0262,-0.0109,-0.1953,-1.63,81.19,343.50,-0.6143,9.6214,1.2492,9.7216
3,12,1,2,1,57.713,57713,0.9600,9.5800,1.1700,9.6988,0.0349,0.0993,0.7472,2.06,81.44,339.94,-0.4068,9.6160,1.2387,9.7040
3,12,1,2,1,57.843,57843,-0.1300,11.7700,1.3000,11.8423,0.1211,0.0502,-0.0633,-1.69,81.06,343.19,-0.3704,9.8998,1.2468,9.9849
3,13,1,2,1,57.973,57973,-1.3000,8.4600,1.4900,8.6880,0.0862,0.0687,-0.2978,-0.13,80.44,341.13,-0.4929,9.7101,1.2789,9.8063
3,13,1,2,1,58.103,58103,1.0600,9.7500,2.3300,10.0804,0.0371,0.0884,0.3927,-1.81,80.06,342.06,-0.2882,9.7154,1.4174,9.8224
3,13,1,2,1,58.233,58233,0.4300,9.6700,1.6500,9.8192,-0.0142,0.0305,0.0153,-3.81,80.06,343.69,-0.1936,9.7094,1.4480,9.8187
3,13,1,2,1,58.363,58363,1.5800,9.4300,1.5000,9.6784,-0.0720,-0.0480,-0.0687,-3.75,80.50,343.69,0.0401,9.6726,1.4549,9.7815
3,13,1,2,1,58.494,58494,0.3900,9.6900,1.2200,9.7743,-0.1276,-0.1331,-0.4407,-1.50,81.25,342.13,0.0862,9.6749,1.4239,9.7795
3,13,1,2,1,58.624,58624,-0.8100,9.3100,1.3300,9.4393,-0.1156,-0.1145,-0.0644,0.50,82.19,341.06,-0.0319,9.6268,1.4115,9.7298
3,13,1,2,1,58.797,58797,-0.1500,10.3900,0.7800,10.4203,-0.1527,-0.0818,-0.0687,0.88,83.50,341.50,-0.0474,9.7274,1.3283,9.8177
3,13,1,2,1,58.927,58927,-0.3600,10.2100,0.8200,10.2492,0.0022,-0.0120,0.2596,0.19,84.00,342.56,-0.0886,9.7910,1.2613,9.8723
3,13,1,2,1,59.057,59057,0.2000,10.8400,0.3600,10.8478,-0.0164,0.0491,0.0785,-2.50,83.94,345.13,-0.0506,9.9292,1.1426,9.9948
3,13,1,2,1,59.187,59187,0.4300,9.8300,2.0100,10.0426,0.0513,0.1625,0.1920,-3.13,83.75,344.94,0.0127,9.9161,1.2569,9.9955
3,13,1,2,1,59.317,59317,-0.0700,9.2900,1.4000,9.3952,0.1440,0.2007,0.4691,-5.06,83.25,345.63,0.0018,9.8336,1.2757,9.9160
3,13,1,2,1,59.447,59447,1.4400,10.5100,0.8400,10.6414,-0.0273,0.1691,-0.1854,-5.69,83.00,344.88,0.1913,9.9227,1.2183,9.9991
3,13,1,2,1,59.577,59577,0.7500,9.0700,0.7500,9.1318,0.1145,0.1484,-0.2531,-5.38,82.56,343.31,0.2650,9.8104,1.1566,9.8819
3,13,1,2,1,59.708,59708,-1.0300,7.5800,1.6600,7.8277,-0.0720,0.1276,-0.1385,-4.19,82.44,341.13,0.0943,9.5165,1.2229,9.5952
3,13,1,2,1,59.881,59881,4.0700,11.2400,3.1500,12.3622,-0.0600,0.0305,0.3589,-5.75,83.25,341.94,0.6182,9.7436,1.4769,9.8743
3,13,1,2,1,60.012,60012,0.1400,7.7700,-0.0300,7.7713,-0.0796,-0.2923,-2.0388,0.69,83.25,336.50,0.5552,9.4835,1.2783,9.5854
3,13,1,2,1,60.142,60142,3.6800,9.2200,3.0500,10.3852,0.1985,-0.1113,1.0886,1.06,83.06,337.25,0.9670,9.4488,1.5118,9.6177
3,13,1,2,1,60.276,60276,-0.8700,9.4700,1.3100,9.5997,0.2542,-0.1963,-0.2978,1.13,82.38,338.50,0.7249,9.4516,1.4852,9.5950
3,13,1,2,1,60.407,60407,-0.1600,10.0200,0.3100,10.0261,-0.2945,-0.1276,-0.3011,1.81,83.38,338.88,0.6083,9.5265,1.3303,9.6381
3,13,1,2,1,60.540,60540,-2.0100,7.0700,0.1200,7.3511,-0.1582,-0.1462,-0.6861,9.25,84.75,332.56,0.2633,9.2028,1.1708,9.2807
3,13,1,2,1,60.671,60671,3.3600,9.5200,0.2600,10.0989,0.1244,-0.0011,0.7887,4.88,84.38,337.19,0.6713,9.2446,1.0508,9.3283
3,13,1,2,1,60.802,60802,-1.4900,7.2600,1.5000,7.5616,-0.0764,-0.0720,-0.0785,6.44,84.50,336.38,0.3865,8.9831,1.1100,9.0596
3,13,1,2,1,60.974,60974,0.4000,10.2900,0.0900,10.2982,0.0000,-0.0175,0.1789,4.69,84.63,338.44,0.3883,9.1553,0.9756,9.2153
3,13,1,2,1,61.105,61105,-1.7400,9.4200,0.8200,9.6144,-0.0142,0.0022,-0.0131,6.88,84.94,336.50,0.1078,9.1902,0.9551,9.2403
3,13,1,2,1,61.235,61235,-0.5500,9.5900,0.3300,9.6114,0.0349,0.0393,0.2083,5.44,84.56,337.69,0.0212,9.2429,0.8727,9.2840
3,13,1,2,1,61.366,61366,-1.3400,9.6500,0.8500,9.7796,-0.0807,0.0229,0.0044,5.63,84.75,337.38,-0.1582,9.2965,0.8697,9.3384
3,13,1,2,1,61.496,61496,-0.3600,9.7600,0.8200,9.8010,0.0382,0.0196,0.0600,4.44,84.69,338.31,-0.1848,9.3576,0.8632,9.3991
3,13,1,2,1,61.627,61627,-0.8900,9.6700,0.5500,9.7264,0.0022,0.0011,-0.0404,4.38,84.50,338.38,-0.2777,9.3988,0.8219,9.4387
3,13,1,2,1,61.758,61758,-1.0400,9.3500,0.9800,9.4586,0.0404,0.0000,0.0011,4.69,84.38,338.06,-0.3782,9.3923,0.8427,9.4376
3,13,1,2,1,61.888,61888,-0.6800,9.6800,0.8500,9.7410,0.0295,0.0185,0.1549,3.88,84.19,338.81,-0.4179,9.4302,0.8437,9.4771
3,13,1,2,1,62.061,62061,-1.0100,8.1300,1.1400,8.2714,-0.0229,-0.0251,-0.3480,4.13,84.00,338.63,-0.4960,9.2589,0.8827,9.3141
3,13,1,2,1,62.195,62195,-1.7200,8.6100,0.3000,8.7852,0.0218,0.0196,0.1505,4.50,83.81,338.31,-0.6573,9.1734,0.8059,9.2322
3,13,1,2,1,62.326,62326,-1.1700,9.4900,0.6800,9.5860,0.0982,0.0153,0.4363,0.13,83.06,342.50,-0.7248,9.2151,0.7894,9.2772
3,13,1,2,1,62.457,62457,2.0000,10.6000,1.2900,10.8639,-0.0022,0.0687,0.5531,-2.75,83.25,345.25,-0.3658,9.3976,0.8553,9.4435
3,13,1,2,1,62.587,62587,0.9900,9.9300,0.8300,10.0137,0.0764,0.0000,0.2902,-4.13,83.06,346.50,-0.1871,9.4678,0.8520,9.5079
3,13,1,2,1,62.717,62717,2.5400,9.7400,0.9900,10.1143,0.0731,-0.0044,0.1473,-6.88,82.25,349.13,0.1723,9.5036,0.8702,9.5449
3,13,1,2,1,62.848,62848,0.0000,9.2400,1.3900,9.3440,-0.0251,0.0185,-0.2563,-5.44,82.06,347.63,0.1496,9.4689,0.9387,9.5165
3,13,1,2,1,62.979,62979,-0.5400,10.0000,1.2700,10.0948,0.0971,0.0676,0.0033,-2.38,81.81,344.31,0.0587,9.5389,0.9823,9.5895
3,13,1,2,1,63.151,63151,1.2500,10.1300,1.1600,10.2725,0.1211,-0.0262,0.1004,-3.94,80.69,345.69,0.2157,9.6168,1.0057,9.6716
3,13,1,2,1,63.281,63281,-0.7900,8.7800,1.7200,8.9817,0.0262,-0.0436,-0.3687,-3.25,80.25,345.19,0.0832,9.5065,1.0999,9.5703
3,13,1,2,1,63.411,63411,0.4200,9.9000,1.0700,9.9665,-0.1582,0.0556,0.2149,-2.56,80.88,344.50,0.1275,9.5584,1.0959,9.6218
3,13,1,2,1,63.541,63541,1.0100,11.6200,2.0500,11.8426,-0.1353,0.0785,0.2847,-4.13,82.13,345.63,0.2438,9.8300,1.2217,9.9087
3,13,1,2,1,63.671,63671,0.6600,9.5900,1.0000,9.6646,-0.0905,0.0316,-0.2378,-3.31,82.88,344.50,0.2987,9.7984,1.1924,9.8752
3,13,1,2,1,63.801,63801,-1.3200,10.3200,0.9700,10.4492,-0.0131,0.0207,0.0447,-2.25,83.25,343.31,0.0854,9.8671,1.1631,9.9358
3,13,1,2,1,63.932,63932,0.7700,9.8000,0.9700,9.8779,-0.1396,0.0404,0.4243,-4.25,83.75,345.13,0.1756,9.8583,1.1377,9.9253
3,13,1,2,1,64.062,64062,2.4400,9.5800,1.7400,10.0378,-0.0055,0.0218,0.4865,-6.94,84.25,347.69,0.4740,9.8216,1.2171,9.9081
3,13,1,2,1,64.235,64235,3.9300,10.0600,-0.3900,10.8074,-0.0535,-0.0175,0.3796,-11.56,84.69,352.25,0.9294,9.8530,1.0053,9.9477
3,13,1,2,1,64.366,64366,1.4500,8.1800,1.1000,8.3800,-0.0851,-0.0425,-0.0971,-8.69,85.00,349.94,0.9980,9.6326,1.0178,9.7375
3,13,1,2,1,64.496,64496,-0.1300,9.8200,0.6500,9.8423,0.0360,-0.0578,-0.0927,-9.63,85.13,351.06,0.8494,9.6573,0.9693,9.7429
3,13,1,2,1,64.627,64627,5.1300,11.5800,1.7800,12.7899,0.0731,0.0305,0.9512,-10.81,85.13,352.38,1.4134,9.9106,1.0761,10.0686
3,14,1,2,1,64.757,64757,1.0400,8.2300,-0.9000,8.3441,-0.0840,-0.1407,-1.5719,-7.13,85.00,349.25,1.3642,9.6892,0.8157,9.8187
3,14,1,2,1,64.890,64890,-4.3000,11.7400,1.8300,12.6359,0.0469,0.0873,0.4472,-3.94,85.31,346.13,0.6178,9.9594,0.9494,10.0236
3,14,1,2,1,65.020,65020,-0.2500,7.2500,0.7000,7.2880,0.0175,-0.1156,-1.7530,1.00,84.75,341.38,0.5035,9.6024,0.9165,9.6592
3,14,1,2,1,65.155,65155,-0.7500,8.2100,0.7100,8.2747,-0.0654,0.0545,0.0698,8.06,85.56,334.44,0.3383,9.4189,0.8893,9.4668
3,14,1,2,1,65.327,65327,-0.2300,9.7300,0.3800,9.7401,0.0687,0.0949,0.2847,6.56,85.56,335.31,0.2634,9.4599,0.8222,9.4992
3,14,1,2,1,65.457,65457,-0.1400,8.7700,0.6200,8.7930,0.0611,0.0676,0.0022,6.25,84.94,335.13,0.2102,9.3690,0.7955,9.4051
3,14,1,2,1,65.587,65587,-0.6800,9.5000,1.0200,9.5788,0.0251,0.0611,0.1931,5.44,84.56,335.50,0.0929,9.3863,0.8251,9.4229
3,14,1,2,1,65.718,65718,-0.8500,10.0000,0.7600,10.0648,0.0338,0.0175,-0.0338,5.38,84.44,335.38,-0.0313,9.4671,0.8165,9.5023
3,14,1,2,1,65.848,65848,-0.2900,9.6300,1.0300,9.6893,0.0316,0.0087,0.1898,4.56,84.19,336.13,-0.0654,9.4886,0.8447,9.5263
3,14,1,2,1,65.978,65978,-1.1300,9.1700,1.3700,9.3404,0.0098,-0.0305,0.0185,4.44,84.06,336.38,-0.2057,9.4466,0.9139,9.4929
3,14,1,2,1,66.109,66109,-1.1700,9.0700,1.1000,9.2111,0.0404,-0.0349,0.0316,4.44,83.81,336.63,-0.3328,9.3970,0.9384,9.4496
3,14,1,2,1,66.239,66239,-0.9800,9.8800,0.9300,9.9719,-0.0109,-0.0415,0.0273,3.88,83.81,337.38,-0.4181,9.4606,0.9373,9.5161
3,14,1,2,1,66.412,66412,-0.5300,9.6500,1.3000,9.7516,0.0393,-0.0142,0.1920,3.25,83.63,338.31,-0.4328,9.4856,0.9851,9.5464
3,14,1,2,1,66.543,66543,-1.0500,9.4000,1.0500,9.5166,-0.0938,-0.0993,-1.1650,6.06,83.81,335.88,-0.5141,9.4743,0.9937,9.5401
3,14,1,2,1,66.674,66674,-2.2900,9.3800,0.7200,9.6823,-0.0502,-0.0611,-0.8159,12.69,84.25,329.69,-0.7481,9.4619,0.9576,9.5396
3,14,1,2,1,66.804,66804,-2.4800,8.1600,1.2700,8.6226,0.0654,-0.0044,-0.4440,16.94,84.13,325.63,-0.9764,9.2903,0.9988,9.3947
3,14,1,2,1,66.935,66935,-2.9700,7.8700,0.5600,8.4304,0.0393,0.0033,-0.4625,20.25,83.81,322.38,-1.2391,9.1032,0.9409,9.2352
3,14,1,2,1,67.065,67065,-3.8800,9.0400,0.9100,9.8795,0.0240,0.0676,0.4483,19.56,83.31,322.88,-1.5871,9.0948,0.9369,9.2797
3,14,1,2,1,67.198,67198,-2.6000,9.7700,1.2800,10.1907,0.2094,0.0742,0.6720,15.44,82.50,326.81,-1.7206,9.1838,0.9821,9.3951
3,14,1,2,1,67.329,67329,-3.3100,7.9900,1.6800,8.8101,0.1385,-0.0305,0.0393,13.25,81.50,329.06,-1.9300,9.0265,1.0741,9.2928
3,14,1,2,1,67.504,67504,-1.9600,9.8700,2.1200,10.2836,-0.1025,-0.1004,-0.2302,7.06,81.94,335.56,-1.9340,9.1376,1.2119,9.4184
3,14,1,2,1,67.634,67634,-1.8100,6.9600,-0.0600,7.1918,-0.0644,-0.1156,-0.2116,10.38,82.63,333.00,-1.9176,8.8507,1.0443,9.1161
3,14,1,2,1,67.765,67765,-1.5300,9.6200,0.4600,9.7518,-0.1462,-0.0502,0.0862,9.19,83.94,334.56,-1.8665,8.9521,0.9673,9.1956
3,14,1,2,1,67.895,67895,-0.7000,11.2900,1.1800,11.3731,-0.0840,-0.0316,0.0033,5.56,85.06,338.13,-1.7128,9.2601,0.9953,9.4697
3,14,1,2,1,68.026,68026,0.0000,11.3400,1.2500,11.4087,0.0731,-0.0175,-0.0589,3.75,85.13,339.94,-1.4871,9.5342,1.0289,9.7042
3,15,1,2,1,68.156,68156,-0.5800,8.8800,-0.0200,8.8989,0.1134,-0.0742,-0.1494,4.50,84.06,339.56,-1.3676,9.4480,0.8907,9.5879
3,15,1,2,1,68.286,68286,-1.3900,8.8900,-0.5100,9.0125,0.0535,-0.0196,-0.0033,5.06,83.38,339.50,-1.3705,9.3745,0.7061,9.5004
3,15,1,2,1,68.417,68417,-0.2100,10.8300,1.1800,10.8961,-0.0196,0.0120,0.2738,5.00,83.44,339.56,-1.2176,9.5663,0.7685,9.6740
3,15,1,2,1,68.590,68590,-1.9400,10.0200,1.0300,10.2579,0.0491,0.0065,0.2280,4.94,83.06,339.81,-1.3128,9.6261,0.8030,9.7483
3,15,1,2,1,68.720,68720,0.2200,10.3900,1.0400,10.4442,0.0502,-0.0382,-0.1025,3.44,82.69,341.31,-1.1108,9.7267,0.8342,9.8254
3,15,1,2,1,68.851,68851,-0.9100,8.4500,1.9500,8.7197,0.0338,-0.0447,-0.1320,4.69,82.50,340.50,-1.0844,9.5585,0.9813,9.6697
3,15,1,2,1,68.982,68982,-0.6700,10.2800,0.6500,10.3223,-0.0938,0.0044,0.1887,4.00,82.81,341.25,-1.0298,9.6536,0.9376,9.7535
3,15,1,2,1,69.112,69112,-1.8500,9.5700,1.1000,9.8090,-0.0611,0.0207,-0.2705,5.25,83.38,339.94,-1.1378,9.6426,0.9590,9.7567
3,15,1,2,1,69.243,69243,-0.8400,9.9200,0.7100,9.9808,-0.0338,0.0687,-0.0273,5.25,83.69,339.56,-1.0986,9.6791,0.9262,9.7852
3,15,1,2,1,69.373,69373,0.0900,9.4900,1.0500,9.5483,-0.0338,0.0764,0.1156,6.13,84.00,338.19,-0.9420,9.6542,0.9425,9.7457
3,15,1,2,1,69.507,69507,-0.8000,10.1100,1.1300,10.2044,-0.0044,0.0764,0.3174,4.94,84.25,338.88,-0.9233,9.7143,0.9672,9.8059
3,15,1,2,1,69.681,69681,0.3800,11.0300,1.1100,11.0922,0.0316,0.0469,0.3491,-0.69,84.00,343.88,-0.7515,9.8876,0.9860,9.9651
3,15,1,2,1,69.812,69812,-0.9700,9.6200,0.9000,9.7106,-0.0262,-0.0011,-0.2858,0.81,84.19,342.19,-0.7803,9.8524,0.9747,9.9312
3,15,1,2,1,69.942,69942,1.6700,11.2900,1.3800,11.4960,0.1025,0.1298,1.4137,-3.56,83.88,346.13,-0.4574,10.0418,1.0281,10.1047
3,15,1,2,1,70.073,70073,0.7900,8.0100,0.3900,8.0583,-0.0425,-0.0753,-1.0548,-2.63,83.75,345.19,-0.2930,9.7741,0.9440,9.8239
3,15,1,2,1,70.203,70203,2.8100,11.4800,0.2600,11.8218,-0.0338,0.0873,0.5127,-2.69,84.31,345.06,0.1159,9.9989,0.8539,10.0359
3,15,1,2,1,70.334,70334,-0.3200,13.7800,-0.6200,13.7977,-0.1200,0.0284,-0.0382,-4.75,85.06,346.75,0.0584,10.4971,0.6597,10.5180
3,15,1,2,1,70.464,70464,1.7800,6.1800,0.0800,6.4317,-0.0022,-0.0873,-1.2512,-0.06,85.56,342.38,0.2853,9.9282,0.5833,9.9494
3,15,1,2,1,70.595,70595,-4.6300,11.9500,1.6800,12.9252,0.1963,-0.0665,-0.8279,0.06,85.44,342.06,-0.3624,10.1947,0.7278,10.2270
3,15,1,2,1,70.768,70768,-2.7300,7.1400,0.6300,7.6700,-0.2247,-0.1014,-1.6842,9.19,85.88,333.06,-0.6744,9.7921,0.7149,9.8413
3,15,1,2,1,70.899,70899,-0.6500,10.3700,0.0000,10.3904,0.0818,0.0873,0.1767,10.75,86.06,331.19,-0.6712,9.8683,0.6207,9.9105
3,15,1,2,1,71.031,71031,-0.5500,9.2200,0.2400,9.2395,0.0393,0.0164,-0.0709,10.25,85.44,331.44,-0.6552,9.7829,0.5705,9.8214
3,15,1,2,1,71.165,71165,-2.0900,9.6900,0.2600,9.9162,0.0087,0.0098,0.0785,10.81,85.19,330.88,-0.8443,9.7706,0.5296,9.8213
3,15,1,2,1,71.296,71296,-2.0600,9.1000,0.7400,9.3596,0.0556,-0.0120,-0.0044,10.06,84.81,331.75,-1.0045,9.6822,0.5573,9.7502
3,15,1,2,1,71.427,71427,-1.4900,9.8900,1.0500,10.0566,0.0502,0.0087,0.2520,9.31,84.63,332.56,-1.0685,9.7096,0.6223,9.7880
3,15,1,2,1,71.558,71558,-1.4700,9.1500,1.0200,9.3233,0.0393,-0.0087,0.0676,8.44,84.25,333.50,-1.1214,9.6359,0.6747,9.7243
3,15,1,2,1,71.688,71688,-1.2000,9.6200,0.9700,9.7430,0.0425,-0.0109,0.0316,7.81,83.94,334.19,-1.1317,9.6338,0.7136,9.7262
3,15,1,2,1,71.861,71861,-1.1300,9.3500,1.1700,9.4904,0.0491,-0.0022,0.1014,7.31,83.50,334.81,-1.1315,9.5964,0.7737,9.6938
3,15,1,2,1,71.991,71991,-0.9500,9.4500,1.2600,9.5808,0.0273,-0.0109,-0.1494,6.88,83.19,335.31,-1.1076,9.5771,0.8378,9.6773
3,15,1,2,1,72.121,72121,-1.5300,9.1300,1.1800,9.3322,-0.0120,0.0044,-0.2171,8.31,83.13,333.88,-1.1633,9.5182,0.8829,9.6296
3,15,1,2,1,72.251,72251,-1.2900,8.9900,1.0900,9.1473,0.0338,0.0480,0.0993,8.19,83.00,333.75,-1.1800,9.4486,0.9102,9.5654
3,15,1,2,1,72.381,72381,-2.0700,9.1900,1.1700,9.4926,0.0687,-0.0120,-0.2803,8.56,82.69,333.25,-1.2972,9.4145,0.9444,9.5503
3,15,1,2,1,72.511,72511,-1.2200,8.1700,0.9000,8.3095,-0.0633,-0.0164,-0.1342,9.00,82.69,332.75,-1.2871,9.2505,0.9386,9.3867
3,16,1,2,1,72.641,72641,0.2500,11.4900,1.4900,11.5889,-0.0905,0.0065,0.6436,7.19,83.63,334.44,-1.0845,9.5456,1.0112,9.6601
3,16,1,2,1,72.772,72772,1.0400,9.7700,1.0400,9.8801,0.0436,-0.0676,0.1287,5.31,83.56,336.63,-0.8046,9.5752,1.0150,9.6624
3,16,1,2,1,72.945,72945,-1.9300,7.9200,1.3400,8.2612,-0.0894,-0.0251,0.5443,8.81,84.13,334.06,-0.9529,9.3571,1.0579,9.4648
3,16,1,2,1,73.075,73075,-0.9300,9.4600,0.9300,9.5510,-0.0033,0.0109,0.3087,5.63,84.44,337.31,-0.9499,9.3706,1.0410,9.4760
3,16,1,2,1,73.206,73206,-1.1300,9.8600,1.0100,9.9758,0.0000,0.0207,0.1527,4.69,84.63,338.13,-0.9736,9.4351,1.0369,9.5417
3,16,1,2,1,73.336,73336,-0.3400,10.5100,1.2800,10.5931,0.1124,0.0065,0.2465,3.19,84.06,339.50,-0.8901,9.5768,1.0689,9.6773
3,16,1,2,1,73.468,73468,-0.8000,10.1800,0.6600,10.2327,0.0993,-0.0251,-0.1516,1.19,83.13,341.56,-0.8782,9.6563,1.0151,9.7491
3,16,1,2,1,73.599,73599,-0.4600,7.9300,1.0500,8.0124,0.0022,0.0273,0.0720,1.81,82.81,340.88,-0.8231,9.4288,1.0197,9.5194
3,16,1,2,1,73.734,73734,-0.2200,10.6400,0.4900,10.6535,-0.1604,0.0938,0.2236,0.63,83.56,341.69,-0.7436,9.5884,0.9499,9.6640
3,16,1,2,1,73.865,73865,0.1100,9.5900,1.2200,9.6679,-0.0371,0.0447,-0.2553,1.25,84.38,340.50,-0.6312,9.5886,0.9855,9.6597
3,16,1,2,1,74.038,74038,-0.5900,9.6600,0.2300,9.6807,0.0055,0.0251,0.0327,1.19,84.38,340.25,-0.6257,9.5980,0.8859,9.6591
3,16,1,2,1,74.169,74169,-0.1600,9.5500,1.2000,9.6264,-0.0207,0.0055,0.0567,0.56,84.56,340.69,-0.5644,9.5917,0.9273,9.6529
3,16,1,2,1,74.300,74300,-0.1600,10.1000,0.6600,10.1228,-0.0415,0.0175,0.0927,0.13,84.88,341.13,-0.5111,9.6587,0.8921,9.7132
3,16,1,2,1,74.430,74430,0.7500,11.5300,1.1400,11.6105,0.0240,0.0458,0.1844,-0.88,85.00,342.00,-0.3449,9.9053,0.9247,9.9543
3,16,1,2,1,74.561,74561,0.2600,8.6300,0.7500,8.6664,0.0502,0.0098,-0.1778,-0.13,84.75,341.06,-0.2652,9.7372,0.9017,9.7825
3,16,1,2,1,74.692,74692,-1.2900,10.6300,0.3300,10.7131,0.0120,-0.0098,-0.3709,1.94,84.50,338.94,-0.4002,9.8549,0.8264,9.8975
3,16,1,2,1,74.827,74827,-0.3300,9.6700,0.8100,9.7095,0.0894,0.0284,0.2760,1.88,84.06,338.88,-0.3910,9.8305,0.8242,9.8727
3,16,1,2,1,74.958,74958,0.1700,9.6600,1.0700,9.7206,0.1167,0.0076,-0.0295,0.75,83.38,339.94,-0.3171,9.8080,0.8566,9.8505
3,16,1,2,1,75.131,75131,-0.1500,9.7000,1.1700,9.7715,0.0818,0.0327,0.2214,-0.06,82.44,340.63,-0.2950,9.7938,0.8979,9.8393
3,16,1,2,1,75.261,75261,1.2100,10.4300,1.0600,10.5533,-0.0382,0.0611,0.2498,-2.38,82.25,342.63,-0.0967,9.8776,0.9193,9.9208
3,16,1,2,1,75.391,75391,-0.6700,9.6200,1.1900,9.7164,-0.2291,-0.0305,-0.1756,-1.75,83.31,341.94,-0.1723,9.8437,0.9549,9.8914
3,16,1,2,1,75.521,75521,3.6600,10.8000,1.7700,11.5399,-0.1265,-0.0338,0.5094,-3.81,84.50,344.25,0.3327,9.9697,1.0623,10.0317
3,16,1,2,1,75.651,75651,1.8000,9.7100,0.3800,9.8827,-0.0600,-0.0578,0.1931,-4.69,85.00,345.63,0.5261,9.9355,0.9724,9.9968
3,16,1,2,1,75.781,75781,4.5400,7.7700,2.2300,9.2713,-0.3283,-0.0153,-0.4287,-2.81,86.19,344.06,1.0550,9.6501,1.1381,9.7741
3,16,1,2,1,75.912,75912,-1.9000,8.5000,1.0400,8.7716,-0.1069,0.0687,0.1887,0.56,88.06,340.56,0.6656,9.4986,1.1252,9.5881
3,16,1,2,1,76.042,76042,-1.0300,10.4400,0.9100,10.5301,-0.0175,0.0251,-0.2411,-0.38,88.69,341.13,0.4422,9.6226,1.0969,9.6950
3,16,1,2,1,76.215,76215,-1.8700,11.0900,-1.0000,11.2909,-0.0971,0.0469,-0.3894,1.19,89.19,339.06,0.1375,9.8160,0.8205,9.8512
3,16,1,2,1,76.345,76345,0.0600,11.3800,-0.3400,11.3852,0.0425,0.0284,-0.0491,2.13,89.38,337.75,0.1273,10.0221,0.6676,10.0451
3,16,1,2,1,76.475,76475,-0.1200,10.5600,-0.6800,10.5826,0.2062,-0.1167,-0.9588,3.88,88.44,336.25,0.0947,10.0930,0.4900,10.1053
3,16,1,2,1,76.605,76605,-1.5800,6.1100,-0.2600,6.3163,0.0764,-0.0513,-0.6480,11.13,87.50,329.88,-0.1260,9.5681,0.3912,9.5769
3,16,1,2,1,76.735,76735,-1.0000,9.1600,0.9000,9.2583,0.2945,0.0567,0.9828,11.00,86.19,330.31,-0.2412,9.5143,0.4582,9.5284
3,16,1,2,1,76.865,76865,-1.5200,8.3300,0.5800,8.4874,-0.0055,-0.0262,-0.3065,10.38,85.19,331.13,-0.4097,9.3583,0.4743,9.3792
3,17,1,2,1,76.995,76995,-2.2200,10.1600,1.3700,10.4896,0.0284,0.0469,0.3131,9.88,85.31,331.44,-0.6482,9.4639,0.5923,9.5046
3,17,1,2,1,77.126,77126,-1.3300,8.5300,1.1100,8.7041,-0.0447,0.0120,-0.0524,9.13,85.06,332.06,-0.7381,9.3409,0.6605,9.3932
3,17,1,2,1,77.299,77299,-0.1500,10.6400,0.5000,10.6528,-0.0011,0.0436,0.4800,7.88,85.00,333.13,-0.6606,9.5120,0.6394,9.5564
3,17,1,2,1,77.430,77430,-1.0300,8.7600,0.6400,8.8435,-0.0087,-0.0044,-0.1985,7.38,84.94,333.56,-0.7093,9.4129,0.6395,9.4613
3,17,1,2,1,77.561,77561,-0.7400,10.2900,0.9200,10.3575,0.0305,0.0360,0.4516,6.75,85.06,334.13,-0.7133,9.5285,0.6764,9.5791
3,17,1,2,1,77.692,77692,-0.9600,9.1500,0.8000,9.2349,0.0502,-0.0284,-0.2105,5.81,84.69,335.06,-0.7458,9.4786,0.6927,9.5331
3,17,1,2,1,77.822,77822,-1.9900,9.0300,0.8700,9.2875,0.0491,-0.0327,-0.1429,7.88,84.44,333.31,-0.9098,9.4195,0.7161,9.4904
3,17,1,2,1,77.954,77954,-1.6800,8.2600,0.6800,8.4565,0.0469,-0.0065,0.3807,6.38,84.06,334.94,-1.0113,9.2667,0.7113,9.3488
3,17,1,2,1,78.089,78089,-0.0900,10.9600,1.0300,11.0087,0.0338,-0.0404,0.2585,3.63,84.06,337.88,-0.8899,9.4899,0.7533,9.5612
3,17,1,2,1,78.219,78219,-2.0400,9.2900,0.7300,9.5393,0.0654,-0.0731,-0.0818,5.44,83.63,336.69,-1.0414,9.4635,0.7502,9.5502
3,17,1,2,1,78.392,78392,1.1000,13.2000,0.6000,13.2593,0.0436,-0.0131,0.5520,-0.50,82.88,342.81,-0.7592,9.9559,0.7304,10.0115
3,17,1,2,1,78.522,78522,-1.9700,5.9200,1.2100,6.3554,-0.1025,-0.0807,-0.7952,3.44,83.00,339.31,-0.9188,9.4241,0.7936,9.5019
3,17,1,2,1,78.652,78652,-1.7100,8.5100,1.6200,8.8300,-0.0295,0.0654,0.4603,3.44,83.88,339.19,-1.0230,9.3036,0.9025,9.4031
3,17,1,2,1,78.782,78782,0.2300,11.5700,1.5500,11.6756,0.0774,0.1047,0.9032,-0.69,83.81,342.81,-0.8579,9.6023,0.9879,9.6910
3,17,1,2,1,78.912,78912,1.0500,8.5500,0.5200,8.6299,0.1134,0.0273,0.5836,-2.38,82.88,344.31,-0.6065,9.4636,0.9262,9.5281
3,17,1,2,1,79.043,79043,0.4300,10.3600,1.9800,10.5563,0.0196,0.0502,0.4952,-5.44,82.56,347.19,-0.4699,9.5817,1.0651,9.6522
3,17,1,2,1,79.173,79173,1.3700,10.5200,1.1700,10.6732,0.1374,0.0436,0.1625,-8.44,82.31,349.69,-0.2275,9.7054,1.0789,9.7678
3,17,1,2,1,79.303,79303,2.7300,10.2300,1.2800,10.6651,0.0229,-0.0142,-0.5007,-8.38,81.56,349.38,0.1622,9.7745,1.1054,9.8381
3,17,1,2,1,79.476,79476,0.6000,9.9400,1.2000,10.0301,-0.0731,0.0589,-0.2193,-5.25,81.31,345.88,0.2199,9.7963,1.1179,9.8623
3,17,1,2,1,79.606,79606,-0.1200,10.4800,1.4500,10.5805,-0.1560,0.0349,-0.4723,-2.31,82.25,342.63,0.1751,9.8864,1.1616,9.9560
3,17,1,2,1,79.736,79736,-0.5900,9.5300,1.4000,9.6503,-0.0404,0.0164,0.0905,-0.13,83.00,340.31,0.0743,9.8394,1.1930,9.9118
3,17,1,2,1,79.866,79866,1.2600,10.0400,0.6100,10.1371,-0.0185,-0.0436,0.0873,-1.31,83.13,341.56,0.2306,9.8659,1.1162,9.9315
3,17,1,2,1,79.996,79996,-0.3300,9.8500,1.2500,9.9345,0.0142,-0.1080,-0.1734,0.00,83.19,340.94,0.1567,9.8638,1.1338,9.9300
3,17,1,2,1,80.126,80126,-0.6500,11.1900,0.9900,11.2525,-0.0436,-0.0949,0.0873,-0.44,83.38,342.13,0.0504,10.0385,1.1149,10.1004
3,17,1,2,1,80.257,80257,-0.7400,10.5100,0.3700,10.5425,-0.0774,-0.0469,0.3818,-1.81,83.69,344.00,-0.0538,10.1007,1.0167,10.1518
3,17,1,2,1,80.387,80387,1.3900,10.0800,1.5500,10.2928,-0.0196,0.0676,0.5149,-6.50,84.00,348.50,0.1365,10.0979,1.0870,10.1572
3,17,1,2,1,80.560,80560,1.5800,10.3900,-0.1900,10.5112,-0.1102,0.1167,0.7101,-8.56,84.75,350.19,0.3267,10.1364,0.9187,10.1832
3,17,1,2,1,80.691,80691,0.9900,13.0300,0.6700,13.0847,-0.1767,0.0295,-0.2116,-8.50,86.00,349.81,0.4141,10.5177,0.8859,10.5631
3,17,1,2,1,80.822,80822,2.4000,7.8800,-0.1800,8.2393,-0.0894,-0.1538,-2.1500,-4.50,86.69,346.00,0.6758,10.1701,0.7455,10.2198
3,17,1,2,1,80.953,80953,-2.3700,5.9500,1.1600,6.5088,0.1505,-0.0327,-0.6818,6.50,86.81,335.63,0.2744,9.6140,0.8001,9.6512
3,17,1,2,1,81.084,81084,0.1900,10.1500,-0.9200,10.1934,0.0491,0.0774,0.6763,4.88,85.50,337.13,0.2633,9.6847,0.5734,9.7052
3,17,1,2,1,81.219,81219,-0.8900,8.9900,1.0600,9.0959,-0.0207,-0.0109,-0.2007,4.00,85.19,337.94,0.1113,9.5931,0.6376,9.6149
3,18,1,2,1,81.350,81350,-0.6100,10.3900,0.3700,10.4145,-0.0109,0.0011,0.1898,4.00,85.56,337.94,0.0163,9.6981,0.6023,9.7168
3,18,1,2,1,81.480,81480,-0.6500,9.6900,0.1500,9.7129,0.0305,-0.0142,-0.1702,4.38,85.44,337.63,-0.0715,9.6971,0.5427,9.7125
3,18,1,2,1,81.653,81653,-1.2300,9.5800,0.7200,9.6854,0.0676,-0.0316,-0.0535,6.63,85.56,335.75,-0.2242,9.6816,0.5661,9.7008
3,18,1,2,1,81.784,81784,-1.1600,9.2400,0.7100,9.3396,0.0556,-0.0273,0.1189,6.25,85.19,336.38,-0.3475,9.6234,0.5850,9.6475
3,18,1,2,1,81.914,81914,-1.1800,9.9000,0.7200,9.9960,0.0535,-0.0360,0.0131,6.19,85.00,336.69,-0.4572,9.6599,0.6028,9.6895
3,18,1,2,1,82.045,82045,-0.7900,8.8300,1.0100,8.9226,0.0851,-0.0164,0.1953,5.31,84.50,337.81,-0.5011,9.5505,0.6565,9.5862
3,18,1,2,1,82.176,82176,-0.4500,9.0200,0.6300,9.0532,0.0873,-0.0349,0.0316,4.50,83.94,338.94,-0.4943,9.4806,0.6530,9.5159
3,18,1,2,1,82.306,82306,-0.9500,8.7300,1.0800,8.8477,0.0011,-0.0513,-0.2934,6.19,83.94,337.56,-0.5544,9.3817,0.7093,9.4248
3,18,1,2,1,82.437,82437,0.3900,11.3700,1.3800,11.4601,0.0884,0.0502,0.9207,4.44,83.50,339.44,-0.4299,9.6437,0.7976,9.6862
3,18,1,2,1,82.567,82567,0.1400,10.3000,1.5700,10.4199,0.1091,0.0229,0.5247,1.25,82.44,342.50,-0.3548,9.7302,0.8994,9.7781
3,18,1,2,1,82.740,82740,-0.4000,9.3000,1.0700,9.3699,-0.0305,0.0240,0.1614,-0.94,82.00,344.69,-0.3608,9.6735,0.9219,9.7240
3,18,1,2,1,82.874,82874,0.0000,9.5000,1.5300,9.6224,-0.0447,0.0513,0.1822,-3.44,82.19,346.75,-0.3132,9.6506,1.0020,9.7076
3,18,1,2,1,83.006,83006,1.4800,8.9400,0.8000,9.0969,-0.1527,0.0065,-0.1353,-3.81,83.13,346.94,-0.0769,9.5570,0.9754,9.6070
3,18,1,2,1,83.136,83136,0.6000,9.9800,0.3700,10.0049,-0.1004,0.0349,0.3480,-4.31,84.31,347.38,0.0123,9.6127,0.8956,9.6544
3,18,1,2,1,83.266,83266,0.3400,10.0100,1.1000,10.0760,-0.0185,0.0360,-0.0851,-5.31,85.00,348.19,0.0555,9.6651,0.9226,9.7092
3,18,1,2,1,83.397,83397,2.1200,10.5200,1.3800,10.8199,0.0404,0.0393,0.0033,-5.56,84.94,348.13,0.3275,9.7777,0.9828,9.8325
3,18,1,2,1,83.527,83527,1.2600,9.5100,0.6600,9.6158,0.1745,-0.0033,-0.0404,-5.63,83.94,347.94,0.4504,9.7425,0.9403,9.7981
3,18,1,2,1,83.658,83658,0.9600,9.8500,1.3000,9.9817,0.2487,0.0185,0.5901,-6.25,82.56,348.50,0.5175,9.7566,0.9877,9.8201
3,18,1,2,1,83.831,83831,1.9400,9.6000,1.8800,9.9729,0.0055,-0.0055,-0.0447,-7.25,81.31,349.63,0.7050,9.7360,1.1053,9.8239
3,18,1,2,1,83.961,83961,1.1200,10.6200,1.9000,10.8466,-0.1429,-0.0044,-0.2880,-4.69,82.06,347.13,0.7597,9.8525,1.2100,9.9555
3,18,1,2,1,84.092,84092,-0.8900,9.8200,1.0500,9.9160,-0.0949,-0.0240,-0.4745,-1.44,83.00,344.06,0.5423,9.8482,1.1889,9.9345
3,18,1,2,1,84.222,84222,-0.7400,10.1100,0.5300,10.1509,-0.0567,-0.0164,-0.1156,0.94,83.56,341.81,0.3733,9.8827,1.1021,9.9510
3,18,1,2,1,84.354,84354,-0.4500,10.1400,0.6900,10.1734,-0.0382,0.0000,0.0305,0.94,83.94,341.81,0.2648,9.9166,1.0478,9.9753
3,18,1,2,1,84.484,84484,0.3100,12.6600,1.1700,12.7177,-0.0960,0.0022,0.0960,-0.75,84.38,343.56,0.2708,10.2781,1.0639,10.3366
3,18,1,2,1,84.616,84616,-0.7800,12.8100,0.5100,12.8439,-0.0731,0.0491,0.3382,-1.69,85.00,344.38,0.1323,10.6118,0.9909,10.6587
3,18,1,2,1,84.747,84747,1.7500,12.4600,0.6900,12.6012,0.0665,0.0142,0.0065,-5.38,84.81,347.63,0.3455,10.8553,0.9513,10.9024
3,18,1,2,1,84.922,84922,2.7600,4.5400,-0.6300,5.3503,0.1494,-0.1996,-2.8329,2.50,83.50,340.06,0.6637,10.0231,0.7429,10.0725
3,18,1,2,1,85.052,85052,0.8800,7.6000,0.6300,7.6767,0.0480,0.1364,1.2086,8.31,82.94,334.50,0.6922,9.7038,0.7280,9.7557
3,18,1,2,1,85.183,85183,1.0100,12.3400,0.2400,12.3836,-0.2029,-0.0185,-0.4036,3.94,82.81,338.44,0.7340,10.0512,0.6637,10.0998
3,18,1,2,1,85.313,85313,-1.8600,9.0900,1.1000,9.3433,-0.0229,-0.0076,-0.0458,7.44,83.38,335.13,0.3922,9.9245,0.7212,9.9584
3,18,1,2,1,85.443,85443,-0.1300,9.3700,0.9000,9.4140,0.0382,-0.0207,-0.0480,6.38,83.44,336.19,0.3234,9.8515,0.7448,9.8849
3,18,1,2,1,85.574,85574,-2.4300,9.2200,0.8200,9.5700,-0.0545,-0.0524,-0.2193,8.19,83.94,334.69,-0.0394,9.7682,0.7547,9.7974
3,18,1,2,1,85.704,85704,-1.3200,9.6000,1.0400,9.7460,-0.0044,-0.0196,0.1134,7.25,84.19,335.75,-0.2082,9.7461,0.7923,9.7804
3,18,1,2,1,85.836,85836,-1.5700,9.3700,0.6600,9.5235,-0.0218,-0.0404,-0.0305,7.13,84.31,336.13,-0.3876,9.6965,0.7748,9.7351
3,18,1,2,1,86.009,86009,-1.0500,9.5800,0.7000,9.6628,0.0164,-0.0120,0.1713,5.69,84.50,337.75,-0.4749,9.6812,0.7650,9.7229
3,18,1,2,1,86.140,86140,-0.8200,9.7900,0.6500,9.8458,0.0087,0.0022,0.1080,5.06,84.56,338.44,-0.5204,9.6955,0.7498,9.7384
3,18,1,2,1,86.275,86275,-0.6800,9.7400,0.6700,9.7867,0.0055,-0.0022,-0.0829,4.69,84.63,338.81,-0.5414,9.7014,0.7393,9.7446
3,18,1,2,1,86.406,86406,-0.1700,9.2900,1.0900,9.3553,0.0654,0.0142,-0.1374,5.00,84.38,338.44,-0.4925,9.6472,0.7855,9.6916
3,18,1,2,1,86.537,86537,-2.8800,9.0800,0.3500,9.5322,0.0807,0.0818,0.9010,4.69,83.63,338.69,-0.8071,9.5724,0.7281,9.6339
3,18,1,2,1,86.667,86667,-0.4200,9.0800,0.5200,9.1046,-0.0513,0.0229,0.2498,0.38,83.69,342.69,-0.7561,9.5075,0.7007,9.5633
3,19,1,2,1,86.797,86797,-0.0800,10.2900,1.0300,10.3417,-0.0480,0.0000,0.1451,-0.44,84.31,343.56,-0.6670,9.6106,0.7441,9.6625
3,19,1,2,1,86.928,86928,0.6900,9.0600,0.7900,9.1205,0.0535,-0.0469,-0.4418,-1.19,84.06,344.38,-0.4882,9.5381,0.7501,9.5800
3,19,1,2,1,87.101,87101,-0.0900,10.2200,1.6100,10.3464,0.0862,0.0545,0.3949,-3.06,83.38,346.06,-0.4357,9.6279,0.8635,9.6764
3,19,1,2,1,87.231,87231,0.7400,9.5500,0.3700,9.5858,-0.0600,0.0720,-0.2662,-3.88,83.44,346.31,-0.2808,9.6177,0.7984,9.6548
3,19,1,2,1,87.361,87361,3.2500,10.5000,1.2800,11.0658,0.0022,0.2203,0.8247,-4.19,83.88,345.75,0.1845,9.7339,0.8619,9.7738
3,19,1,2,1,87.491,87491,-1.6500,8.0500,0.2700,8.2218,-0.1134,0.1560,-0.4080,0.50,84.56,340.06,-0.0572,9.5120,0.7839,9.5445
3,19,1,2,1,87.621,87621,-0.0100,10.9400,0.8500,10.9730,0.0622,0.1756,0.0971,-1.13,84.63,340.38,-0.0510,9.7002,0.7926,9.7327
3,19,1,2,1,87.751,87751,-0.3400,9.1300,0.8300,9.1740,0.1516,0.0851,-0.0229,-1.00,83.75,339.25,-0.0891,9.6251,0.7975,9.6585
3,19,1,2,1,87.881,87881,0.3000,9.4100,1.1300,9.4824,0.2062,-0.0153,0.2891,-2.50,82.44,340.44,-0.0378,9.5967,0.8413,9.6336
3,19,1,2,1,88.012,88012,1.2600,10.3400,1.2800,10.4948,0.1342,-0.1036,0.3720,-5.50,81.00,343.81,0.1332,9.6947,0.8991,9.7372
3,19,1,2,1,88.185,88185,-0.1800,8.7000,1.7300,8.8722,-0.0120,-0.1767,-0.1058,-4.94,80.19,344.75,0.0919,9.5636,1.0086,9.6171
3,19,1,2,1,88.319,88319,1.5600,10.1600,1.7600,10.4287,-0.0916,-0.1309,0.0840,-5.56,80.44,346.50,0.2854,9.6422,1.1076,9.7098
3,19,1,2,1,88.450,88450,-0.2900,9.4900,0.6400,9.5160,-0.1233,-0.1244,-0.2182,-3.69,81.25,345.69,0.2096,9.6221,1.0460,9.6811
3,19,1,2,1,88.583,88583,-0.2200,10.6600,1.3900,10.7525,-0.1734,-0.0600,-0.1473,-3.19,82.50,345.88,0.1530,9.7589,1.0913,9.8209
3,19,1,2,1,88.714,88714,-0.1000,10.0000,1.1600,10.0676,0.0000,0.0109,0.1614,-1.81,82.94,344.75,0.1196,9.7907,1.1004,9.8530
3,19,1,2,1,88.845,88845,0.2900,11.3300,0.7100,11.3559,0.0676,0.0415,0.5978,-4.31,82.69,347.06,0.1421,9.9935,1.0489,10.0494
3,19,1,2,1,88.975,88975,1.1200,9.5300,0.7100,9.6218,-0.0262,-0.0044,-0.1320,-6.50,82.50,349.13,0.2709,9.9324,1.0043,9.9868
3,19,1,2,1,89.105,89105,2.5700,9.9900,2.0700,10.5209,0.0382,-0.0164,0.0600,-7.19,82.44,349.69,0.5739,9.9400,1.1447,10.0222
3,19,1,2,1,89.278,89278,2.0300,11.3800,0.8100,11.5880,-0.0033,0.0469,0.5007,-9.25,81.94,351.63,0.7658,10.1298,1.1006,10.2181
3,19,1,2,1,89.409,89409,2.4300,8.5700,1.5000,9.0333,-0.0262,-0.0316,-0.6523,-8.31,81.88,350.63,0.9851,9.9242,1.1532,10.0395
3,19,1,2,1,89.539,89539,-2.3000,9.8400,1.1200,10.1671,-0.1200,0.0742,0.2858,-4.13,82.63,346.50,0.5522,9.9131,1.1489,9.9948
3,19,1,2,1,89.670,89670,1.0700,10.9600,1.9100,11.1765,-0.0164,-0.0262,0.1571,-6.56,82.50,348.75,0.6204,10.0511,1.2492,10.1474
3,19,1,2,1,89.801,89801,2.3100,9.9500,1.8300,10.3773,-0.0175,-0.0818,-0.4320,-5.38,82.63,348.06,0.8431,10.0378,1.3257,10.1600
3,19,1,2,1,89.931,89931,-0.6300,5.4000,0.2000,5.4403,-0.1833,-0.1942,-2.1435,3.44,83.38,340.13,0.6490,9.4266,1.1774,9.5220
3,19,1,2,1,90.062,90062,-3.3200,6.8100,0.8700,7.6260,-0.1036,0.0785,1.1454,12.69,84.69,331.44,0.1259,9.0818,1.1369,9.1536
3,20,1,2,1,90.193,90193,-0.1400,11.3300,0.5400,11.3437,-0.0055,0.0502,0.1778,7.19,84.94,336.44,0.0909,9.3781,1.0582,9.4380
3,20,1,2,1,90.366,90366,-0.8300,8.9100,1.4200,9.0605,0.0164,0.0524,0.2738,6.19,84.88,337.13,-0.0305,9.3164,1.1059,9.3818
3,20,1,2,1,90.500,90500,-0.0700,10.1400,0.1600,10.1415,-0.0502,-0.0065,-0.2618,4.88,84.94,338.13,-0.0357,9.4249,0.9812,9.4759
3,20,1,2,1,90.630,90630,-0.5200,10.1500,0.3500,10.1693,0.0175,0.0000,0.0840,4.44,84.94,338.56,-0.0995,9.5205,0.8981,9.5633
3,20,1,2,1,90.761,90761,-0.9500,9.6200,0.5300,9.6813,0.0196,-0.0175,-0.0404,3.94,84.88,339.13,-0.2116,9.5336,0.8496,9.5737
3,20,1,2,1,90.891,90891,-0.7700,9.8500,0.3500,9.8862,0.0447,-0.0109,0.0513,3.88,84.56,339.38,-0.2851,9.5753,0.7837,9.6115
3,20,1,2,1,91.022,91022,-0.8100,9.6300,0.4800,9.6759,0.0764,-0.0076,-0.0654,3.69,84.13,339.56,-0.3543,9.5825,0.7437,9.6178
3,20,1,2,1,91.152,91152,-0.5400,9.7200,0.5900,9.7529,0.0382,0.0109,-0.0229,3.63,83.69,339.63,-0.3788,9.6006,0.7235,9.6353
3,20,1,2,1,91.283,91283,-0.2800,9.0200,1.3400,9.1233,0.0742,0.0360,-0.1014,4.19,83.25,338.94,-0.3658,9.5241,0.8047,9.5650
3,20,1,2,1,91.456,91456,-1.3500,8.1700,1.4700,8.4102,0.0109,0.0709,0.0360,5.44,82.88,337.19,-0.4955,9.3457,0.8924,9.4012
3,20,1,2,1,91.586,91586,0.7900,8.6900,1.0800,8.7924,-0.0742,0.1364,0.8792,3.38,82.94,338.69,-0.3261,9.2593,0.9171,9.3103
3,20,1,2,1,91.717,91717,-1.2500,10.2400,1.7000,10.4551,-0.0284,0.0753,-0.1963,0.31,83.56,340.94,-0.4478,9.3885,1.0203,9.4544
3,20,1,2,1,91.847,91847,2.4800,12.4000,1.7300,12.7634,0.1516,0.0916,0.8487,-1.38,83.38,342.13,-0.0620,9.7853,1.1138,9.8487
3,20,1,2,1,91.980,91980,0.0000,8.2500,-0.0100,8.2500,0.0065,-0.0055,0.3251,-0.81,82.63,341.63,-0.0538,9.5830,0.9657,9.6317
3,20,1,2,1,92.111,92111,-0.1100,8.8100,1.8200,8.9967,-0.1734,-0.0284,0.0807,-1.19,83.38,342.31,-0.0612,9.4812,1.0783,9.5425
3,20,1,2,1,92.245,92245,1.9100,10.6800,1.0100,10.8964,0.0284,-0.0349,-0.0240,-3.25,83.81,344.44,0.1985,9.6391,1.0693,9.7003
3,20,1,2,1,92.376,92376,-0.4700,9.8400,1.5000,9.9648,0.1069,-0.1036,-0.2105,-1.13,83.25,343.00,0.1104,9.6656,1.1260,9.7316
3,20,1,2,1,92.548,92548,0.1300,10.2100,1.3400,10.2984,0.0676,-0.0469,0.4429,-2.88,82.31,345.50,0.1130,9.7373,1.1542,9.8062
3,20,1,2,1,92.678,92678,1.1900,9.5900,0.6700,9.6867,-0.0425,-0.0065,0.0371,-4.81,82.31,347.63,0.2549,9.7179,1.0904,9.7822
3,20,1,2,1,92.808,92808,0.5300,9.8600,1.3200,9.9621,-0.1669,0.0622,0.0796,-3.88,83.38,346.69,0.2912,9.7366,1.1207,9.8053
3,20,1,2,1,92.938,92938,1.0100,11.2600,0.7600,11.3307,-0.0960,0.0916,0.1549,-5.44,84.19,347.63,0.3859,9.9374,1.0731,10.0026
3,20,1,2,1,93.068,93068,1.1100,9.5000,0.8500,9.6023,0.0109,0.0207,-0.4931,-2.88,84.44,344.69,0.4813,9.8797,1.0437,9.9464
3,20,1,2,1,93.199,93199,-0.7900,10.6100,0.7900,10.6687,-0.0589,0.0273,0.0196,-1.69,84.75,343.31,0.3138,9.9760,1.0103,10.0319
3,20,1,2,1,93.329,93329,0.2300,10.0100,0.7800,10.0430,-0.0131,-0.0011,0.0600,-2.00,84.88,343.56,0.3027,9.9805,0.9800,10.0330
3,20,1,2,1,93.460,93460,0.7600,10.0500,0.7800,10.1088,-0.0545,0.0000,0.2825,-3.38,85.13,345.00,0.3630,9.9896,0.9536,10.0416
3,20,1,2,1,93.633,93633,1.0100,9.9100,1.1300,10.0252,0.0153,-0.0153,-0.0611,-3.81,85.50,345.63,0.4483,9.9791,0.9769,10.0368
3,20,1,2,1,93.764,93764,-0.1900,9.4000,-0.1800,9.4036,-0.0545,-0.0076,0.0654,-2.63,85.50,344.69,0.3642,9.9028,0.8244,9.9437
3,20,1,2,1,93.894,93894,2.0400,11.6800,1.2300,11.9204,0.0644,0.0305,0.1396,-4.69,85.38,346.56,0.5850,10.1370,0.8779,10.1917
3,20,1,2,1,94.025,94025,5.8800,13.1800,0.8300,14.4560,-0.0240,0.1909,1.4977,-6.13,85.06,347.50,1.2827,10.5380,0.8715,10.6515
3,20,1,2,1,94.156,94156,-3.1100,9.8300,1.4000,10.4049,-0.0142,0.0087,-1.0341,-2.94,85.44,344.00,0.7039,10.4447,0.9412,10.5106
3,20,1,2,1,94.291,94291,2.8800,13.3700,0.5000,13.6858,0.1189,0.0545,-0.2062,-7.63,84.69,347.63,0.9906,10.8302,0.8830,10.9112
3,20,1,2,1,94.421,94421,-8.2500,-1.6000,-0.1000,8.4043,-0.0982,-0.2051,-3.6848,13.44,84.50,327.31,-0.2270,9.1922,0.7535,9.2258
3,20,1,2,1,94.553,94553,5.6500,9.5300,4.2700,11.8733,-0.5836,0.2323,1.7377,8.06,84.50,331.38,0.5474,9.2367,1.2169,9.3326
3,20,1,2,1,94.726,94726,-2.2500,6.3000,3.0700,7.3605,0.1920,-0.0633,-0.7527,7.75,84.00,331.56,0.1788,8.8497,1.4611,8.9713
3,20,1,2,1,94.856,94856,-1.2700,9.8500,1.9800,10.1270,0.0709,-0.0589,0.1724,5.38,83.56,334.13,-0.0121,8.9815,1.5295,9.1108
3,20,1,2,1,94.986,94986,-0.3800,9.1200,0.7500,9.1587,0.0327,-0.1025,0.0327,4.88,83.13,335.25,-0.0606,8.9998,1.4268,9.1124
3,20,1,2,1,95.116,95116,-0.8200,9.6500,0.9600,9.7322,0.0436,-0.0916,0.1996,4.25,83.06,336.63,-0.1607,9.0855,1.3652,9.1889
3,20,1,2,1,95.246,95246,-0.4800,10.2100,0.7100,10.2459,0.0251,-0.0731,0.2618,2.63,82.94,338.94,-0.2028,9.2337,1.2789,9.3240
3,20,1,2,1,95.376,95376,-0.6900,10.2200,0.8600,10.2793,0.0327,-0.0622,0.0524,1.88,82.69,340.13,-0.2670,9.3636,1.2237,9.4470
3,20,1,2,1,95.506,95506,-0.4500,9.1600,1.3600,9.2713,0.0338,-0.0327,-0.1353,2.31,82.56,340.13,-0.2911,9.3368,1.2417,9.4235
