participant,rep,equipment_code,exercise_code,quality_code,timestamp,timestamp_ms,accelX,accelY,accelZ,accelMag,gyroX,gyroY,gyroZ,roll,pitch,yaw,filteredX,filteredY,filteredZ,filteredMag
3,1,1,2,1,00.000,0,1.9500,8.1800,0.7400,8.4417,-0.0011,-0.0087,-0.0753,-22.31,85.88,265.19,3.3253,8.9640,0.8996,9.6032
3,1,1,2,1,00.130,130,4.7400,9.0800,1.0200,10.2934,-0.0153,0.0142,0.3774,-24.88,85.88,267.69,3.5117,8.9793,0.9155,9.6850
3,1,1,2,1,00.260,260,3.5900,8.9000,0.8100,9.6309,-0.0491,-0.0338,-0.4527,-24.06,86.13,267.06,3.5220,8.9689,0.9016,9.6777
3,1,1,2,1,00.390,390,5.0900,9.0300,0.9100,10.4056,-0.0338,-0.0589,-0.6556,-25.13,86.25,268.13,3.7287,8.9769,0.9027,9.7623
3,1,1,2,1,00.520,520,5.6400,9.0300,1.1100,10.7043,0.0338,-0.0218,0.1222,-25.81,86.13,268.94,3.9805,8.9839,0.9300,9.8702
3,1,1,2,1,00.650,650,3.6400,8.5100,0.7800,9.2886,0.0229,-0.0175,0.1691,-25.06,85.88,268.38,3.9357,8.9215,0.9102,9.7934
3,1,1,2,1,00.823,823,2.6900,8.6700,0.8300,9.1156,-0.0240,-0.0491,-0.5061,-25.13,85.75,268.63,3.7715,8.8883,0.8997,9.6972
3,1,1,2,1,00.957,957,3.6500,8.3300,0.9900,9.1483,-0.0229,-0.0273,-0.3033,-26.25,85.75,269.75,3.7555,8.8148,0.9116,9.6247
3,1,1,2,1,01.088,1088,5.3400,8.4000,0.9700,10.0008,-0.0022,-0.0676,-0.8694,-26.94,85.69,270.44,3.9643,8.7601,0.9193,9.6592
3,1,1,2,1,01.221,1221,5.8300,8.0700,0.9000,9.9962,0.0622,0.0371,0.7614,-26.75,85.38,270.19,4.2101,8.6692,0.9167,9.6809
3,1,1,2,1,01.351,1351,2.2900,8.0000,0.5700,8.3408,-0.0109,-0.0524,-0.9294,-22.13,85.38,265.81,3.9571,8.5810,0.8710,9.4895
3,1,1,2,1,01.482,1482,5.2500,8.1100,1.0100,9.7136,0.0120,0.0011,-0.1254,-25.13,85.19,268.44,4.1275,8.5189,0.8893,9.5078
3,1,1,2,1,01.612,1612,6.2200,9.0600,1.0900,11.0436,0.0687,0.1385,1.5523,-26.31,85.13,269.44,4.4032,8.5902,0.9158,9.6963
3,1,1,2,1,01.742,1742,0.7500,9.1700,1.1300,9.2698,-0.0382,-0.0611,-0.8072,-23.06,85.31,266.25,3.9218,8.6666,0.9440,9.5594
3,1,1,2,1,01.915,1915,0.9900,8.8600,0.6400,8.9381,-0.0709,-0.0982,-1.0210,-25.00,85.25,268.00,3.5355,8.6921,0.9040,9.4271
3,1,1,2,1,02.046,2046,6.8800,8.8300,1.2900,11.2680,-0.0273,-0.0611,-0.7996,-30.44,85.13,273.00,3.9762,8.7103,0.9548,9.6224
3,1,1,2,1,02.176,2176,5.3500,9.1000,1.1800,10.6219,0.0327,0.0894,1.4508,-27.06,85.38,270.06,4.1572,8.7616,0.9845,9.7477
3,1,1,2,1,02.310,2310,1.0600,8.8000,0.6000,8.8839,-0.0589,-0.0262,-0.1462,-24.81,85.75,268.13,3.7491,8.7667,0.9338,9.5803
3,1,1,2,1,02.441,2441,3.2800,9.0900,0.8400,9.7001,-0.1047,-0.0753,-1.0308,-27.56,85.94,270.81,3.6873,8.8093,0.9215,9.5942
3,1,1,2,1,02.574,2574,6.0000,8.9100,0.9900,10.7874,-0.0742,0.0251,0.1691,-28.19,86.50,271.69,3.9920,8.8226,0.9305,9.7283
3,1,1,2,1,02.704,2704,5.9800,9.5400,0.9800,11.3019,-0.0469,0.0764,0.8432,-27.56,87.19,271.25,4.2540,8.9171,0.9370,9.9242
3,1,1,2,1,02.835,2835,3.4500,8.5800,0.9400,9.2953,-0.0589,0.0022,0.0142,-24.00,87.81,268.13,4.1481,8.8727,0.9374,9.8392
3,1,1,2,1,03.008,3008,4.4500,9.3300,0.4700,10.3476,-0.0535,-0.0022,-0.2662,-23.69,88.31,267.94,4.1878,8.9329,0.8758,9.9047
3,1,1,2,1,03.139,3139,2.3200,9.5600,0.5100,9.8507,-0.0316,0.0033,-0.3785,-21.25,88.69,265.63,3.9417,9.0156,0.8276,9.8743
3,1,1,2,1,03.271,3271,3.2500,9.6500,0.7300,10.2087,0.0142,0.0120,-0.2945,-20.63,88.75,264.81,3.8506,9.0992,0.8148,9.9139
3,1,1,2,1,03.402,3402,4.0000,9.4700,0.6300,10.2994,0.0709,0.0425,0.4342,-21.06,88.38,264.94,3.8703,9.1480,0.7904,9.9644
3,1,1,2,1,03.536,3536,4.7000,9.4400,0.6300,10.5641,0.0884,0.0524,0.7047,-23.25,87.88,266.75,3.9796,9.1865,0.7693,10.0410
3,1,1,2,1,03.666,3666,5.3500,9.5000,0.7000,10.9253,0.0644,0.0393,0.5443,-26.31,87.38,269.38,4.1602,9.2278,0.7601,10.1507
3,1,1,2,1,03.797,3797,3.2500,9.0500,0.8000,9.6491,0.0251,-0.0360,-0.5640,-24.81,87.13,267.81,4.0402,9.2044,0.7654,10.0812
3,1,1,2,1,03.927,3927,5.4500,8.4500,0.9800,10.1027,0.0436,0.0175,0.2313,-28.44,86.75,271.13,4.2260,9.1050,0.7937,10.0692
3,1,1,2,1,04.100,4100,8.3500,8.7400,1.4400,12.1731,0.0371,0.0305,-0.1669,-35.31,86.25,277.25,4.7694,9.0569,0.8788,10.2736
3,1,1,2,1,04.230,4230,7.1500,8.5200,1.0600,11.1730,0.0807,0.1364,1.1083,-35.00,86.19,276.69,5.0831,8.9861,0.9027,10.3636
3,2,1,2,1,04.361,4361,1.9200,8.1100,0.7000,8.3635,-0.0153,0.0654,0.4265,-31.19,86.50,272.88,4.6663,8.8707,0.8760,10.0614
3,2,1,2,1,04.492,4492,3.2500,7.2000,0.8300,7.9430,-0.0960,0.0295,-0.8476,-32.75,87.00,274.13,4.4797,8.6505,0.8699,9.7804
3,2,1,2,1,04.623,4623,8.8200,8.5600,0.4500,12.2991,-0.0829,0.0502,0.0327,-36.25,87.88,277.25,5.0516,8.6386,0.8146,10.0403
3,2,1,2,1,04.754,4754,2.5700,8.2800,0.5900,8.6897,-0.1069,0.0338,-0.2062,-28.13,88.75,269.69,4.7246,8.5913,0.7850,9.8361
3,2,1,2,1,04.889,4889,3.5900,6.9300,0.7100,7.8369,-0.0894,-0.1625,-2.2187,-25.44,89.19,267.19,4.5751,8.3724,0.7751,9.5723
3,2,1,2,1,05.020,5020,6.8200,9.7100,0.5300,11.8776,0.1254,0.0633,1.7159,-27.06,88.81,269.00,4.8709,8.5487,0.7428,9.8670
3,2,1,2,1,05.192,5192,4.8000,7.0600,-0.0500,8.5373,0.0185,-0.0338,0.3523,-24.94,87.81,267.69,4.8616,8.3525,0.6383,9.6854
3,2,1,2,1,05.322,5322,2.6000,9.8200,0.1200,10.1591,-0.1244,-0.1429,-1.3832,-19.50,88.06,263.13,4.5636,8.5459,0.5700,9.7048
3,2,1,2,1,05.452,5452,5.0900,10.6100,-0.0400,11.7678,-0.0753,-0.0873,-0.7101,-15.50,88.50,260.00,4.6329,8.8179,0.4897,9.9729
3,2,1,2,1,05.582,5582,-4.2000,9.0300,0.7200,9.9850,-0.0175,-0.2803,-2.7358,4.25,89.13,242.13,3.4690,8.8458,0.5200,9.5159
3,2,1,2,1,05.712,5712,3.1200,8.6800,0.4200,9.2333,0.1745,0.0458,1.5064,-1.13,88.00,247.69,3.4230,8.8240,0.5068,9.4782
3,2,1,2,1,05.842,5842,-2.3900,9.1500,0.1900,9.4589,0.1811,0.0218,1.2926,2.88,86.88,244.56,2.6570,8.8669,0.4651,9.2681
3,2,1,2,1,05.972,5972,-1.8300,9.5400,0.7300,9.7413,0.0044,-0.1385,-1.1072,0.69,86.25,247.00,2.0657,8.9556,0.5000,9.2044
3,2,1,2,1,06.102,6102,0.8900,8.4500,1.3000,8.5956,0.0349,-0.0164,0.6774,-3.31,86.00,251.19,1.9108,8.8890,0.6054,9.1122
3,2,1,2,1,06.275,6275,2.7500,9.9800,0.9900,10.3992,0.0327,0.0480,1.0799,-5.75,85.88,253.88,2.0214,9.0328,0.6561,9.2794
3,2,1,2,1,06.406,6406,-2.9400,8.1300,0.6100,8.6668,-0.0644,-0.0698,-0.6665,-0.94,86.13,249.56,1.3676,8.9138,0.6500,9.0415
3,2,1,2,1,06.536,6536,1.0300,8.2100,1.1700,8.3567,-0.0415,-0.0524,-0.8618,-5.06,86.19,253.31,1.3231,8.8211,0.7185,8.9486
3,2,1,2,1,06.671,6671,2.2400,9.9900,1.0800,10.2949,0.0240,0.0480,0.4123,-6.56,86.25,254.63,1.4439,8.9751,0.7662,9.1227
3,2,1,2,1,06.802,6802,2.2200,9.6500,1.0700,9.9597,0.0131,0.0196,-0.4265,-6.06,86.19,253.88,1.5462,9.0640,0.8062,9.2302
3,2,1,2,1,06.934,6934,-0.7800,8.5900,0.7300,8.6562,0.0360,0.1636,1.4050,-5.69,86.13,253.19,1.2397,9.0016,0.7962,9.1213
3,2,1,2,1,07.064,7064,-0.3900,9.8100,0.5200,9.8315,-0.0578,0.0436,-0.6076,-6.19,86.38,253.25,1.0249,9.1081,0.7598,9.1970
3,2,1,2,1,07.195,7195,3.4800,11.0700,1.1300,11.6590,-0.0415,0.0065,-0.9839,-8.25,86.69,254.50,1.3484,9.3666,0.8086,9.4977
3,2,1,2,1,07.367,7367,-0.3100,9.3400,0.6600,9.3684,-0.0033,0.0535,0.0807,-6.81,86.88,252.44,1.1299,9.3631,0.7890,9.4640
3,2,1,2,1,07.498,7498,1.5000,9.9600,0.5700,10.0884,-0.0022,0.0971,-0.0676,-8.31,86.88,253.13,1.1787,9.4418,0.7601,9.5454
3,2,1,2,1,07.628,7628,0.4100,9.6000,0.5300,9.6234,0.0044,0.1004,0.1724,-6.69,87.00,250.94,1.0774,9.4626,0.7298,9.5517
3,2,1,2,1,07.759,7759,3.0300,10.2000,0.8700,10.6760,-0.0142,0.0764,-0.0905,-9.56,87.06,253.00,1.3347,9.5598,0.7483,9.6815
3,2,1,2,1,07.889,7889,1.6900,9.3500,1.0900,9.5638,0.0022,0.0796,0.2662,-7.25,87.31,250.31,1.3815,9.5321,0.7933,9.6644
3,2,1,2,1,08.025,8025,1.5800,10.0100,1.0700,10.1903,-0.0153,0.0131,-0.2836,-8.56,87.38,251.13,1.4077,9.5951,0.8298,9.7333
3,2,1,2,1,08.155,8155,-0.4700,9.9000,0.6900,9.9351,-0.0327,-0.0131,-0.4505,-7.94,87.56,250.38,1.1602,9.6353,0.8113,9.7388
3,2,1,2,1,08.287,8287,2.9200,9.6700,0.7500,10.1291,-0.0622,-0.1014,-1.1606,-9.50,87.69,251.81,1.3921,9.6399,0.8033,9.7729
3,2,1,2,1,08.459,8459,2.1500,9.7900,0.8600,10.0601,-0.0960,-0.0698,-0.7287,-8.88,88.25,251.50,1.4920,9.6596,0.8107,9.8078
3,2,1,2,1,08.589,8589,2.1300,9.6400,0.6600,9.8945,-0.0742,-0.0447,0.1320,-8.56,88.75,251.56,1.5761,9.6571,0.7909,9.8167
3,2,1,2,1,08.719,8719,1.5800,9.8400,0.6300,9.9859,-0.0840,-0.0753,-0.0076,-9.63,89.25,253.06,1.5766,9.6812,0.7697,9.8389
3,2,1,2,1,08.849,8849,3.1600,10.5300,0.5900,11.0097,-0.0731,-0.0698,-0.1767,-10.13,89.69,254.13,1.7852,9.7930,0.7460,9.9823
3,2,1,2,1,08.979,8979,1.0900,10.4100,0.3500,10.4728,-0.0589,-0.0545,-0.0382,-7.50,90.13,252.13,1.6936,9.8743,0.6938,10.0425
3,2,1,2,1,09.109,9109,1.4200,10.3600,0.4100,10.4649,-0.0447,-0.0240,0.3338,-7.44,90.50,252.50,1.6576,9.9383,0.6564,10.0970
3,2,1,2,1,09.239,9239,0.3300,9.8800,0.2600,9.8889,-0.0360,-0.0142,0.3927,-7.00,90.81,252.38,1.4826,9.9306,0.6042,10.0589
3,2,1,2,1,09.369,9369,0.6200,10.1600,0.3900,10.1864,-0.0425,-0.0175,0.4505,-8.31,91.13,253.94,1.3690,9.9609,0.5760,10.0710
3,2,1,2,1,09.542,9542,1.3700,10.3700,0.3900,10.4674,-0.0611,-0.0120,0.2171,-9.69,91.69,255.56,1.3691,10.0148,0.5515,10.1230
3,2,1,2,1,09.675,9675,3.0600,9.9700,0.3100,10.4336,-0.0316,-0.0120,0.3153,-10.19,92.13,256.31,1.5919,10.0089,0.5196,10.1480
3,3,1,2,1,09.806,9806,1.0000,8.4800,-0.0500,8.5389,0.0207,0.0055,0.5269,-9.13,92.19,255.63,1.5139,9.8074,0.4446,9.9335
3,3,1,2,1,09.940,9940,1.3200,8.0700,0.0900,8.1777,-0.0033,-0.1047,-1.3668,-6.44,92.00,253.31,1.4884,9.5785,0.3978,9.7016
3,3,1,2,1,10.070,10070,1.3400,9.0800,0.1800,9.1801,0.1069,0.0938,1.4399,-7.75,91.63,254.69,1.4688,9.5128,0.3691,9.6326
3,3,1,2,1,10.201,10201,-0.7800,9.8900,0.1400,9.9217,0.0360,-0.0153,-0.1069,-6.25,91.31,253.38,1.1725,9.5625,0.3389,9.6401
3,3,1,2,1,10.331,10331,-0.7000,8.7100,-0.2500,8.7417,0.0011,0.0076,-0.0818,-6.56,91.19,253.63,0.9257,9.4502,0.2613,9.4990
3,3,1,2,1,10.461,10461,1.8000,10.2800,0.4100,10.4444,-0.0327,-0.0098,-0.5770,-8.81,91.31,255.50,1.0409,9.5595,0.2809,9.6201
3,3,1,2,1,10.634,10634,-0.2900,9.4000,0.0400,9.4046,-0.0087,0.0153,-0.0644,-7.31,91.44,253.94,0.8656,9.5385,0.2492,9.5809
3,3,1,2,1,10.765,10765,0.8600,9.8500,0.2900,9.8917,0.0262,-0.0076,-0.2989,-8.81,91.38,255.19,0.8648,9.5795,0.2546,9.6219
3,3,1,2,1,10.895,10895,0.0400,8.5300,0.0200,8.5301,0.0196,0.0131,-0.0404,-7.19,91.19,253.56,0.7561,9.4412,0.2237,9.4741
3,3,1,2,1,11.029,11029,2.2000,9.7500,0.1500,9.9962,-0.0011,-0.0033,-0.1898,-8.19,91.06,254.38,0.9464,9.4819,0.2139,9.5314
3,3,1,2,1,11.160,11160,1.2500,8.4900,0.3100,8.5871,0.0185,0.0567,0.4156,-8.00,91.00,254.13,0.9864,9.3512,0.2266,9.4058
3,3,1,2,1,11.292,11292,3.6100,9.9700,0.4900,10.6148,0.0840,0.1145,1.4061,-11.75,90.88,257.69,1.3321,9.4328,0.2613,9.5299
3,3,1,2,1,11.423,11423,1.8300,9.3900,0.5100,9.5802,0.1113,-0.0033,0.3371,-11.06,90.44,257.13,1.3977,9.4271,0.2941,9.5347
3,3,1,2,1,11.554,11554,2.1400,8.8700,0.4200,9.1342,0.1080,0.0327,0.9228,-14.13,89.63,260.06,1.4955,9.3537,0.3107,9.4776
3,3,1,2,1,11.726,11726,3.6000,9.3500,0.8800,10.0577,0.0720,0.0218,0.6305,-18.88,88.81,264.63,1.7729,9.3532,0.3857,9.5276
3,3,1,2,1,11.857,11857,3.4200,10.0600,1.0000,10.6724,0.0447,0.0207,0.5683,-20.13,88.38,265.81,1.9899,9.4464,0.4666,9.6649
3,3,1,2,1,11.987,11987,1.3000,8.9200,0.5300,9.0298,-0.0404,-0.0971,-1.4235,-18.38,88.19,264.19,1.8990,9.3770,0.4750,9.5791
3,3,1,2,1,12.118,12118,2.8700,9.7400,0.9100,10.1947,-0.0185,0.0000,-0.0654,-18.94,88.25,264.63,2.0270,9.4248,0.5323,9.6550
3,3,1,2,1,12.248,12248,2.0000,9.6500,1.1900,9.9267,-0.0611,-0.0316,-0.9207,-17.56,88.50,263.31,2.0234,9.4545,0.6190,9.6884
3,3,1,2,1,12.383,12383,2.8000,8.9300,0.8700,9.3990,-0.0676,-0.0011,-0.5301,-17.31,88.88,262.94,2.1257,9.3854,0.6521,9.6452
3,3,1,2,1,12.513,12513,4.3100,9.5200,0.6800,10.4723,-0.0436,0.0611,0.2651,-17.63,89.38,263.00,2.4136,9.4031,0.6557,9.7301
3,3,1,2,1,12.645,12645,3.4000,9.4100,0.3700,10.0122,-0.0644,0.0142,-0.4243,-16.81,89.88,262.13,2.5436,9.4040,0.6181,9.7615
3,3,1,2,1,12.818,12818,3.1000,9.7500,0.6800,10.2535,-0.0829,0.0065,-0.6894,-18.63,90.63,263.56,2.6169,9.4496,0.6262,9.8253
3,3,1,2,1,12.948,12948,-0.1400,9.3100,0.2600,9.3147,-0.0665,-0.0044,-0.8301,-14.00,90.94,259.00,2.2536,9.4312,0.5780,9.7139
3,3,1,2,1,13.078,13078,1.3700,10.0200,0.1100,10.1138,-0.0469,0.0371,0.0175,-14.69,91.31,259.44,2.1372,9.5088,0.5163,9.7597
3,3,1,2,1,13.208,13208,4.8400,10.6600,0.5400,11.7198,-0.0218,0.0349,0.1974,-19.19,91.56,263.50,2.4933,9.6605,0.5194,9.9906
3,3,1,2,1,13.338,13338,4.0100,9.8900,0.0700,10.6723,-0.0338,0.0338,-0.0971,-17.56,91.81,261.88,2.6932,9.6907,0.4602,10.0685
3,3,1,2,1,13.468,13468,4.2900,10.5500,0.1200,11.3895,-0.0011,0.0785,0.9152,-17.94,92.13,262.06,2.9036,9.8040,0.4154,10.2333
3,3,1,2,1,13.598,13598,4.7500,11.1000,0.4600,12.0824,0.0229,0.0240,0.7003,-18.31,92.25,262.56,3.1469,9.9748,0.4213,10.4679
3,3,1,2,1,13.728,13728,2.8900,10.4700,0.1600,10.8627,0.0175,-0.0436,0.2640,-16.81,92.00,261.44,3.1131,10.0400,0.3868,10.5187
3,4,1,2,1,13.901,13901,1.9000,6.6800,0.6100,6.9717,0.0316,-0.1985,-1.7486,-14.00,91.56,259.44,2.9532,9.5973,0.4162,10.0500
3,4,1,2,1,14.032,14032,-1.3700,7.3300,0.3500,7.4651,0.1473,-0.0469,0.7865,-7.75,90.81,254.19,2.3835,9.2985,0.4075,9.6078
3,4,1,2,1,14.163,14163,1.9400,9.2600,0.2700,9.4649,0.0894,-0.1080,0.0142,-13.13,89.81,259.81,2.3251,9.2934,0.3894,9.5878
3,4,1,2,1,14.298,14298,0.9800,7.6600,0.4600,7.7361,-0.0185,-0.0807,-0.1244,-12.00,89.44,259.31,2.1478,9.0782,0.3987,9.3373
3,4,1,2,1,14.428,14428,4.8800,10.5600,0.8600,11.6648,-0.0262,0.0284,0.9556,-16.25,89.69,263.69,2.5079,9.2734,0.4595,9.6175
3,4,1,2,1,14.560,14560,3.2800,8.4500,0.7300,9.0936,-0.0491,-0.0502,-0.5792,-13.31,90.00,261.25,2.6096,9.1649,0.4951,9.5421
3,4,1,2,1,14.690,14690,3.6800,9.5600,0.7200,10.2691,0.0251,0.0851,1.0996,-13.94,90.13,262.00,2.7507,9.2170,0.5248,9.6330
3,4,1,2,1,14.820,14820,1.4900,9.5400,0.3400,9.6616,-0.0022,0.0229,0.2542,-13.31,90.25,261.50,2.5845,9.2596,0.5004,9.6265
3,4,1,2,1,14.993,14993,3.3600,9.0400,0.7300,9.6718,-0.0109,0.0371,0.2116,-14.31,90.56,262.31,2.6867,9.2306,0.5307,9.6283
3,4,1,2,1,15.124,15124,5.7000,10.1200,0.7700,11.6403,0.0654,0.0774,0.7221,-16.19,90.56,263.94,3.0838,9.3478,0.5622,9.8594
3,4,1,2,1,15.254,15254,0.1400,7.7600,0.1800,7.7634,0.0556,0.0055,-0.0622,-10.81,90.25,258.88,2.6959,9.1386,0.5118,9.5417
3,4,1,2,1,15.387,15387,2.4100,9.8500,0.4300,10.1497,0.0611,0.0851,1.0941,-13.38,90.00,261.19,2.6582,9.2323,0.5011,9.6205
3,4,1,2,1,15.518,15518,-0.4900,9.2300,0.0800,9.2433,-0.0425,-0.0098,-0.1854,-11.75,90.06,259.50,2.2434,9.2320,0.4456,9.5111
3,4,1,2,1,15.652,15652,3.3400,10.0800,0.7800,10.6476,-0.0305,-0.0011,-0.4352,-15.56,90.19,262.88,2.3879,9.3438,0.4896,9.6565
3,4,1,2,1,15.782,15782,2.8300,8.6200,0.2100,9.0751,-0.0535,-0.0622,-1.4366,-13.31,90.31,260.63,2.4461,9.2484,0.4528,9.5771
3,4,1,2,1,15.913,15913,-0.5800,8.9700,0.2500,8.9922,-0.0087,0.1113,1.3199,-10.13,90.63,257.44,2.0474,9.2117,0.4261,9.4461
3,4,1,2,1,16.086,16086,1.1300,10.1900,0.3700,10.2591,-0.0229,0.0622,0.3458,-15.81,91.00,262.38,1.9265,9.3406,0.4187,9.5464
3,4,1,2,1,16.217,16217,1.9900,9.9300,0.4500,10.1374,-0.0207,0.0196,-0.4887,-16.44,91.25,262.50,1.9348,9.4183,0.4228,9.6243
3,4,1,2,1,16.349,16349,-0.4300,8.7500,0.1100,8.7612,-0.0218,-0.0033,-0.5541,-13.44,91.38,259.31,1.6232,9.3302,0.3816,9.4781
3,4,1,2,1,16.479,16479,5.0600,10.1100,0.4700,11.3153,0.0207,0.0273,-0.1593,-20.13,91.31,265.00,2.0761,9.4330,0.3932,9.6667
3,4,1,2,1,16.614,16614,4.6600,9.4200,0.3700,10.5161,0.0502,0.0622,0.3283,-19.44,91.19,264.00,2.4166,9.4313,0.3902,9.7438
3,4,1,2,1,16.744,16744,3.8700,9.2400,0.5000,10.0302,0.0262,-0.0142,-0.2411,-19.00,90.94,263.31,2.6081,9.4061,0.4046,9.7693
3,4,1,2,1,16.875,16875,5.1900,10.6500,0.4800,11.8570,0.0371,0.0393,0.7854,-20.38,90.75,264.63,2.9483,9.5700,0.4146,10.0224
3,4,1,2,1,17.005,17005,3.1000,8.3600,0.2700,8.9203,-0.0142,-0.0207,0.1822,-18.75,90.69,263.25,2.9683,9.4105,0.3955,9.8755
3,4,1,2,1,17.178,17178,5.5500,10.3300,0.9700,11.7666,-0.0295,-0.0022,0.5694,-20.50,90.94,265.38,3.3085,9.5317,0.4712,10.1006
3,4,1,2,1,17.308,17308,4.6500,9.4200,0.7700,10.5334,-0.0360,-0.0949,-0.4832,-20.44,91.13,265.75,3.4853,9.5170,0.5106,10.1480
3,4,1,2,1,17.439,17439,5.1400,9.7900,0.5500,11.0710,0.0000,-0.0196,0.7669,-20.25,91.06,266.06,3.7033,9.5530,0.5158,10.2586
3,4,1,2,1,17.570,17570,3.1100,9.9600,0.4900,10.4458,-0.0262,-0.0622,0.0687,-20.31,91.06,266.63,3.6252,9.6066,0.5124,10.2806
3,5,1,2,1,17.706,17706,0.8500,8.8000,0.2500,8.8445,-0.0764,-0.1484,-0.9305,-17.88,91.00,264.94,3.2595,9.5003,0.4778,10.0553
3,5,1,2,1,17.836,17836,2.7600,9.6300,0.4900,10.0297,-0.0305,-0.0273,0.4156,-20.25,91.19,267.63,3.1936,9.5174,0.4794,10.0504
3,5,1,2,1,17.967,17967,0.4000,9.6500,0.1300,9.6592,-0.0829,-0.0644,-0.3371,-18.25,91.56,266.13,2.8255,9.5349,0.4334,9.9541
3,5,1,2,1,18.098,18098,5.5700,10.8100,1.3600,12.2364,-0.0338,-0.0371,-0.2913,-21.00,91.88,268.94,3.1872,9.7029,0.5555,10.2280
3,5,1,2,1,18.271,18271,-0.6600,7.2300,0.1400,7.2614,0.0567,-0.1200,-1.3155,-11.56,91.25,260.38,2.6802,9.3770,0.5007,9.7654
3,5,1,2,1,18.401,18401,2.6400,9.5500,0.8900,9.9481,0.2171,0.0480,0.8225,-13.56,90.00,262.06,2.6749,9.3998,0.5520,9.7886
3,5,1,2,1,18.532,18532,2.8200,8.3700,0.0900,8.8327,0.1854,0.0240,0.1134,-15.25,88.50,263.44,2.6940,9.2641,0.4911,9.6604
3,5,1,2,1,18.665,18665,2.6100,8.8400,0.4300,9.2273,0.0796,0.0884,0.9817,-16.50,87.75,264.25,2.6830,9.2082,0.4831,9.6033
3,5,1,2,1,18.798,18798,2.1200,9.2000,1.0300,9.4971,-0.0556,0.0720,0.0109,-16.44,88.06,263.75,2.6088,9.2071,0.5552,9.5857
3,5,1,2,1,18.928,18928,0.8800,9.3900,1.2000,9.5072,-0.0044,0.0458,0.1385,-16.38,88.38,263.31,2.3810,9.2312,0.6401,9.5548
3,5,1,2,1,19.059,19059,3.1800,10.0700,1.1300,10.6205,0.0284,-0.0022,-0.6556,-18.75,88.25,265.13,2.4863,9.3418,0.7047,9.6926
3,5,1,2,1,19.189,19189,1.5900,8.1200,0.7300,8.3063,0.0404,0.0273,-0.2182,-16.06,88.00,262.25,2.3682,9.1808,0.7080,9.5077
3,5,1,2,1,19.362,19362,1.9000,9.5000,0.9900,9.7386,0.0240,-0.0175,-0.5727,-18.00,87.63,263.69,2.3065,9.2228,0.7452,9.5360
3,5,1,2,1,19.493,19493,1.0300,8.3400,0.7600,8.4377,-0.0109,0.0164,-0.0578,-17.31,87.56,262.94,2.1383,9.1065,0.7471,9.3840
3,5,1,2,1,19.624,19624,2.0900,9.3400,1.1600,9.6410,-0.0360,0.0218,0.0971,-19.31,87.81,264.69,2.1319,9.1373,0.8015,9.4169
3,5,1,2,1,19.756,19756,2.8800,8.7100,0.9400,9.2218,-0.0404,0.0240,0.2563,-20.94,88.06,266.25,2.2305,9.0810,0.8198,9.3867
3,5,1,2,1,19.887,19887,4.6900,9.4500,0.8300,10.5824,-0.0436,0.0589,0.8290,-25.00,88.06,270.19,2.5546,9.1296,0.8211,9.5158
3,5,1,2,1,20.021,20021,2.1300,7.9300,0.6800,8.2392,-0.1604,-0.0175,-0.3600,-22.88,89.06,268.44,2.4986,8.9715,0.8025,9.3475
3,5,1,2,1,20.151,20151,7.8900,10.6700,1.8500,13.3986,0.0349,0.0611,1.4464,-30.00,89.75,275.44,3.2091,9.1953,0.9406,9.7845
3,5,1,2,1,20.282,20282,1.3800,7.6900,0.0700,7.8132,0.0818,-0.1931,-1.3363,-22.50,88.75,268.75,2.9681,8.9970,0.8258,9.5098
3,5,1,2,1,20.455,20455,12.5900,9.2500,0.2300,15.6245,-0.0251,-0.0927,0.0796,-32.06,87.88,278.06,4.2360,9.0303,0.7473,10.0024
3,6,1,2,1,20.586,20586,-0.5000,6.6400,0.2600,6.6639,-0.1647,0.0458,0.0469,-23.00,88.75,270.06,3.6119,8.7153,0.6831,9.4588
3,6,1,2,1,20.717,20717,2.1900,8.4500,0.8800,8.7734,-0.2553,0.0436,-0.4985,-25.44,90.56,272.25,3.4245,8.6804,0.7091,9.3584
3,6,1,2,1,20.852,20852,8.8000,11.1800,1.2000,14.2784,-0.0109,0.0425,-0.4069,-32.56,91.69,278.44,4.1329,9.0098,0.7737,9.9426
3,6,1,2,1,20.982,20982,7.5600,7.9200,0.4500,10.9582,0.1113,0.0240,0.0796,-30.63,91.13,276.19,4.5845,8.8662,0.7311,10.0080
3,6,1,2,1,21.128,21128,0.6900,6.8400,-0.6400,6.9044,-0.1833,0.0785,-0.0011,-22.56,91.50,268.56,4.0713,8.5992,0.5504,9.5302
3,6,1,2,1,21.263,21263,7.6200,10.8100,1.0700,13.2690,-0.0535,0.3349,2.7314,-32.06,93.63,277.44,4.5389,8.8905,0.6189,10.0013
3,6,1,2,1,21.394,21394,4.2700,8.7800,0.5800,9.7805,-0.0207,-0.0142,-0.6578,-31.56,94.44,276.75,4.5035,8.8759,0.6138,9.9720
3,6,1,2,1,21.567,21567,5.3600,8.0900,-0.5100,9.7179,0.0055,-0.0458,-0.7712,-33.63,94.31,278.44,4.6164,8.7724,0.4657,9.9238
3,6,1,2,1,21.700,21700,7.2400,8.1800,-0.3000,10.9279,0.0109,-0.0338,-0.3163,-35.06,94.19,279.81,4.9621,8.6943,0.3648,10.0173
3,6,1,2,1,21.831,21831,6.1900,8.4900,0.1000,10.5074,0.0295,0.0535,1.2032,-34.00,94.00,278.88,5.1239,8.6674,0.3299,10.0741
3,6,1,2,1,21.965,21965,4.8400,8.4100,0.3900,9.7111,0.0360,-0.0600,0.0556,-35.19,93.69,280.25,5.0865,8.6335,0.3378,10.0261
3,6,1,2,1,22.095,22095,3.7500,7.6300,0.4800,8.5153,0.0196,-0.1680,-0.8181,-33.19,92.81,278.69,4.9104,8.5012,0.3565,9.8239
3,6,1,2,1,22.226,22226,7.6800,9.2300,0.4500,12.0157,0.0240,-0.1593,-0.4287,-36.88,92.06,282.56,5.2753,8.5973,0.3689,10.0935
3,6,1,2,1,22.356,22356,7.7300,8.2200,0.6600,11.3030,0.0076,-0.0524,0.6305,-37.25,91.38,283.56,5.5988,8.5476,0.4072,10.2261
3,6,1,2,1,22.486,22486,6.8000,8.6500,0.8000,11.0319,-0.0567,-0.0905,-0.0436,-37.19,91.19,284.19,5.7571,8.5611,0.4590,10.3270
3,6,1,2,1,22.659,22659,9.0000,9.1100,0.8700,12.8355,-0.0589,-0.0262,0.5443,-39.50,91.44,287.31,6.1844,8.6334,0.5131,10.6323
3,6,1,2,1,22.790,22790,7.3000,8.7400,0.9100,11.4239,-0.0360,-0.0742,0.2400,-38.75,91.38,287.44,6.3314,8.6474,0.5654,10.7324
3,6,1,2,1,22.925,22925,7.6700,6.7400,0.3500,10.2166,0.0218,-0.0535,-0.1134,-37.13,90.88,286.50,6.5078,8.3961,0.5371,10.6365
3,6,1,2,1,23.057,23057,1.1600,6.7900,-0.3800,6.8988,0.1494,-0.0011,-0.1124,-27.50,90.00,277.94,5.8031,8.1844,0.4162,10.0416
3,6,1,2,1,23.188,23188,0.1500,7.2200,0.2100,7.2246,-0.0142,-0.0491,0.1025,-23.75,89.56,274.56,5.0582,8.0574,0.3890,9.5214
3,7,1,2,1,23.318,23318,8.2600,10.5200,1.2900,13.4373,0.0447,-0.0971,-0.8432,-34.13,88.94,284.19,5.4801,8.3819,0.5078,10.0272
3,7,1,2,1,23.448,23448,1.5500,6.3600,0.9600,6.6162,0.0316,-0.0873,-1.0177,-26.25,88.31,276.75,4.9622,8.1154,0.5674,9.5292
3,7,1,2,1,23.579,23579,9.3800,9.7700,1.9700,13.6864,0.1462,0.0109,0.5792,-32.50,87.44,282.25,5.5444,8.3335,0.7522,10.0375
3,7,1,2,1,23.752,23752,4.3800,7.4500,1.0600,8.7069,0.1396,-0.0447,-0.6360,-28.38,85.88,277.88,5.3909,8.2170,0.7927,9.8595
3,7,1,2,1,23.883,23883,6.8800,8.3500,1.6400,10.9429,0.1080,0.0862,0.6556,-30.19,85.00,279.06,5.5871,8.2346,0.9044,9.9921
3,7,1,2,1,24.015,24015,4.5000,7.9500,1.3000,9.2273,0.0033,0.0949,-0.1942,-28.13,85.00,276.44,5.4439,8.1971,0.9565,9.8865
3,7,1,2,1,24.146,24146,2.6500,7.4100,1.4600,8.0039,-0.0524,0.1298,0.0524,-26.63,85.69,274.38,5.0757,8.0934,1.0229,9.6079
3,7,1,2,1,24.280,24280,6.3800,9.0100,1.4700,11.1376,-0.0371,0.1767,0.5825,-29.06,86.25,275.94,5.2476,8.2141,1.0818,9.8071
3,7,1,2,1,24.410,24410,3.8300,8.0100,0.9400,8.9282,-0.0436,0.1233,0.3109,-26.00,87.19,272.50,5.0608,8.1872,1.0631,9.6836
3,7,1,2,1,24.541,24541,1.2100,8.6100,0.6000,8.7153,-0.0862,0.1233,0.1822,-22.81,88.13,269.00,4.5534,8.2430,1.0021,9.4701
3,7,1,2,1,24.671,24671,3.8200,9.3900,0.8800,10.1754,-0.1124,0.0960,-0.3840,-25.94,89.19,271.38,4.4567,8.3941,0.9860,9.5549
3,7,1,2,1,24.844,24844,4.9500,8.6700,0.6600,10.0053,-0.0687,0.1440,0.3011,-27.38,90.56,272.06,4.5217,8.4305,0.9430,9.6129
3,7,1,2,1,24.974,24974,4.8400,9.0900,0.7300,10.3241,-0.0316,0.1222,0.7767,-27.75,91.38,272.00,4.5637,8.5174,0.9150,9.7062
3,7,1,2,1,25.105,25105,3.3900,9.7400,0.0700,10.3133,0.0076,-0.0120,-0.0851,-27.81,91.63,271.94,4.4090,8.6785,0.8036,9.7674
3,7,1,2,1,25.236,25236,6.2500,8.0500,0.1500,10.1925,-0.0360,-0.0731,-0.8050,-30.06,91.69,274.13,4.6516,8.5957,0.7175,9.7999
3,7,1,2,1,25.368,25368,6.7900,9.0400,0.0700,11.3062,-0.0175,0.0415,0.7265,-29.63,91.81,274.00,4.9334,8.6542,0.6322,9.9817
3,7,1,2,1,25.499,25499,6.9200,8.9500,0.4400,11.3218,-0.0425,0.0153,0.5705,-30.69,92.06,275.31,5.1952,8.6932,0.6068,10.1454
3,7,1,2,1,25.633,25633,5.0300,8.9600,0.6200,10.2940,-0.0207,0.0000,0.6250,-30.81,92.38,275.88,5.1734,8.7284,0.6086,10.1646
3,7,1,2,1,25.763,25763,4.3200,9.3600,0.4300,10.3178,-0.0229,-0.0425,0.3752,-30.06,92.44,275.69,5.0609,8.8116,0.5850,10.1784
3,7,1,2,1,25.936,25936,5.0600,8.5600,0.5100,9.9568,-0.0175,-0.0458,-0.0491,-30.44,92.31,276.56,5.0608,8.7784,0.5752,10.1491
3,7,1,2,1,26.066,26066,4.4900,9.1500,0.4500,10.2022,-0.0044,-0.0218,0.0000,-30.56,92.25,276.88,4.9856,8.8274,0.5587,10.1534
3,7,1,2,1,26.197,26197,8.1000,8.3500,0.4600,11.6423,-0.0098,0.0196,-0.0916,-33.88,92.38,280.00,5.3960,8.7645,0.5457,10.3068
3,7,1,2,1,26.327,26327,4.2500,9.6700,0.0800,10.5630,0.0567,0.1014,1.2054,-32.69,92.44,278.75,5.2450,8.8838,0.4843,10.3279
3,7,1,2,1,26.460,26460,5.4400,8.3800,0.5800,10.0077,0.0818,0.1080,0.8203,-35.94,92.50,281.38,5.2707,8.8174,0.4969,10.2846
3,7,1,2,1,26.590,26590,5.1600,7.7700,0.4800,9.3396,0.0633,0.0316,-0.3622,-35.44,92.25,280.31,5.2561,8.6794,0.4947,10.1589
3,7,1,2,1,26.724,26724,6.7000,7.4200,0.8900,10.0369,0.0611,0.0273,-0.1865,-35.50,92.13,279.81,5.4464,8.5134,0.5468,10.1213
3,7,1,2,1,26.854,26854,3.9400,8.5300,0.2900,9.4005,0.0709,0.0327,0.1473,-32.88,91.63,276.81,5.2479,8.5156,0.5129,10.0159
3,7,1,2,1,27.027,27027,-1.3700,10.5200,0.4500,10.6184,0.1189,-0.0425,-0.2836,-25.31,90.63,269.38,4.3758,8.7797,0.5046,9.8227
3,7,1,2,1,27.157,27157,4.4700,6.6600,0.7700,8.0579,0.0796,-0.2073,-2.5449,-24.19,89.50,268.13,4.3882,8.5004,0.5396,9.5815
3,7,1,2,1,27.287,27287,-1.2100,6.8000,0.1600,6.9087,0.1407,-0.0371,0.2694,-12.88,88.44,257.75,3.6505,8.2763,0.4896,9.0589
3,8,1,2,1,27.417,27417,6.5300,11.8200,1.1600,13.5536,0.0556,-0.1494,-0.7058,-20.44,87.38,264.94,4.0300,8.7433,0.5779,9.6447
3,8,1,2,1,27.547,27547,0.0300,7.7800,0.6100,7.8039,0.0120,-0.1309,-0.3196,-14.31,86.81,259.75,3.5029,8.6164,0.5822,9.3194
3,8,1,2,1,27.677,27677,4.1200,9.5300,1.5400,10.4960,-0.0545,-0.0993,-0.1113,-18.06,86.69,263.94,3.5842,8.7368,0.7084,9.4699
3,8,1,2,1,27.807,27807,2.2700,8.6700,1.4800,9.0836,-0.0982,-0.0905,-0.0556,-17.00,87.06,263.75,3.4110,8.7280,0.8101,9.4058
3,8,1,2,1,27.938,27938,4.1600,9.3800,1.6500,10.3929,-0.1113,-0.0807,0.1898,-18.63,87.63,266.13,3.5097,8.8139,0.9207,9.5315
3,8,1,2,1,28.111,28111,0.9900,8.5300,0.6700,8.6134,-0.1451,-0.1189,-0.5225,-16.75,88.56,265.50,3.1777,8.7765,0.8877,9.3762
3,8,1,2,1,28.242,28242,1.0300,8.3700,0.4000,8.4426,-0.1440,-0.0753,0.0142,-17.31,89.31,266.81,2.8947,8.7229,0.8234,9.2275
3,8,1,2,1,28.373,28373,4.6100,9.3000,0.3800,10.3868,-0.1691,-0.0807,-0.3011,-20.81,90.25,270.94,3.1207,8.7990,0.7650,9.3673
3,8,1,2,1,28.504,28504,1.9000,8.8200,0.3400,9.0287,-0.1102,-0.0120,0.6850,-16.75,91.19,267.94,2.9598,8.8017,0.7090,9.3131
3,8,1,2,1,28.639,28639,-0.1100,9.6100,0.0200,9.6106,-0.1473,-0.1418,-1.0385,-15.38,91.94,267.25,2.5553,8.9082,0.6182,9.2881
3,8,1,2,1,28.770,28770,3.1900,8.9300,0.2200,9.4852,-0.1320,-0.1396,-1.2534,-17.06,92.56,269.50,2.6390,8.9111,0.5657,9.3109
3,8,1,2,1,28.900,28900,4.5000,9.6200,0.0100,10.6205,-0.0687,0.0098,0.7330,-19.00,93.19,271.81,2.8842,9.0045,0.4925,9.4680
3,8,1,2,1,29.030,29030,-1.3900,10.3800,-0.1400,10.4736,-0.0207,0.0360,0.7450,-14.88,93.63,268.31,2.3210,9.1858,0.4092,9.4833
3,8,1,2,1,29.203,29203,0.3400,9.5600,-0.0500,9.5662,0.0065,0.0185,-0.0818,-18.19,93.81,271.25,2.0599,9.2351,0.3486,9.4685
3,8,1,2,1,29.333,29333,2.6700,10.1200,0.0200,10.4663,0.0436,0.0196,-0.3731,-19.19,93.63,271.88,2.1403,9.3517,0.3053,9.5984
3,8,1,2,1,29.464,29464,2.8700,9.6300,-0.1700,10.0500,0.1080,0.1025,0.2596,-16.56,93.19,268.75,2.2365,9.3884,0.2427,9.6541
3,8,1,2,1,29.595,29595,-1.6000,10.3300,-0.2400,10.4559,0.0360,0.0207,-1.0701,-12.00,92.63,263.56,1.7309,9.5125,0.1791,9.6703
3,8,1,2,1,29.727,29727,-1.7300,9.7600,0.3300,9.9176,0.0785,0.0524,-1.0417,-9.69,92.06,260.25,1.2749,9.5451,0.1990,9.6319
3,8,1,2,1,29.858,29858,3.0800,9.8200,0.5300,10.3053,0.0851,0.1418,-0.2214,-12.06,91.44,261.19,1.5127,9.5813,0.2426,9.7030
3,8,1,2,1,29.992,29992,2.8500,10.0500,0.6100,10.4641,0.0654,0.1963,0.6305,-11.44,91.19,259.31,1.6889,9.6431,0.2910,9.7942
3,8,1,2,1,30.122,30122,-3.8200,10.6700,0.3100,11.3374,0.0055,0.1614,0.4265,-7.44,91.31,254.56,0.9630,9.7784,0.2935,9.8301
3,8,1,2,1,30.295,30295,1.8300,10.6400,0.5600,10.8107,-0.0175,0.1167,0.4974,-9.69,91.69,255.69,1.0773,9.8919,0.3286,9.9558
3,8,1,2,1,30.425,30425,3.3900,10.2500,0.6800,10.8174,0.0196,-0.0087,-0.5269,-10.31,91.75,255.81,1.3820,9.9391,0.3749,10.0417
3,8,1,2,1,30.555,30555,2.4000,9.5800,0.8500,9.9126,0.1004,0.0371,1.1039,-10.25,91.31,255.81,1.5162,9.8918,0.4375,10.0169
3,8,1,2,1,30.685,30685,-0.3300,9.5800,0.9000,9.6278,0.0578,-0.1494,-0.7232,-9.06,90.69,255.19,1.2729,9.8507,0.4985,9.9451
3,8,1,2,1,30.815,30815,4.9000,9.7500,0.7900,10.9406,0.0993,-0.0633,0.9523,-14.13,89.81,260.63,1.7508,9.8374,0.5369,10.0064
3,8,1,2,1,30.945,30945,2.5000,6.0100,0.0600,6.5095,0.0000,-0.0709,-0.0676,-13.56,89.31,260.81,1.8496,9.3331,0.4740,9.5264
3,8,1,2,1,31.075,31075,-4.5400,8.4400,-0.1900,9.5855,-0.0262,-0.0862,0.2171,-5.56,89.38,254.19,1.0076,9.2154,0.3865,9.2784
3,9,1,2,1,31.205,31205,4.1300,12.1000,0.8600,12.8143,-0.0753,-0.1800,-0.4789,-13.00,89.38,261.88,1.4190,9.5955,0.4489,9.7103
3,9,1,2,1,31.378,31378,-1.6000,8.0300,0.2500,8.1917,-0.0764,-0.0382,1.0363,-6.13,90.25,256.50,1.0212,9.3892,0.4227,9.4540
3,9,1,2,1,31.509,31509,1.7400,10.6100,0.7000,10.7745,-0.1396,-0.1865,-1.0167,-10.00,90.88,260.88,1.1159,9.5501,0.4593,9.6260
3,9,1,2,1,31.639,31639,0.8800,9.0800,0.4500,9.1336,-0.0818,-0.1004,-0.0742,-8.38,91.38,260.06,1.0848,9.4881,0.4580,9.5609
3,9,1,2,1,31.774,31774,2.2100,10.1000,0.3900,10.3463,-0.0600,-0.0938,-0.2040,-10.00,91.69,262.31,1.2331,9.5688,0.4491,9.6583
3,9,1,2,1,31.905,31905,0.8800,9.0700,0.1600,9.1140,-0.0644,-0.0884,-0.4756,-8.75,92.00,261.69,1.1866,9.5030,0.4110,9.5856
3,9,1,2,1,32.037,32037,1.5400,9.4200,0.1000,9.5456,-0.0327,-0.0033,0.2596,-10.00,92.31,263.19,1.2331,9.4921,0.3700,9.5790
3,9,1,2,1,32.167,32167,1.1800,9.7100,0.2400,9.7844,-0.0065,-0.0033,0.0065,-10.00,92.38,263.31,1.2261,9.5208,0.3529,9.6059
3,9,1,2,1,32.298,32298,1.3600,8.8700,0.1600,8.9751,-0.0142,-0.0262,-0.7276,-9.13,92.44,262.38,1.2438,9.4351,0.3275,9.5223
3,9,1,2,1,32.470,32470,2.5500,9.5600,0.3400,9.9001,-0.0087,-0.0349,-1.0254,-11.13,92.31,263.94,1.4159,9.4515,0.3291,9.5627
3,9,1,2,1,32.601,32601,2.6200,9.1700,0.5700,9.5540,0.0720,0.1113,0.8596,-9.56,92.13,262.19,1.5746,9.4144,0.3609,9.5520
3,9,1,2,1,32.731,32731,0.1000,9.5200,0.4400,9.5307,0.0982,0.0742,0.5923,-9.06,91.75,261.44,1.3803,9.4283,0.3713,9.5361
3,9,1,2,1,32.862,32862,3.0200,9.6600,0.5200,10.1344,0.0469,-0.0022,-0.4669,-11.75,91.31,263.44,1.5963,9.4589,0.3909,9.6006
3,9,1,2,1,32.992,32992,0.5600,9.4000,0.6500,9.4391,0.0360,0.0971,0.2476,-8.56,91.13,260.00,1.4598,9.4511,0.4250,9.5726
3,9,1,2,1,33.128,33128,-0.2700,9.6900,0.3900,9.7016,-0.0665,-0.0109,-1.0407,-8.44,91.13,259.31,1.2318,9.4826,0.4204,9.5715
3,9,1,2,1,33.258,33258,0.7000,9.1100,0.8500,9.1763,-0.0753,0.0567,-0.5345,-8.25,91.50,258.50,1.1618,9.4335,0.4770,9.5167
3,9,1,2,1,33.390,33390,1.5500,9.9900,0.4700,10.1204,-0.1102,0.0938,-0.0480,-8.38,92.25,257.94,1.2129,9.5068,0.4761,9.5957
3,9,1,2,1,33.562,33562,1.4100,10.1600,0.1300,10.2582,-0.1364,0.0556,-0.5563,-7.88,93.50,256.75,1.2389,9.5929,0.4305,9.6821
3,9,1,2,1,33.692,33692,1.1400,9.3100,0.2400,9.3826,-0.1265,0.0458,-0.4832,-6.44,94.38,254.88,1.2259,9.5556,0.4054,9.6425
3,9,1,2,1,33.822,33822,1.1900,10.0600,-0.1500,10.1312,-0.0840,0.0458,-0.3262,-5.31,95.13,253.38,1.2211,9.6221,0.3322,9.7049
3,9,1,2,1,33.952,33952,0.2300,10.6100,-0.1800,10.6140,-0.0218,0.0447,-0.1124,-4.13,95.50,251.81,1.0905,9.7523,0.2647,9.8166
3,9,1,2,1,34.082,34082,1.2700,10.7200,-0.4300,10.8035,0.0436,0.0884,0.5443,-3.69,95.13,251.06,1.1142,9.8798,0.1732,9.9439
3,9,1,2,1,34.212,34212,-0.2400,11.0700,-0.2700,11.0759,0.0698,0.0753,0.5890,-4.38,94.75,251.38,0.9357,10.0366,0.1148,10.0808
3,9,1,2,1,34.342,34342,1.4900,11.0200,-0.0800,11.1206,0.0731,0.0196,-0.0894,-7.00,94.25,253.50,1.0088,10.1662,0.0891,10.2165
3,9,1,2,1,34.472,34472,0.4100,10.7900,0.2600,10.8009,0.0971,0.0262,0.1582,-6.75,93.63,253.06,0.9299,10.2484,0.1116,10.2911
3,9,1,2,1,34.645,34645,-2.1700,10.7300,-0.1000,10.9477,0.0862,-0.0055,-0.0884,-4.88,92.75,251.06,0.5214,10.3119,0.0837,10.3254
3,9,1,2,1,34.777,34777,0.5700,8.9800,0.8400,9.0372,0.0240,-0.1091,-1.6046,-7.50,92.13,253.44,0.5278,10.1364,0.1834,10.1518
3,9,1,2,1,34.907,34907,0.6000,7.5600,0.5800,7.6059,0.1309,0.1091,1.7911,-7.00,91.63,253.06,0.5373,9.7969,0.2357,9.8144
3,9,1,2,1,35.040,35040,-1.1500,6.8200,0.2400,6.9204,0.0425,-0.1713,-1.3254,-7.25,91.00,253.56,0.3150,9.4046,0.2362,9.4128
3,10,1,2,1,35.171,35171,5.5300,9.3600,0.1200,10.8722,-0.0480,-0.0207,0.1931,-11.38,90.75,257.56,1.0022,9.3987,0.2209,9.4546
3,10,1,2,1,35.304,35304,0.6500,9.2900,0.3800,9.3205,-0.1124,-0.0109,-0.0665,-8.06,91.44,254.75,0.9558,9.3844,0.2419,9.4360
3,10,1,2,1,35.434,35434,2.4800,10.1900,0.5900,10.5040,-0.1124,-0.0087,0.0807,-9.69,92.25,256.44,1.1566,9.4905,0.2877,9.5651
3,10,1,2,1,35.564,35564,1.9100,9.5900,0.4900,9.7906,-0.0742,-0.0785,-0.2803,-7.81,92.88,255.06,1.2559,9.5037,0.3144,9.5914
3,10,1,2,1,35.737,35737,2.0500,9.9000,0.1900,10.1118,-0.0425,-0.0840,-0.0185,-8.75,93.25,256.75,1.3605,9.5559,0.2980,9.6568
3,10,1,2,1,35.867,35867,2.1800,9.6100,-0.0300,9.8542,-0.0458,-0.0840,0.1473,-9.88,93.44,258.50,1.4685,9.5630,0.2548,9.6785
3,10,1,2,1,35.997,35997,2.2000,9.7000,-0.1400,9.9473,-0.0447,-0.0327,0.8236,-11.25,93.75,260.56,1.5649,9.5811,0.2028,9.7101
3,10,1,2,1,36.127,36127,2.1300,8.5200,-0.0400,8.7823,-0.0764,-0.0982,-0.3894,-11.44,94.13,261.38,1.6394,9.4412,0.1708,9.5840
3,10,1,2,1,36.257,36257,1.6200,8.5200,-0.0600,8.6729,-0.0273,0.0153,1.2599,-12.50,94.56,262.94,1.6368,9.3198,0.1404,9.4635
3,10,1,2,1,36.387,36387,2.7900,9.2000,0.1100,9.6144,-0.0862,-0.1178,-1.1236,-15.13,94.94,265.88,1.7888,9.3041,0.1364,9.4754
3,10,1,2,1,36.517,36517,7.5700,9.6000,0.3500,12.2306,-0.0567,-0.0207,0.1702,-19.13,95.44,269.88,2.5506,9.3431,0.1645,9.6863
3,10,1,2,1,36.647,36647,3.2800,9.5600,0.1300,10.1079,0.0360,0.0436,0.8988,-16.81,95.56,268.06,2.6467,9.3716,0.1600,9.7395
3,10,1,2,1,36.820,36820,0.1800,9.8500,0.0000,9.8516,0.1047,0.0207,1.0603,-14.25,95.13,266.06,2.3217,9.4347,0.1389,9.7171
3,10,1,2,1,36.950,36950,-1.7100,8.7400,-0.6300,8.9280,-0.0175,-0.1244,-0.6229,-13.50,94.69,265.50,1.7904,9.3431,0.0376,9.5132
3,10,1,2,1,37.082,37082,1.9000,9.3500,0.1000,9.5416,0.0251,-0.1167,-2.0475,-15.81,94.19,267.44,1.8048,9.3440,0.0458,9.5169
3,10,1,2,1,37.213,37213,4.9400,8.7700,0.1000,10.0661,0.0687,0.0884,0.5443,-15.69,93.81,267.00,2.2180,9.2684,0.0529,9.5302
3,10,1,2,1,37.348,37348,2.2000,9.7900,0.1900,10.0359,0.0654,0.2029,1.0003,-14.81,93.63,265.44,2.2156,9.3371,0.0710,9.5967
3,10,1,2,1,37.479,37479,2.0400,9.3100,0.8600,9.5696,0.0109,0.0851,-0.7603,-14.06,93.63,263.44,2.1925,9.3336,0.1750,9.5892
3,10,1,2,1,37.609,37609,3.3700,10.2200,0.4400,10.7703,0.0829,0.1080,-0.2814,-15.13,93.38,263.25,2.3476,9.4504,0.2099,9.7399
3,10,1,2,1,37.739,37739,1.1000,9.1700,0.6400,9.2579,0.0938,0.0502,-0.5192,-11.06,92.81,258.50,2.1832,9.4134,0.2666,9.6670
3,10,1,2,1,37.912,37912,1.0200,10.3200,0.3000,10.3746,0.0731,0.0087,-0.2280,-10.19,91.81,257.06,2.0299,9.5329,0.2710,9.7504
3,10,1,2,1,38.042,38042,1.8600,9.8400,0.8000,10.0462,0.0873,0.0164,0.4418,-10.69,91.25,257.38,2.0075,9.5734,0.3407,9.7875
3,10,1,2,1,38.173,38173,2.8000,9.6900,0.6200,10.1055,0.0338,0.0360,0.6490,-12.38,90.94,259.00,2.1120,9.5887,0.3775,9.8258
3,10,1,2,1,38.303,38303,2.4700,9.6500,0.6400,9.9816,-0.0458,0.0109,0.4691,-13.88,91.13,260.56,2.1592,9.5968,0.4121,9.8453
3,10,1,2,1,38.435,38435,1.4300,10.7400,0.6700,10.8555,-0.0720,0.0415,0.9348,-15.63,91.69,262.44,2.0631,9.7474,0.4461,9.9734
3,10,1,2,1,38.566,38566,-1.2900,10.5000,0.2700,10.5824,-0.2062,-0.2073,-2.3496,-12.56,92.38,259.81,1.6212,9.8466,0.4229,9.9881
3,10,1,2,1,38.700,38700,5.7700,9.5700,0.7100,11.1974,-0.0796,-0.0316,-0.3578,-15.75,92.94,262.94,2.1679,9.8102,0.4607,10.0574
3,10,1,2,1,38.832,38832,3.8700,10.1000,0.3200,10.8208,0.0022,0.0665,1.5446,-17.38,93.31,264.94,2.3922,9.8484,0.4422,10.1444
3,10,1,2,1,39.004,39004,1.3700,7.9700,0.7200,8.1189,0.0207,0.0011,1.2905,-10.69,93.56,259.31,2.2575,9.6008,0.4788,9.8743
3,10,1,2,1,39.134,39134,0.1400,5.8100,0.5100,5.8340,0.0087,-0.2629,-2.1337,-8.38,93.19,257.81,1.9785,9.1013,0.4829,9.3264
3,10,1,2,1,39.264,39264,4.6600,10.8000,-0.2800,11.7658,0.0873,0.0229,1.8817,-10.56,92.50,260.63,2.3318,9.3251,0.3824,9.6199
3,10,1,2,1,39.394,39394,-2.3600,8.0700,-0.3200,8.4141,-0.1014,-0.1342,-0.4189,-7.25,92.56,258.38,1.7136,9.1597,0.2898,9.3232
3,10,1,2,1,39.524,39524,1.8400,10.7600,0.5600,10.9305,-0.1244,-0.0993,-0.1353,-12.00,93.13,263.56,1.7302,9.3706,0.3254,9.5346
3,10,1,2,1,39.654,39654,0.4300,9.4700,0.1800,9.4815,-0.0654,-0.1113,-0.5814,-11.25,93.63,263.50,1.5589,9.3837,0.3063,9.5173
3,10,1,2,1,39.784,39784,2.5400,10.1600,0.3700,10.4792,0.0327,-0.0065,0.8399,-13.75,93.63,266.38,1.6882,9.4860,0.3147,9.6402
3,10,1,2,1,39.914,39914,1.2300,9.4900,-0.1700,9.5709,0.0436,-0.0011,0.2422,-14.75,93.38,267.56,1.6278,9.4865,0.2508,9.6284
3,10,1,2,1,40.087,40087,4.7200,9.6400,0.6400,10.7526,0.0578,0.1014,0.6305,-18.44,93.19,270.75,2.0353,9.5068,0.3021,9.7269
3,10,1,2,1,40.218,40218,2.8900,8.7500,0.5900,9.2338,0.0796,0.0829,0.6447,-16.63,92.88,268.69,2.1479,9.4070,0.3400,9.6551
3,10,1,2,1,40.348,40348,2.4100,9.4900,0.6300,9.8115,0.0360,0.0458,0.1222,-17.50,92.63,269.13,2.1824,9.4180,0.3782,9.6749
3,10,1,2,1,40.479,40479,1.9700,8.6300,0.0100,8.8520,-0.0207,0.0567,0.0894,-17.56,92.69,268.88,2.1544,9.3141,0.3297,9.5657
3,10,1,2,1,40.612,40612,3.2600,10.2000,0.7200,10.7325,-0.0513,0.0960,0.2825,-19.94,93.19,270.81,2.3001,9.4309,0.3811,9.7148
3,10,1,2,1,40.745,40745,1.5600,9.1300,0.0500,9.2625,-0.0960,-0.0044,-0.8661,-14.25,93.75,265.19,2.2026,9.3912,0.3375,9.6520
