timestamp_ms,phone_roll,phone_pitch,phone_yaw,phone_accelX,phone_accelY,phone_accelZ,phone_gyroX_rad,phone_gyroY_rad,phone_gyroZ_rad,esp32_roll,esp32_pitch,esp32_yaw,esp32_accelX,esp32_accelY,esp32_accelZ,esp32_gyroX_deg,esp32_gyroY_deg,esp32_gyroZ_deg,esp32_gyroX_rad,esp32_gyroY_rad,esp32_gyroZ_rad,esp32_qw,esp32_qx,esp32_qy,esp32_qz,esp32_quatNorm,diff_roll,diff_pitch,diff_yaw,diff_accelX,diff_accelY,diff_accelZ,diff_gyroX_rad,diff_gyroY_rad,diff_gyroZ_rad,phone_qw,phone_qx,phone_qy,phone_qz,diff_quat_angle_deg
1773306588799,-1.55,18.950000000000003,36.6,0.1,3.2250000000000005,9.325,-0.005235987755982992,-0.006981317007977317,0.030106929596902185,-1.8125,17.1875,108.1875,0.03999999910593033,3.069999933242798,9.5,0.010908307507634163,0.04254240170121193,-0.018544122576713562,0.00019038588182823261,0.0007425049813921851,-0.0003236559958570664,-0.57989501953125,0.10125732421875,0.11163330078125,-0.8006591796875,1.0000241973303783,-0.26249999999999996,-1.7625000000000028,71.5875,-0.06000000089406968,-0.15500006675720268,0.1750000000000007,0.005426373637811224,0.007723821989369502,-0.03043058559275925,0.9370864289066627,0.1604665932961645,0.30756650370306376,0.03901721408243697,116.78893295995215
1773306588909,-1.4666666666666668,19.233333333333334,36.63333333333333,0.2285714285714286,3.3714285714285714,9.257142857142856,0.028423933532479077,0.04288523304900352,0.08951045735228061,-1.8125,17.4375,108.25,0.25,3.1700000762939453,9.25,-0.09381144493818283,-0.039269909262657166,0.01636246219277382,-0.0016373185902246587,-0.0006853892135927863,0.00028557883899699426,-0.57928466796875,0.10247802734375,0.113525390625,-0.8006591796875,1.0000078044527205,-0.3458333333333332,-1.7958333333333343,71.61666666666667,0.021428571428571408,-0.20142849513462613,-0.007142857142856229,-0.030061252122703736,-0.0435706222625963,-0.08922487851328362,0.9365888413625578,0.16254426178709802,0.3077972050275941,0.04051648766157081,116.87996237503928
1773306589009,-1.2,20.100000000000005,37,0.2833333333333334,3.4,9.250000000000002,0.06137741202846726,0.04625122517784974,0.1899500002587162,-1.75,18,108.625,0.4699999988079071,3.009999990463257,9.510000228881836,-0.16798794269561768,-0.08290313929319382,0.06981316953897476,-0.002931942703690087,-0.0014469327409057167,0.0012184696697081214,-0.57647705078125,0.1043701171875,0.1181640625,-0.8017578125,0.9999986235042874,-0.55,-2.100000000000005,71.625,0.18666666547457372,-0.3900000095367431,0.26000022888183416,-0.06430935473215735,-0.04769815791875546,-0.18873153058900807,0.9343010714574796,0.1687522948621781,0.310685780937395,0.04559074879265474,117.2239434523116
1773306589109,-1.24,20.860000000000003,37.260000000000005,0.19999999999999998,3.5999999999999996,9.25,-0.006981317007977319,0.010471975511965976,0.1355539052382263,-1.5625,18.9375,108.875,0.38999998569488525,3.190000057220459,9.260000228881836,-0.09053895622491837,0.06763150542974472,0.03272492438554764,-0.0015802028874438412,0.001180392447829468,0.0005711576779939885,-0.57373046875,0.107421875,0.12591552734375,-0.8021240234375,0.999981889337216,-0.3225,-1.922500000000003,71.615,0.18999998569488527,-0.40999994277954066,0.010000228881835938,0.0054011141205334776,-0.009291583064136508,-0.13498274756023232,0.9325151151517649,0.1749377734477299,0.312302406184531,0.04774455493554999,117.9792176031368
1773306589209,-1.2200000000000002,21.900000000000002,37.38,0.03333333333333333,3.9,9.316666666666668,0.025889050571249222,0.0590503063591415,0.24463698348787183,-1.5625,19.75,108.9375,0.10999999940395355,3.5,9.4399995803833,-0.19634954631328583,-0.018544122576713562,0.0021816615480929613,-0.003426946067963931,-0.0003236559958570664,0.000038077177178378795,-0.57275390625,0.11138916015625,0.13177490234375,-0.80133056640625,0.9999749415208437,-0.3424999999999998,-2.150000000000002,71.5575,0.07666666607062023,-0.3999999999999999,0.12333291371663258,-0.02931599663921315,-0.05937396235499857,-0.24459890631069345,0.9306149804547225,0.18327466246100016,0.31267990111428506,0.050965043826371265,118.37436091060673
1773306589309,-1.2166666666666668,23.25,37.800000000000004,-0.033333333333333326,4.483333333333333,9.383333333333335,-0.05992297098513865,0.18442312429406751,0.3324852225049198,-1.5,21.5625,109.375,-0.2199999988079071,4.230000019073486,9.40999984741211,-0.31525009870529175,0.046905722469091415,0.07744898647069931,-0.005502152189644454,0.0008186592951123293,0.0013517398162462457,-0.5675048828125,0.12091064453125,0.14569091796875,-0.80133056640625,1.000018847928643,-0.2833333333333332,-1.6875,71.57499999999999,-0.18666666547457378,-0.25333331425984706,0.02666651407877474,0.054420818795494194,-0.1836044649989552,-0.33113348268867354,0.9273194726963198,0.19399904749104008,0.31523107327741356,0.05542865297983317,119.82895054931494
1773306589409,-1.9500000000000002,25.933333333333337,39.45,0.3666666666666667,4.616666666666667,9.350000000000001,-0.024143721319254897,0.3679735839621378,0.5794493116621173,-2.375,23.8125,110.75,0.27000001072883606,4.360000133514404,9.460000038146973,-0.6032294034957886,-0.021816615015268326,0.30543261766433716,-0.010528339235842902,-0.00038077176365646523,0.005330804821227676,-0.55621337890625,0.1351318359375,0.1575927734375,-0.8046875,0.9999956954177954,-0.4249999999999998,-2.120833333333337,71.3,-0.09666665593783064,-0.25666653315226284,0.11000003814697124,0.013615382083411995,-0.3683543557257943,-0.5741185068408896,0.9184761846168202,0.21678406971189546,0.32525814171707695,0.060110786533124703,122.80071513838244
1773306589509,-3.3666666666666667,28.833333333333332,41.933333333333344,0.85,4.516666666666667,8.700000000000001,-0.05555964785515283,0.31386837715031357,0.7147123286916779,-3.375,26.8125,112.75,1.159999966621399,4.010000228881836,9.119999885559082,-0.7123125195503235,0.06435901671648026,0.36106500029563904,-0.012432198769329623,0.0011232767450486503,0.006301773068873201,-0.538818359375,0.15411376953125,0.1759033203125,-0.809326171875,1.0000135543768904,-0.008333333333333304,-2.020833333333332,70.81666666666666,0.30999996662139895,-0.5066664377848307,0.41999988555908097,0.04312744908582321,-0.31274510040526493,-0.7084105556228046,0.9066111978236773,0.24256685826969748,0.3395781584714589,0.062483034009388615,127.54300216088723
1773306589609,-5.033333333333333,31.416666666666668,44.383333333333326,0.7833333333333333,5.033333333333334,8.166666666666666,0.0445058959258554,0.37699111843077526,0.730420291959627,-4.5,30.8125,114.5,0.7099999785423279,4.730000019073486,8.350000381469727,-0.675224244594574,0.09272061288356781,0.37088245153427124,-0.011784886257466841,0.001618279979285332,0.006473119917141328,-0.5213623046875,0.17816162109375,0.20074462890625,-0.80999755859375,0.9999773332142874,0.5333333333333332,-0.6041666666666679,70.11666666666667,-0.07333335479100545,-0.3033333142598478,0.1833337148030605,-0.056290782183322244,-0.37537283845148994,-0.7239471720424857,0.8949749549543862,0.2664093777718244,0.3522414004487135,0.06302276770781327,132.9086507511356
1773306589709,-5.866666666666667,35.13333333333334,47.26666666666667,0.9833333333333334,5.516666666666667,7.75,0.3909537524467299,0.23823744289722598,1.103338975469082,-5.25,34.3125,116.75,0.9399999976158142,4.980000019073486,8.140000343322754,-1.0330168008804321,-0.3130684196949005,0.3490658402442932,-0.0180295444037822,-0.005464074707691475,0.006092348218503444,-0.50067138671875,0.19512939453125,0.225341796875,-0.81268310546875,0.9999900366614627,0.6166666666666671,-0.82083333333334,69.48333333333332,-0.043333335717519184,-0.5366666475931803,0.3900003433227539,-0.4089832968505121,-0.24370151760491746,-1.0972466272505788,0.8784545330628704,0.29569770881530244,0.3675370558159944,0.07613810442075471,137.6555677636992
1773306589809,-4.980000000000001,41.339999999999996,49.9,0.7333333333333334,6.483333333333334,7.150000000000001,0.48491064384575794,0.057014088898481426,1.1894418852341357,-3.625,42.3125,119.625,0.6899999976158142,6.190000057220459,7.369999885559082,-1.1170107126235962,-0.4352414906024933,0.062177352607250214,-0.019495514715329943,-0.0075963970523014665,0.001085199523169997,-0.46893310546875,0.21087646484375,0.294677734375,-0.80548095703125,1.0000008400526095,1.3550000000000013,0.9725000000000037,69.725,-0.043333335717519184,-0.2933332761128753,0.2199998855590808,-0.5044061585610878,-0.06461048595078289,-1.1883566857109658,0.8539805180932698,0.33688754334150656,0.3803968291235965,0.11190312887130689,144.18761718294982
1773306589909,-3.5333333333333337,46.916666666666664,51.26666666666667,0.4166666666666667,7.283333333333334,6.050000000000001,0.4732751154991291,0.04828744263850977,1.1556988530289118,-3.625,42.3125,119.625,0.6899999976158142,6.190000057220459,7.369999885559082,-1.1170107126235962,-0.4352414906024933,0.062177352607250214,-0.019495514715329943,-0.0075963970523014665,0.001085199523169997,-0.46893310546875,0.21087646484375,0.294677734375,-0.80548095703125,1.0000008400526095,-0.09166666666666634,-4.604166666666664,68.35833333333332,0.2733333309491475,-1.0933332761128751,1.3199998855590813,-0.49277063021445905,-0.05588383969081124,-1.1546136535057419,0.831981267111364,0.37096736811775494,0.38560165263413304,0.1466347450414833,143.1094732605412
1773306590009,-2.15,52.5,52.06666666666666,0.18333333333333335,7.883333333333334,4.95,0.0538143186031585,-0.06574073515845309,0.7045312413883777,-0.625,54.375,122.4375,0,7.840000152587891,5.190000057220459,-0.9315694570541382,-0.1898045539855957,-0.11453723162412643,-0.016258954236610626,-0.003312714402327971,-0.0019990518079603787,-0.42840576171875,0.2257080078125,0.397705078125,-0.77935791015625,1.0000218411385022,1.525,1.875,70.37083333333334,-0.18333333333333335,-0.04333318074544312,0.2400000572204588,-0.07007327283976914,0.06242802075612512,-0.7065302931963381,0.8093750530261014,0.4047286331216434,0.38610680498508815,0.17896449987270913,152.07211677140225
1773306590109,-1.916666666666667,56.166666666666664,51.800000000000004,-0.05000000000000001,8.483333333333334,4.4,-0.1439896632895322,0.013089969389957472,0.32317679982761666,-0.3125,57.5,122.125,-0.27000001072883606,8.390000343322754,4.809999942779541,-0.5508695244789124,0,-0.06872233748435974,-0.009614486951052522,0,-0.0011994310587687947,-0.4241943359375,0.23577880859375,0.4195556640625,-0.76708984375,0.9999931324037529,1.604166666666667,1.3333333333333357,70.32499999999999,-0.22000001072883604,-0.09333299001058037,0.40999994277954066,0.13437517633847967,-0.013089969389957472,-0.32437623088638545,0.7969754547177723,0.42985782268185246,0.37823783264044536,0.19232399438467304,153.92848912703727
1773306590209,-3.3800000000000003,58.660000000000004,52.36,0.21666666666666667,8.516666666666667,4.133333333333334,-0.2583087292951608,0.16347917327013553,0.016871516102611853,-1,59.0625,121.8125,0.18000000715255737,8.380000114440918,4.610000133514404,-0.19853119552135468,0.12980885803699493,0.13417218625545502,-0.0034650230297682593,0.002265591970999465,0.0023417464147567715,-0.423095703125,0.24884033203125,0.42572021484375,-0.7601318359375,0.999984796974726,2.3800000000000003,0.4024999999999963,69.4525,-0.0366666595141093,-0.13666655222574953,0.47666680018107055,0.25484370626539254,-0.16121358129913607,-0.014529769687855082,0.7884089976481348,0.450740040852508,0.371505893487939,0.19294568951772648,155.76505271953184
1773306590309,-6.300000000000001,58.6,53.81666666666666,0.7333333333333334,8.366666666666667,4.3500000000000005,-0.5538511492995339,0.18704111817205898,-0.4657120220738203,-3.3125,58.5,121.625,0.7599999904632568,8.270000457763672,4.710000038146973,0.3392483592033386,0.43305981159210205,0.20180369913578033,0.005921000850086666,0.007558319570348487,0.003522138992623402,-0.42535400390625,0.2674560546875,0.40997314453125,-0.76123046875,1.0000042877999409,2.9875000000000007,-0.10000000000000142,67.80833333333334,0.026666657129923443,-0.09666620890299527,0.3600000381469721,0.5597721501496206,-0.17948279860171049,0.46923416106644367,0.788647078285475,0.45742555000727614,0.37009107209522,0.1784103429393476,157.25381632959667
1773306590409,-11.200000000000001,54.916666666666664,54.63333333333335,1.1833333333333336,7.8999999999999995,4.816666666666666,-1.6606807832726045,0.2728531397284469,-1.675806970123222,-3.3125,58.5,121.625,0.7599999904632568,8.270000457763672,4.710000038146973,0.3392483592033386,0.43305981159210205,0.20180369913578033,0.005921000850086666,0.007558319570348487,0.003522138992623402,-0.42535400390625,0.2674560546875,0.40997314453125,-0.76123046875,1.0000042877999409,7.887500000000001,3.5833333333333357,66.99166666666665,-0.42333334287007673,0.3700004577636724,-0.10666662851969377,1.6666017841226912,-0.2652948201580984,1.6793291091158455,0.8052791302967167,0.4474644427016657,0.3652888784783949,0.13366050308991012,159.86137011068004
1773306590509,-19.36666666666667,45.51666666666667,52.70000000000001,2.883333333333334,6.383333333333333,6.533333333333334,-1.8221237390820804,0.12130038301360593,-1.944296786721683,-15,44.875,115.0625,2.740000009536743,6.21999979019165,6.400000095367432,1.9700403213500977,1.854412317276001,0.20398534834384918,0.034383690004606345,0.032365600626003944,0.0035602159544277302,-0.4927978515625,0.31854248046875,0.23773193359375,-0.7740478515625,0.9999927915372915,4.366666666666671,-0.6416666666666728,62.36249999999999,-0.14333332379659103,-0.16333354314168247,-0.13333323796590246,1.8565074290866868,-0.088934782387602,1.9478570026761106,0.8434409388141083,0.4105575645015829,0.34515781518191635,0.0302646919982745,153.84872547933423
1773306590609,-26.8,34.63333333333333,46.96666666666667,3.866666666666667,5.066666666666667,6.566666666666667,-1.46927634197056,-0.10355620228499689,-1.8375408141413636,-21.8125,37.125,110.125,3.740000009536743,5.139999866485596,7.119999885559082,1.8860464096069336,1.6209745407104492,0.014180799946188927,0.0329177196930586,0.028291342826400202,0.0002475016496276315,-0.5382080078125,0.33685302734375,0.12109375,-0.76300048828125,0.9999856314520913,4.987500000000001,2.491666666666667,63.15833333333333,-0.12666665712992398,0.07333319981892839,0.5533332188924147,1.5021940616636185,0.1318475451113971,1.8377883157909913,0.879254235510596,0.3537293588292409,0.3067970262268417,-0.08753921828128271,151.0303951390489
1773306590709,-30.883333333333336,26.166666666666668,40.35,4.216666666666666,3.8000000000000007,7.016666666666667,-0.7237298631603152,-0.17831447191208732,-1.7453292519943295,-28.1875,28.6875,104.4375,4.949999809265137,3.609999895095825,7.079999923706055,2.0540342330932617,1.2184579372406006,-0.09817477315664291,0.03584966031615409,0.02126610280190691,-0.0017134730339819655,-0.576904296875,0.33599853515625,0.02386474609375,-0.744140625,1.0000141895300754,2.6958333333333364,2.520833333333332,64.0875,0.7333331425984708,-0.19000010490417552,0.06333325703938808,0.7595795234764693,0.19958057471399424,1.7436157789603475,0.9020617314252745,0.29425416475920896,0.2672353784990216,-0.1681795816928469,146.28318308960178
1773306590809,-30.983333333333338,19.3,34.4,4.1000000000000005,2.766666666666667,7.383333333333333,0.46309402819582873,-0.29932396671702755,-1.1917689909034612,-29.4375,19.375,99.9375,4.820000171661377,2.549999952316284,7.630000114440918,1.3646292686462402,-0.17780540883541107,-0.12435470521450043,0.023817273806959114,-0.0031032898120325397,-0.002170399046339994,-0.61407470703125,0.294921875,-0.0499267578125,-0.73040771484375,1.000027384234036,1.5458333333333378,0.07499999999999929,65.5375,0.7200001716613764,-0.21666671435038287,0.2466667811075851,-0.4392767543888696,0.296220676904995,1.1895985918571212,0.9207863265108526,0.23218024749539226,0.23816145837092798,-0.20377436867835133,137.79852483308414
1773306590909,-25.933333333333337,14.516666666666667,29.21666666666667,4.133333333333334,2.1999999999999997,9.250000000000002,0.9215338450530061,-0.3484840739815344,-0.9872745802114591,-24.25,13.5625,96.8125,3.880000114440918,2.6700000762939453,8.869999885559082,1.1562806367874146,-0.8464846611022949,-0.31088677048683167,0.020180904188997054,-0.014773944403863419,-0.005425997745887147,-0.6448974609375,0.231689453125,-0.05816650390625,-0.7259521484375,0.9999813007305155,1.6833333333333371,-0.9541666666666675,67.59583333333333,-0.2533332188924158,0.4700000762939456,-0.38000011444091975,-0.901352940864009,0.333710129577671,0.9818485824655719,0.9425909747780258,0.17527983510810086,0.21637645456056617,-0.1843379059859563,127.02156336137094
1773306591009,-19.666666666666668,10.65,25.233333333333334,3.85,1.5666666666666667,10.583333333333336,0.7138396640656809,-0.3921173052813927,-0.38280888260408963,-19.4375,9.75,95.125,3.690000057220459,1.2200000286102295,10.710000038146973,0.5574145317077637,-0.7526732087135315,-0.3479750156402588,0.009728718876762807,-0.013136625683601598,-0.00607330973760128,-0.66290283203125,0.1800537109375,-0.05426025390625,-0.7247314453125,1.0000196730645514,0.22916666666666785,-0.9000000000000004,69.89166666666667,-0.1599999427795411,-0.34666663805643716,0.12666670481363695,-0.704110945188918,0.37898067959779114,0.37673557286648834,0.9608290622940585,0.126376196794233,0.19882253331518346,-0.14596633235468529,117.44499372792319
1773306591112,-15.91666666666667,9.916666666666666,22.5,3.016666666666667,1.5999999999999999,9.633333333333335,0.3487749621902002,-0.45465827014452287,-0.14486232791552933,-15.9375,8.9375,92.75,2.869999885559082,1.4500000476837158,9.800000190734863,0.13089969754219055,-0.44396811723709106,-0.4832380414009094,0.002284630711975954,-0.007748705419667429,-0.008434094893334541,-0.68145751953125,0.1531982421875,-0.0411376953125,-0.7144775390625,1.0000122579925979,-0.020833333333330373,-0.9791666666666661,70.25,-0.14666678110758502,-0.14999995231628405,0.16666685740152865,-0.3464903314782243,0.44690956472485543,0.13642823302219478,0.9700390027997077,0.11086383601837312,0.18075165242798588,-0.11858491917268678,110.95001429836526
1773306591226,-14.185714285714287,9.62857142857143,19.7,2.8142857142857145,1.5000000000000002,9.571428571428571,0.1418703349121105,-0.5016574935732273,-0.17752491820285182,-14.1875,8.6875,90.4375,2.549999952316284,1.600000023841858,9.539999961853027,0.16253378987312317,-0.25852689146995544,-0.49523717164993286,0.002836749779030616,-0.004512145461096765,-0.008643519223555647,-0.6971435546875,0.1402587890625,-0.03466796875,-0.70220947265625,0.9999908376065362,-0.0017857142857131691,-0.9410714285714299,70.7375,-0.2642857619694303,0.10000002384185769,-0.03142860957554383,-0.1390335851330799,0.49714534811213057,0.1688813989792962,0.9760425041775957,0.10310508773463746,0.15895103865916765,-0.10698101808794189,106.77960206697128
1773306591326,-13.716666666666669,9.200000000000001,16.166666666666668,2.233333333333334,1.6499999999999997,9.483333333333334,0.08144869842640205,-0.5814855291227775,-0.12246393584826877,-13,8.1875,86.875,2.7100000381469727,1.3600000143051147,9.829999923706055,0.19089537858963013,-0.04581489413976669,-0.5443245768547058,0.003331752883230135,-0.0007996207491915839,-0.009500256065639536,-0.719970703125,0.12896728515625,-0.0343017578125,-0.68109130859375,1.0000261772723025,0.7166666666666686,-1.012500000000001,70.70833333333333,0.4766667048136388,-0.28999998569488494,0.3466665903727204,-0.07811694554317192,0.5806859083735859,0.11296367978262924,0.9811604874505176,0.09557117254085451,0.12967559062768977,-0.1066512542841793,102.50490199568354
1773306591426,-12.883333333333335,9.250000000000002,12.65,1.8499999999999999,1.5666666666666667,9.450000000000001,0.028797932657906443,-0.580903752705446,-0.17686003086875873,-12,8.25,83.8125,1.9800000190734863,1.4500000476837158,9.510000228881836,0.14508049190044403,-0.06872233748435974,-0.6065019369125366,0.002532132264075714,-0.0011994310587687947,-0.010585455718846696,-0.73834228515625,0.12310791015625,-0.03106689453125,-0.662353515625,0.9999911095551827,0.8833333333333346,-1.0000000000000018,71.1625,0.13000001907348646,-0.11666661898295083,0.06000022888183487,-0.02626580039383073,0.5797043216466773,0.16627457514991204,0.98541867547318,0.0919567247291224,0.1001246239514591,-0.10231839758496544,98.67602408837297
1773306591526,-11.966666666666669,9.033333333333333,9.25,1.7333333333333334,1.45,9.366666666666665,0.0456694487605183,-0.5759586531581289,-0.1972222054753593,-11.25,7.9375,80.4375,1.9600000381469727,1.2999999523162842,9.350000381469727,0.11671889573335648,-0.1276271939277649,-0.5955936312675476,0.002037129029839032,-0.0022275147491208113,-0.010395069869527753,-0.75830078125,0.11566162109375,-0.03106689453125,-0.64080810546875,0.99999893270376,0.7166666666666686,-1.0958333333333332,71.1875,0.22666670481363926,-0.15000004768371578,-0.0166662851969388,-0.04363231973067927,0.573731138409008,0.18682713560583153,0.9888971347462027,0.0864441545339965,0.0717635151930666,-0.0972618266576762,94.34607646186883
1773306591626,-10.983333333333334,8.583333333333334,5.900000000000001,1.5833333333333333,1.4666666666666668,9.700000000000001,0.0619591884457987,-0.5666502304808257,-0.14311699866353503,-10.625,7.3125,77.4375,1.7400000095367432,1.059999942779541,10.09000015258789,0.2705260217189789,-0.038179077208042145,-0.5585053563117981,0.004721569791317872,-0.0006663506026534595,-0.009747757357664972,-0.77545166015625,0.10748291015625,-0.03302001953125,-0.621337890625,1.000014474510699,0.3583333333333343,-1.270833333333334,71.5375,0.1566666762034099,-0.40666672388712577,0.39000015258788956,-0.05723761865448083,0.5659838798781723,0.13336924130587005,0.9916722042961301,0.07930289151940488,0.04393244293012108,-0.09147257010332448,90.3271078842247
1773306591726,-9.966666666666667,8.416666666666666,2.3833333333333337,1.6833333333333336,1.4333333333333333,9.650000000000002,0.02036217460660051,-0.5346525275275964,-0.13817189911621777,-9.8125,7.125,74.5,1.7799999713897705,1.1399999856948853,9.800000190734863,0.18762288987636566,-0.06108652427792549,-0.5388703942298889,0.0032746371804493173,-0.0010661609772492516,-0.009405062620831415,-0.79156494140625,0.10137939453125,-0.03125,-0.60174560546875,0.9999635864870057,0.15416666666666679,-1.291666666666666,72.11666666666666,0.09666663805643694,-0.2933333476384481,0.15000019073486115,-0.01708753742615119,0.5335863665503472,0.12876683649538637,0.9934517026691098,0.0748917315570078,0.014289406713313612,-0.08509263107943912,86.55676085249172
1773306591826,-9.566666666666668,8.083333333333334,298.98333333333335,1.5333333333333334,1.1666666666666667,9.5,0.0014544410433286001,-0.5762495413667944,-0.1521345331321724,-9.25,6.75,70.375,1.690000057220459,1.100000023841858,9.390000343322754,0.1690787672996521,0.07417649030685425,-0.607592761516571,0.002950981184592251,0.0012946239834282656,-0.01060449419974886,-0.813232421875,0.094482421875,-0.0328369140625,-0.57330322265625,1.0000143739293117,0.3166666666666682,-1.333333333333334,-228.60833333333335,0.15666672388712555,-0.06666664282480883,-0.1099996566772461,0.0014965401412636507,0.5775441653502227,0.14153003893242355,-0.8534357826297,-0.018284803692850012,0.5097010874834474,0.10732116426565952,104.2342281409658
1773306591931,-8.833333333333334,7.666666666666667,355.5833333333333,1.1833333333333336,1.1333333333333335,9.8,0.05992297098513864,-0.6611888982971852,-0.10239264945033401,-8.5,6.5,66.9375,1.2899999618530273,0.8899999856948853,9.880000114440918,0.09926559776067734,-0.11235556751489639,-0.6795875430107117,0.0017325115148841296,-0.001960974586081725,-0.011861040181075496,-0.83074951171875,0.08795166015625,-0.03094482421875,-0.54876708984375,0.9999915733578407,0.3333333333333339,-1.166666666666667,-288.6458333333333,0.10666662851969377,-0.24333334763844827,0.08000011444091726,-0.058190459470254516,0.6592279237111035,0.09053160926925852,-0.9938625808621233,-0.06364558916917891,0.043477334330371556,0.07934816154715074,78.36018155908125
1773306592042,-7.600000000000001,7.428571428571428,351.6,0.9000000000000001,1.2857142857142858,9.700000000000001,0.08252914034430331,-0.616849224204853,-0.09499577785854853,-7.75,6.375,63.625,1.2300000190734863,0.9599999785423279,9.800000190734863,0.11562806367874146,-0.05345070734620094,-0.6185010671615601,0.0020180904188997054,-0.0009328908307111271,-0.010794880049067802,-0.848388671875,0.08233642578125,-0.02813720703125,-0.52215576171875,0.9999904837006526,-0.14999999999999858,-1.053571428571428,-287.975,0.3300000190734862,-0.32571430717195793,0.10000019073486222,-0.0805110499254036,0.6159163333741419,0.08420089780948073,-0.9927171601626513,-0.05962152165363044,0.0772054495086625,0.0706911072234121,74.07967924697532
1773306592143,-5.78,7.359999999999999,347.32000000000005,0.7500000000000001,1.2500000000000002,9.583333333333334,0.1387536755335492,-0.4936372901057295,-0.05759586531581288,-6.6875,6.3125,60.125,0.699999988079071,1.1100000143051147,9.779999732971191,0.04363323003053665,-0.14071716368198395,-0.5705044865608215,0.0007615435273129305,-0.0024559778203184068,-0.009957181687886077,-0.86285400390625,0.0767822265625,-0.02313232421875,-0.49908447265625,1.0000164786858616,-0.9074999999999998,-1.0474999999999994,-287.19500000000005,-0.050000011920929066,-0.13999998569488548,0.19666639963785748,-0.13799213200623628,0.49118131228541106,0.0476386836279268,-0.9902160019192714,-0.05815413336924246,0.11327662631824645,0.05708565708689165,70.06317147146106
1773306592243,-4.550000000000002,7.216666666666668,344.7166666666667,0.7833333333333333,1.1500000000000001,9.616666666666667,0.16377006147880124,-0.48229264996776633,-0.09890199094634536,-5.4375,6.1875,57.375,0.8600000143051147,0.9399999976158142,9.550000190734863,0.06544984877109528,-0.20725785195827484,-0.4756022095680237,0.001142315355987977,-0.003617331917282873,-0.008300824486722091,-0.87493896484375,0.0706787109375,-0.01605224609375,-0.478759765625,0.9999911300444613,-0.8874999999999984,-1.0291666666666677,-287.3416666666667,0.07666668097178142,-0.21000000238418592,-0.06666647593180386,-0.16262774612281328,0.47867531805048347,0.09060116645962327,-0.9880424342734295,-0.05705941330750833,0.13508506368068338,0.04762769150845381,66.66969319940293
1773306592359,-3.5000000000000004,6.850000000000001,341.84999999999997,0.6,1.1428571428571428,9.614285714285716,0.10571708612079939,-0.5061454830783556,-0.07479982508547127,-4.125,5.8125,54.4375,0.9200000166893005,0.8299999833106995,9.65999984741211,0.06981316953897476,-0.15598879754543304,-0.5028730034828186,0.0012184696697081214,-0.002722518113394656,-0.008776789630168097,-0.88763427734375,0.0616455078125,-0.0089111328125,-0.45635986328125,1.000019255840159,-0.6249999999999996,-1.0375000000000014,-287.41249999999997,0.32000001668930056,-0.31285715954644333,0.04571413312639372,-0.10449861645109126,0.503422964964961,0.06602303545530318,-0.9849714249397259,-0.05415845933091163,0.15917364696169525,0.03952092417975119,63.249263285889384
1773306592459,-2.5999999999999996,6.625000000000001,338.82500000000005,0.16666666666666666,1.166666666666667,9.883333333333335,0.029088820866572163,-0.4194607968959705,-0.09453866781635953,-3.1875,5.5,51.625,0.4399999976158142,0.9700000286102295,9.510000228881836,0.07417649030685425,-0.11126473546028137,-0.5061454772949219,0.0012946239834282656,-0.0019419359751423984,-0.00883390507287459,-0.8990478515625,0.0556640625,-0.004150390625,-0.43426513671875,0.999994480967193,-0.5875000000000004,-1.1250000000000009,-287.20000000000005,0.2733333309491476,-0.19666663805643747,-0.3733331044514987,-0.0277941968831439,0.41751886092082807,0.08570476274348494,-0.9808396864874105,-0.05262196564949314,0.1846713064607469,0.03287775406780011,60.49703494618953
1773306592559,-1.9500000000000004,6.25,336.1000000000001,0.16666666666666666,0.8999999999999999,9.633333333333335,0.04014257279586959,-0.41626102660064757,-0.03607013787454948,-2.6875,5.125,49.4375,0.5699999928474426,0.4699999988079071,9.989999771118164,0.17235125601291656,0.06872233748435974,-0.40251654386520386,0.0030080968873730687,0.0011994310587687947,-0.00702523898419599,-0.90728759765625,0.05078125,-0.00262451171875,-0.41741943359375,0.999997695905296,-0.7374999999999996,-1.125,-286.6625000000001,0.403333326180776,-0.4300000011920928,0.3566664377848294,-0.03713447590849652,0.41746045765941636,0.029044898890353485,-0.976540360981922,-0.04980728908256005,0.2076277064399734,0.027908651813015228,58.78474691612197
1773306592659,-1.4500000000000002,5.8999999999999995,333.8,-0.016666666666666666,0.9666666666666668,9.75,0.026179938779914945,-0.4020075043760273,-0.07737626350508195,-2.25,4.9375,47.0625,0.3199999928474426,0.5899999737739563,9.75,0.1178097203373909,-0.006544984877109528,-0.4297873377799988,0.002056167510741196,-0.0001142315355987977,-0.007501204127641995,-0.91583251953125,0.04791259765625,-0.00091552734375,-0.39874267578125,1.0000206900482786,-0.7999999999999998,-0.9624999999999995,-286.7375,0.3366666595141093,-0.3766666928927105,0,-0.024123771269173748,0.4018932728404285,0.06987505937743996,-0.9724598161256184,-0.0472570555281554,0.2269670828651155,0.023971233164716766,57.05692541940898
1773306592760,-0.8400000000000001,5.6000000000000005,331.6,-0.09999999999999999,0.9500000000000001,9.950000000000001,-0.011344640137963144,-0.2868157737444015,-0.0011635528346628874,-1.75,4.5625,45,0.03999999910593033,0.7799999713897705,9.880000114440918,0.10471975803375244,-0.01745329238474369,-0.40142571926116943,0.0018277045695807633,-0.00030461741742703036,-0.007006200503293826,-0.92315673828125,0.043212890625,0.000732421875,-0.3819580078125,0.9999890867025206,-0.9099999999999999,-1.0375000000000005,-286.6,0.1399999991059303,-0.17000002861022956,-0.0699998855590831,0.013172344707543908,0.28651115632697444,-0.005842647668630938,-0.9681741094422431,-0.045559875648722895,0.2453550828798687,0.019080745310523287,55.57091092293934
1773306592860,-0.6333333333333334,5.55,330.0166666666667,-0.08333333333333333,0.9500000000000001,9.783333333333335,-0.08028514559173917,-0.23038346126325154,-0.008435758051305926,-1.625,4.4375,42.75,0.05000000074505806,0.7699999809265137,9.899999618530273,0.05781403183937073,0.13199052214622498,-0.285797655582428,0.0010090452094498527,0.0023036691928781184,-0.004988110084394121,-0.9305419921875,0.041748046875,0.00079345703125,-0.36383056640625,1.0000123045581548,-0.9916666666666666,-1.1124999999999998,-287.2666666666667,0.13333333407839137,-0.1800000190734864,0.11666628519693845,0.08129419080118902,0.23268713045612965,0.0034476479669118057,-0.9647467771705672,-0.04533739551286119,0.2586297395257539,0.017855932906323736,54.36565889647542
1773306592960,-0.7666666666666667,5.5,328.6666666666667,0.06666666666666667,0.9,9.683333333333335,-0.07883070454841055,-0.18151424220741025,-0.020071286397934793,-1.8125,4.5,41.5,0.23000000417232513,0.6299999952316284,9.680000305175781,0.03272492438554764,0.1079922467470169,-0.18653206527233124,0.0005711576779939885,0.001884820272361581,-0.0032555986995471534,-0.93438720703125,0.04248046875,-0.00128173828125,-0.35382080078125,1.0000374217035013,-1.0458333333333334,-1,-287.1666666666667,0.16333333750565848,-0.2700000047683716,-0.0033330281575540965,0.07940186222640454,0.18339906247977183,0.01681568769838764,-0.961631977226219,-0.04439006824137682,0.27003237669116553,0.019390145848837807,54.39303395685174
1773306593059,-0.9666666666666668,5.449999999999999,327.7166666666667,0.13333333333333333,0.9666666666666667,9.8,-0.07592182246175334,-0.14224433403753783,-0.0026179938779914954,-2.0625,4.375,40.5625,0.1899999976158142,0.6899999976158142,9.680000305175781,-0.01745329238474369,0.04036073759198189,-0.17780540883541107,-0.00030461741742703036,0.0007044277595135317,-0.0031032898120325397,-0.937255859375,0.04266357421875,-0.00390625,-0.345947265625,0.9999817477736108,-1.0958333333333332,-1.0749999999999993,-287.1541666666667,0.05666666428248088,-0.27666666905085247,-0.11999969482421946,0.07561720504432631,0.14294876179705138,-0.00048529593404104433,-0.959345398444495,-0.04332384735135103,0.2780742672530534,0.021310856991862165,54.54304458328629
1773306593159,-1.2500000000000002,5.475,327.05,-0.06666666666666667,0.8333333333333334,9.700000000000001,-0.09919287915501107,-0.0430514548825268,0.02821615624057499,-2.4375,4.375,39.75,0.029999999329447746,0.7300000190734863,9.970000267028809,-0.027270769700407982,0.10362892597913742,-0.11890055239200592,-0.00047596472082522687,0.0018086659586414365,-0.002075206121680523,-0.93963623046875,0.04364013671875,-0.00726318359375,-0.33935546875,1.000017797416027,-1.1874999999999998,-1.0999999999999996,-287.3,0.09666666599611441,-0.10333331425984704,0.27000026702880753,0.09871691443418584,0.044860120841168236,-0.030291362362255513,-0.9576445174219173,-0.0427066524453542,0.28375605142793053,0.023992152189514556,54.811070967887616
1773306593259,-0.6333333333333334,5.666666666666667,326.8666666666667,-0.7833333333333333,1.3,9.816666666666666,0.027052603405912104,0.13817189911621777,0.03665191429188092,-2.75,4.5,39.5,-0.15000000596046448,0.6299999952316284,9.579999923706055,-0.08508480340242386,0.0010908307740464807,-0.030543262138962746,-0.0014850099627843703,0.000019038588589189398,-0.0005330804886246258,-0.940185546875,0.04541015625,-0.00933837890625,-0.33740234375,0.9999692453930181,-2.1166666666666667,-1.166666666666667,-287.3666666666667,0.6333333273728688,-0.6700000047683716,-0.23666674296061174,-0.028537613368696473,-0.1381528605276286,-0.03718499478050555,-0.9572243953037729,-0.04580422910239077,0.28503973755750683,0.019384985035069736,54.582762324054876
1773306593359,0.30000000000000004,6.133333333333333,328.1333333333334,-0.25,1.1666666666666667,10.366666666666667,0.11780972450961724,0.469202680577809,0.1512618685061752,-2.25,4.8125,40.625,-0.3700000047683716,1.0299999713897705,10.220000267028809,-0.0719948336482048,-0.09053895622491837,0.4046982228755951,-0.0012565468915867748,-0.0015802028874438412,0.007063316466148968,-0.93682861328125,0.046630859375,-0.00408935546875,-0.34674072265625,1.0000340690620741,-2.55,-1.3208333333333329,-287.5083333333334,-0.12000000476837158,-0.13666669527689623,-0.14666639963785855,-0.11906627140120402,-0.4707828834652528,-0.14419855204002624,-0.9602399009227447,-0.05216006658822725,0.27398995419109207,0.012172310041752003,53.79763470275961
1773306593459,0.7833333333333333,7.333333333333333,330.95,0.15,1.0833333333333333,9.633333333333333,0.12013683017894303,0.5983570452253894,0.2780891274844299,-1.875,5.625,43.25,0.1599999964237213,0.800000011920929,10.050000190734863,-0.3588833212852478,-0.18653206527233124,0.5475970506668091,-0.006263695586920222,-0.0032555986995471534,0.009557371508346029,-0.9273681640625,0.0535888671875,0.0040283203125,-0.37017822265625,0.999965810563827,-2.658333333333333,-1.708333333333333,-287.7,0.009999996423721319,-0.2833333214124043,0.4166668574015304,-0.12640052576586325,-0.6016126439249365,-0.26853175597608386,-0.9661437879271315,-0.06361721158754408,0.24985998201410978,0.00943508492533441,54.23448594236857
1773306593559,0.65,8.399999999999999,334.4666666666667,0.35000000000000003,1.05,9.4,0.28041623315375563,0.6850417314077744,0.41509747376598466,-1.6875,7.0625,46.75,0.7099999785423279,0.6399999856948853,9.649999618530273,-0.25416356325149536,-0.11562806367874146,0.6981316804885864,-0.004435991017339458,-0.0020180904188997054,0.012184696437006887,-0.91619873046875,0.06280517578125,0.010498046875,-0.3956298828125,0.9999989084893468,-2.3375,-1.3374999999999986,-287.7166666666667,0.35999997854232785,-0.4100000143051148,0.24999961853027308,-0.28485222417109507,-0.687059821826674,-0.4029127773289778,-0.9727351035634705,-0.07267656207257502,0.21997898778807173,0.010666796726799821,55.560066892517995
1773306593659,0.9800000000000001,10.040000000000003,338.62,-0.08333333333333333,1.7166666666666668,9.433333333333335,0.06923139366244173,0.5875941815047576,0.058759418150475765,-0.8125,9.25,50.75,0.3499999940395355,1.2200000286102295,9.25,-0.21816615760326385,-0.14071716368198395,0.6523168087005615,-0.003807717766601815,-0.0024559778203184068,0.011385076077926793,-0.90069580078125,0.07611083984375,0.0279541015625,-0.42681884765625,1.000000772997438,-1.7925,-0.7900000000000027,-287.87,0.43333332737286884,-0.4966666380564373,-0.18333333333333535,-0.07303911142904354,-0.590050159325076,-0.047374342072548974,-0.9789789852098336,-0.08756199508507166,0.18404149402133121,0.0078595173288634,57.46158064984835
1773306593760,0.65,10.366666666666665,342.0833333333333,0.25,1.7333333333333334,9.633333333333335,0.04683300159518118,0.6126105674500097,0.01716240431127758,-1.0625,9.375,53.75,0.14000000059604645,1.5299999713897705,9.84000015258789,-0.11017391085624695,-0.14508049190044403,0.6872233748435974,-0.0019228974942402343,-0.002532132264075714,0.011994310587687946,-0.88909912109375,0.07769775390625,0.028564453125,-0.45013427734375,0.999985491751688,-1.7125,-0.9916666666666654,-288.3333333333333,-0.10999999940395355,-0.20333336194356288,0.206666819254556,-0.04875589908942141,-0.6151426997140854,-0.005168093723589633,-0.9838264144395547,-0.0901190880767916,0.15457069470600773,0.008487435025923818,59.47388183268165
1773306593859,-0.35000000000000003,10.133333333333333,345.4333333333334,0.5333333333333334,1.5000000000000002,9.616666666666667,-0.012508192972626028,0.49858238965304674,-0.06428629411512447,-1.6875,9.3125,58.1875,0.3499999940395355,1.5700000524520874,9.569999694824219,0.06763150542974472,0.046905722469091415,0.5465062260627747,0.001180392447829468,0.0008186592951123293,0.009538333027443864,-0.8709716796875,0.07830810546875,0.02630615234375,-0.48431396484375,0.9999879281239228,-1.3375,-0.8208333333333329,-287.2458333333334,-0.18333333929379791,0.07000005245208718,-0.04666697184244839,0.013688585420455496,-0.4977637303579344,0.07382462714256834,-0.9880166974151349,-0.0872161179556184,0.1265476860449234,0.014213991498414073,63.544071600684376
1773306593959,-1.3166666666666667,9.733333333333334,348.16666666666674,0.7333333333333334,1.4833333333333334,9.533333333333333,0.11228284854496852,0.3505202914421945,-0.002327105669325775,-2.0625,9,60.625,0.7200000286102295,1.2799999713897705,9.550000190734863,-0.11344639956951141,-0.1952587068080902,0.41778817772865295,-0.001980013197021052,-0.003407907326987442,0.007291779277272239,-0.86065673828125,0.0770263671875,0.0240478515625,-0.5028076171875,1.0000284403243576,-0.7458333333333333,-0.7333333333333343,-287.54166666666674,-0.0133333047231039,-0.20333336194356288,0.016666857401530066,-0.11426286174198957,-0.3539281987691819,0.009618884946598013,-0.9909209976393273,-0.08319962597331995,0.10367304430421598,0.020132028215661367,65.9717427324519
1773306594059,-1.9000000000000004,9.433333333333334,350.2666666666667,0.2833333333333333,1.7000000000000004,9.783333333333333,0.10181087303300256,0.2728531397284468,0.05992297098513866,-2,8.6875,62.5,0.6899999976158142,1.3200000524520874,10.010000228881836,0.021816615015268326,-0.054541539400815964,0.2727077007293701,0.00038077176365646523,-0.0009519294416504537,0.00475964727327085,-0.8524169921875,0.07427978515625,0.02410888671875,-0.51702880859375,1.0000161210638223,-0.09999999999999964,-0.7458333333333336,-287.7666666666667,0.4066666642824809,-0.379999947547913,0.22666689554850272,-0.1014301012693461,-0.2738050691700973,-0.05516332371186781,-0.9927683819266057,-0.08051887792335882,0.08589675732648665,0.0234392240824546,67.75652389037201
1773306594159,-1.8,9.733333333333336,351.98333333333335,0.18333333333333335,1.8833333333333335,9.700000000000001,0.02123483923259768,0.3362667692175742,0.0322885911618951,-1.6875,9.0625,64,0.2800000011920929,1.6100000143051147,9.800000190734863,-0.013089969754219055,-0.04036073759198189,0.2988876402378082,-0.0002284630711975954,-0.0007044277595135317,0.005216573415666041,-0.84552001953125,0.0751953125,0.029052734375,-0.52783203125,1.0000045765086594,0.11250000000000004,-0.6708333333333361,-287.98333333333335,0.09666666785875955,-0.2733333190282188,0.10000019073486222,-0.021463302303795274,-0.3369711969770877,-0.027072017746229058,-0.9937417633145156,-0.08352528936981675,0.07097026882773243,0.021541931732443904,68.89614169699355
1773306594259,-1.7999999999999998,10.200000000000001,354,0.20000000000000004,1.8,9.616666666666669,0.1742420369907672,0.3781546712654381,0.20565796352666524,-1.9375,9.1875,66,0.4099999964237213,1.440000057220459,9.789999961853027,-0.0818123072385788,-0.02617993950843811,0.4210606813430786,-0.00142789412996639,-0.0004569261423951908,0.007348895240127382,-0.8360595703125,0.07708740234375,0.029296875,-0.54241943359375,1.000007610739118,-0.13750000000000018,-1.012500000000001,-288,0.20999999642372127,-0.35999994277954106,0.17333329518635843,-0.1756699311207336,-0.3786115974078333,-0.19830906828653785,-0.9944802388138437,-0.08794271568294187,0.05351670797946149,0.02027548603882932,70.77869143810426
1773306594359,-1.2833333333333334,11.116666666666669,356.1333333333334,0.21666666666666667,2.033333333333333,9.316666666666668,0.08726646259971647,0.3639011490408178,0.020653062815266233,-1.3125,10.375,68.6875,0.20000000298023224,1.9500000476837158,9.300000190734863,-0.02508910745382309,-0.0512690469622612,0.37088245153427124,-0.0004378875314558641,-0.000894813673851055,0.006473119917141328,-0.82244873046875,0.081787109375,0.0413818359375,-0.5614013671875,0.9999974984644358,-0.029166666666666563,-0.7416666666666689,-287.4458333333334,-0.016666663686434435,-0.0833332856496174,-0.016666475931804925,-0.08770435013117234,-0.36479596271466885,-0.014179942898124905,-0.9946325607165919,-0.0964218785502631,0.03466000157818294,0.014407456048657124,73.0698469711584
1773306594459,-1.1166666666666665,11.266666666666666,358.4333333333334,0.3333333333333333,1.8500000000000003,9.516666666666666,0.07214027574909897,0.32434035266227956,-0.05003277189050412,-1.25,10.375,70.8125,0.3799999952316284,1.7599999904632568,9.489999771118164,-0.04472406208515167,-0.14508049190044403,0.3392483592033386,-0.0007805821382522572,-0.002532132264075714,0.005921000850086666,-0.81195068359375,0.08050537109375,0.04345703125,-0.57647705078125,0.9999796652961558,-0.13333333333333353,-0.8916666666666657,-287.6208333333334,0.0466666618982951,-0.09000000953674347,-0.026666895548501657,-0.07292085788735123,-0.3268724849263553,0.05595377274059078,-0.9950171313170613,-0.09801547072055686,0.014561106702500258,0.01103857131118954,74.82475956104307
1773306594560,-1.2166666666666668,10.916666666666666,120.16666666666664,0.18333333333333332,1.8499999999999999,9.833333333333334,0.005526875964648706,0.27779823927576414,-0.03170681474456365,-1.375,9.9375,72.4375,0.3799999952316284,1.3700000047683716,10.069999694824219,0.03272492438554764,-0.05672319978475571,0.2988876402378082,0.0005711576779939885,-0.000990006598510526,0.005216573415666041,-0.803955078125,0.0772705078125,0.04144287109375,-0.588134765625,0.9999672560248377,-0.15833333333333321,-0.9791666666666661,-47.72916666666664,0.1966666618982951,-0.4799999952316283,0.23666636149088482,-0.004955718286654718,-0.27878824587427464,0.036923388160229685,0.4973257952050951,0.056599155475766924,0.8622692159268149,0.07717116228233072,132.20442470624505
1773306594659,-1.5166666666666666,10.783333333333333,1.7000000000000002,0.15,2.033333333333333,9.733333333333334,0.022980168484592004,0.28623399732707006,0.0363610260832152,-1.75,9.75,74,0.3499999940395355,1.590000033378601,9.960000038146973,0.013089969754219055,0.022907447069883347,0.29561513662338257,0.0002284630711975954,0.00039981037459579195,0.005159457452810898,-0.79595947265625,0.07708740234375,0.038818359375,-0.59918212890625,1.0000100191180663,-0.2333333333333334,-1.0333333333333332,72.3,0.19999999403953553,-0.44333329995473214,0.22666670481363838,-0.02275170541339441,-0.28583418695247426,-0.031201568630404304,0.9953973463567255,0.0941404145113761,0.013524353823100962,-0.01178121705440833,77.94374376940438
1773306594760,-1.5833333333333333,11.116666666666667,3.3333333333333335,0.16666666666666666,1.9833333333333334,9.633333333333335,0.036070137874549484,0.28885199120506155,0.08261225126106493,-1.875,9.9375,75.4375,0.25999999046325684,1.7100000381469727,9.8100004196167,-0.02617993950843811,0.003272492438554764,0.29561513662338257,-0.0004569261423951908,0.00005711576779939885,0.005159457452810898,-0.78802490234375,0.07861328125,0.0399169921875,-0.60931396484375,1.0000100843099913,-0.29166666666666674,-1.1791666666666671,72.10416666666667,0.09333332379659018,-0.27333329518636074,0.17666708628336458,-0.03652706401694467,-0.2887948754372622,-0.07745279380825404,0.9948209969356078,0.09720887293519648,0.027607489911574943,-0.010929116135110674,79.55397828157182
1773306594859,-1.6,11.620000000000001,5.24,0.1666666666666667,2.033333333333333,9.333333333333334,0.04421500771718968,0.291469985083053,0.024434609527920616,-2,10.375,77.625,0.3700000047683716,1.840000033378601,9.390000343322754,-0.021816615015268326,-0.01745329238474369,0.2934334874153137,-0.00038077176365646523,-0.00030461741742703036,0.0051213804910065705,-0.77606201171875,0.08203125,0.04290771484375,-0.62384033203125,1.000009601889646,-0.3999999999999999,-1.245000000000001,72.385,0.20333333810170487,-0.19333329995473214,0.05666700998941998,-0.04459577948084615,-0.29177460250048004,-0.019313229036914046,0.9937908346495947,0.10174921596162441,0.044060527410758915,-0.00924899680735275,81.9079632288155
1773306594959,-1.4833333333333334,11.716666666666669,6.816666666666666,0.26666666666666666,1.9833333333333334,9.100000000000001,0.1454441043328608,0.3240494644536138,0.006399540590645878,-1.9375,10.375,79.1875,0.3700000047683716,1.690000057220459,9.350000381469727,-0.009817477315664291,-0.12980885803699493,0.28907015919685364,-0.00017134730339819656,-0.002265591970999465,0.005045226047249263,-0.7674560546875,0.08099365234375,0.04425048828125,-0.6343994140625,0.9999847448198675,-0.4541666666666666,-1.3416666666666686,72.37083333333334,0.10333333810170492,-0.2933332761128744,0.25000038146972514,-0.145615451636259,-0.3263150564246133,-0.0013543145433966147,0.9930130896295822,0.10264559608540437,0.05781724626438073,-0.006786122824362656,83.3520095199932
1773306595060,-1.2,11.450000000000001,8.716666666666667,0.36666666666666664,1.7500000000000002,9.566666666666666,0.03403392041388943,0.3429571980168858,-0.17278759594743867,-1.6875,10.0625,81.25,0.5899999737739563,1.4900000095367432,9.550000190734863,0.25961771607398987,-0.003272492438554764,0.37633660435676575,0.00453118394199893,-0.00005711576779939885,0.006568312841800799,-0.75628662109375,0.076416015625,0.0458984375,-0.64813232421875,0.9999955184657289,-0.48750000000000004,-1.387500000000001,72.53333333333333,0.22333330710728966,-0.25999999046325706,-0.01666647593180315,-0.0295027364718905,-0.34301431378468517,0.17935590878923946,0.9921598265375005,0.10025182378694492,0.0745691567234867,-0.0028091454245971655,84.97019146950136
1773306595159,-1.4600000000000002,10.52,10.680000000000001,0.3666666666666667,1.7166666666666668,10.066666666666668,0.004945099547317266,0.28157978598841843,-0.08232136305239919,-1.875,9.1875,82.9375,0.4300000071525574,1.4500000476837158,10.180000305175781,0.153807133436203,0,0.34688419103622437,0.0026844408915160023,0,0.006054271256699116,-0.746826171875,0.0711669921875,0.0408935546875,-0.65997314453125,1.0000254527220438,-0.4149999999999998,-1.3324999999999996,72.2575,0.06333334048589068,-0.26666661898295096,0.11333363850911304,-0.0022606586558012636,-0.28157978598841843,0.08837563430909831,0.99149541591698,0.09245085145017427,0.09150335806608204,-0.004100700474702328,86.65441174111315
1773306595260,-1.6500000000000001,10.200000000000001,12.316666666666668,0.18333333333333335,1.8166666666666667,9.766666666666667,0.054396095020489935,0.24550964811386905,0.015417075059283244,-2.125,8.8125,84.4375,0.28999999165534973,1.5800000429153442,9.970000267028809,0.02508910745382309,-0.013089969754219055,0.24761858582496643,0.0004378875314558641,-0.0002284630711975954,0.004321759611777823,-0.73828125,0.06939697265625,0.03778076171875,-0.66986083984375,1.0000080372815199,-0.47499999999999987,-1.387500000000001,72.12083333333334,0.10666665832201638,-0.2366666237513224,0.2033336003621411,-0.05395820748903407,-0.24573811118506664,-0.01109531544750542,0.9903278023180365,0.08991064764444635,0.10556802801618627,-0.004723436975139712,88.26220284021147
1773306595359,-1.5,10.283333333333333,13.666666666666666,0.13333333333333333,1.9166666666666667,9.516666666666667,0.09512044423369097,0.25365451795650923,0.0189077335632719,-1.9375,8.875,86.1875,0.3199999928474426,1.600000023841858,9.600000381469727,0.021816615015268326,-0.047996554523706436,0.2454369217157364,0.00038077176365646523,-0.0008376979060516561,0.00428368238989917,-0.72735595703125,0.06817626953125,0.0404052734375,-0.681640625,0.9999806096760042,-0.4375,-1.4083333333333332,72.52083333333333,0.1866666595141093,-0.31666664282480883,0.08333371480305907,-0.09473967247003451,-0.2544922158625609,-0.014624051173372732,0.9889560476553523,0.09052553629616929,0.11732797777237458,-0.002282261168396175,90.0407910602876
1773306595461,-1.1166666666666667,10.466666666666667,15.15,0.2333333333333333,1.75,9.533333333333333,0.1210094948049402,0.3127048243156507,-0.019198621771937627,-1.5625,8.9375,87.8125,0.20000000298023224,1.5700000524520874,9.550000190734863,0.029452430084347725,-0.10690141469240189,0.2977968156337738,0.000514041877685299,-0.0018657816614222542,0.005197534934763877,-0.71856689453125,0.06597900390625,0.04388427734375,-0.69091796875,0.9999925400783521,-0.4458333333333333,-1.5291666666666668,72.6625,-0.03333333035310107,-0.1799999475479126,0.016666857401530066,-0.12049545292725491,-0.314570605977073,0.024396156706701505,0.987211332674503,0.09169087764382809,0.1303870705121018,0.0024040464239589027,91.26358791829985
1773306595576,-0.8166666666666668,10.350000000000001,17.21666666666667,0.2857142857142857,1.7285714285714289,9.671428571428573,0.08851312635114099,0.29271664883447757,-0.0067319842576924116,-1.25,8.8125,89.4375,0.1599999964237213,1.659999966621399,9.520000457763672,-0.04908738657832146,-0.1385355144739151,0.28361600637435913,-0.0008567365169909828,-0.0024179008585140786,0.004950033122589792,-0.70867919921875,0.0626220703125,0.04656982421875,-0.701171875,0.9999792387416517,-0.43333333333333324,-1.5375000000000014,72.22083333333333,-0.12571428929056438,-0.06857146195002994,-0.15142811366490072,-0.08936986286813198,-0.29513454969299163,0.011682017380282204,0.9847755997629994,0.09024202565879513,0.14842967743297789,0.006482728867094587,92.76004451781708
1773306595676,-0.8500000000000001,10.25,19.150000000000002,0.2666666666666667,1.7,9.75,0.06544984694978735,0.2839068916577443,0.020653062815266236,-1.125,8.625,91.1875,0.25999999046325684,1.590000033378601,9.699999809265137,-0.08617562800645828,-0.1330813616514206,0.3087051212787628,-0.0015040484436865344,-0.0023227079338546076,0.005387920784082819,-0.6978759765625,0.060302734375,0.0467529296875,-0.712158203125,1.000011220511429,-0.2749999999999999,-1.625,72.0375,-0.0066666762034098825,-0.10999996662139888,-0.05000019073486328,-0.06695389539347389,-0.2862295995915989,-0.015265142031183418,0.982209785380213,0.08931090008753435,0.16501558684912113,0.007573422327509077,94.66332612506466
1773306595776,-0.9166666666666666,10.266666666666666,20.7,0.2666666666666667,1.5833333333333333,9.799999999999999,0.08552113334772217,0.21467549799530253,0.07388560500109329,-1.1875,8.625,92.6875,0.3799999952316284,1.340000033378601,9.84000015258789,-0.09817477315664291,-0.10908307880163193,0.2879793345928192,-0.0017134730339819655,-0.0019038588833009075,0.005026187566347099,-0.68853759765625,0.0599365234375,0.04742431640625,-0.72119140625,1.0000212600057394,-0.27083333333333337,-1.6416666666666657,71.9875,0.1133333285649617,-0.24333329995473219,0.04000015258789169,-0.08723460638170413,-0.21657935687860344,-0.06885941743474619,0.9798803111139145,0.08944648144154348,0.17823035138106702,0.008236789156409437,96.35715173687386
1773306595876,-0.8200000000000001,10.48,21.78,0.18333333333333335,1.6666666666666667,9.383333333333333,0.08581202155638787,0.15038920388017807,0.03432480862255515,-1.1875,8.625,92.6875,0.3799999952316284,1.340000033378601,9.84000015258789,-0.09817477315664291,-0.10908307880163193,0.2879793345928192,-0.0017134730339819655,-0.0019038588833009075,0.005026187566347099,-0.68853759765625,0.0599365234375,0.04742431640625,-0.72119140625,1.0000212600057394,-0.36749999999999994,-1.8550000000000004,70.9075,0.19666666189829507,-0.32666663328806567,0.45666681925455777,-0.08752549459036983,-0.15229306276347898,-0.029298621056208052,0.9779862716590076,0.09102711265519126,0.18748794959886111,0.010256020835966032,96.4158217214881
1773306595982,-0.38,10.419999999999998,22.680000000000003,0.3666666666666667,1.6000000000000003,9.733333333333334,0.12479104151759456,0.02501638594525205,0.0031997702953229365,-0.25,9.0625,95.125,0.3799999952316284,1.2699999809265137,9.920000076293945,-0.01636246219277382,-0.23889194428920746,0.10471975803375244,-0.00028557883899699426,-0.004169450984337535,0.0018277045695807633,-0.67291259765625,0.05535888671875,0.05694580078125,-0.7354736328125,1.0000201294035314,0.13,-1.3574999999999982,72.445,0.013333328564961722,-0.33000001907348664,0.18666674296061103,-0.12507662035659156,-0.029185836929589586,-0.0013720657257421732,0.9764806855426713,0.08968250425896623,0.19552200484211538,0.01461727794341605,98.65447934144166
1773306596093,-0.22000000000000003,10.32,22.659999999999997,-0.07142857142857142,1.9142857142857144,9.742857142857144,0.03789857804330544,-0.038397243543875255,0.038646576294160156,-0.0625,9.0625,95,0.25,1.6100000143051147,9.520000457763672,0.011999138630926609,0.015271631069481373,-0.07090400159358978,0.00020942447651291403,0.0002665402443123129,-0.001237508280647448,-0.6737060546875,0.05413818359375,0.0579833984375,-0.7347412109375,1.0000087562565105,0.15750000000000003,-1.2575000000000003,72.34,0.3214285714285714,-0.3042856999805996,-0.2228566850934719,-0.037689153566792526,0.03866378378818757,-0.039884084574807604,0.9765704555684033,0.08856007904533716,0.19549373697244413,0.015794192443861522,98.40369418420569
1773306596209,0,10.933333333333335,22.350000000000005,-0.2,2.0000000000000004,9.542857142857144,-0.06258252032151096,-0.04911855180612613,0.10122909661567112,0.1875,9.3125,94.875,0.009999999776482582,1.600000023841858,9.920000076293945,-0.09490227699279785,0.004363323096185923,-0.046905722469091415,-0.0016563572011639854,0.00007615435435675759,-0.0008186592951123293,-0.6744384765625,0.0538330078125,0.06097412109375,-0.73382568359375,0.9999916143363785,0.1875,-1.6208333333333353,72.52499999999999,0.2099999997764826,-0.39999997615814253,0.37714293343680083,0.060926163120346974,0.04919470616048288,-0.10204775591078344,0.9765778383000594,0.09346036499210726,0.1929248386508661,0.018463275664477315,98.10066006508501
1773306596310,-0.11666666666666668,11.350000000000001,22.066666666666666,-0.20000000000000004,1.9500000000000002,9.433333333333332,-0.03956079637853814,-0.016289739685280406,-0.049160107264506946,0,10.0625,94.5,-0.07000000029802322,1.8799999952316284,9.300000190734863,0.04254240170121193,0.09162978827953339,-0.03272492438554764,0.0007425049813921851,0.0015992414983831678,-0.0005711576779939885,-0.67620849609375,0.05963134765625,0.06451416015625,-0.7314453125,0.9999940749082269,0.11666666666666668,-1.2875000000000014,72.43333333333334,0.12999999970197681,-0.07000000476837176,-0.1333331425984685,0.04030330135993033,0.017888981183663576,0.048588949586512956,0.9767241755560112,0.0972516059080579,0.1903431468833328,0.01793032256497866,98.08406951143061
1773306596409,0.05,11.125,21.925000000000004,-0.06666666666666667,1.866666666666667,9.716666666666669,-0.01948950998060335,-0.010471975511965976,-0.055268759646487094,0,10.0625,94.5,-0.07000000029802322,1.8799999952316284,9.300000190734863,0.04254240170121193,0.09162978827953339,-0.03272492438554764,0.0007425049813921851,0.0015992414983831678,-0.0005711576779939885,-0.67620849609375,0.05963134765625,0.06451416015625,-0.7314453125,0.9999940749082269,-0.05,-1.0625,72.57499999999999,-0.003333333631356558,0.0133333285649615,-0.4166664759318053,0.020232014961995535,0.012071217010349144,0.054697601968493104,0.977120705582301,0.095080090075951,0.18931250203830527,0.0188594741573599,97.91040541734219
1773306596527,0.05,10.95,21.75,-0.05714285714285715,1.9571428571428573,9.685714285714287,-0.041638569297579,-0.02169194927478667,0.007978648009116933,-0.3125,9.375,94.3125,-0.009999999776482582,1.7200000286102295,9.850000381469727,0.027270769700407982,0.010908307507634163,-0.030543262138962746,0.00047596472082522687,0.00019038588182823261,-0.0005330804886246258,-0.67803955078125,0.05828857421875,0.05804443359375,-0.73040771484375,0.9999998882412848,-0.3625,-1.5749999999999993,72.5625,0.047142857366374566,-0.2371428285326278,0.16428609575543973,0.04211453401840423,0.021882335156614904,-0.008511728497741558,0.9775530341498221,0.09361598352310083,0.18784711725364273,0.018427522703163682,97.41260838913523
1773306596643,-0.2,11.025,21.725,-0.08571428571428572,1.8571428571428577,9.557142857142859,-0.01894928902165272,0.042386567548433715,0.005485320506267891,-0.5,9.5,94.125,0.029999999329447746,1.75,9.479999542236328,-0.0021816615480929613,0.09381144493818283,-0.029452430084347725,-0.000038077177178378795,0.0016373185902246587,-0.000514041877685299,-0.67901611328125,0.06011962890625,0.057373046875,-0.72943115234375,1.0000193620088826,-0.3,-1.5250000000000004,72.4,0.11571428504373346,-0.10714285714285765,-0.07714331490653059,0.018911211844474342,-0.040749248958209056,-0.00599936238395319,0.9775705015646501,0.0946689292471833,0.18741622517324877,0.016397159743090542,97.50658328887042
1773306596742,-0.13333333333333333,11.233333333333334,21.933333333333337,0,1.9000000000000001,9.716666666666667,0.024143721319254886,0.0378154671265438,0.09104800931237086,-0.8125,9.625,94.5,0.1599999964237213,1.6699999570846558,9.789999961853027,-0.05017821490764618,-0.004363323096185923,0.04036073759198189,-0.0008757750629117282,-0.00007615435435675759,0.0007044277595135317,-0.6766357421875,0.06256103515625,0.05694580078125,-0.7314453125,1.0000024400621685,-0.6791666666666667,-1.6083333333333343,72.56666666666666,0.1599999964237213,-0.23000004291534437,0.07333329518636056,-0.025019496382166613,-0.037891621480900556,-0.09034358155285734,0.977045676754807,0.09630527636056097,0.18921261006645526,0.017482204428984845,97.84314385055379
1773306596843,0.07500000000000001,11.9,22.1,0.03333333333333333,2.0166666666666666,9.650000000000002,0.02181661564992912,-0.010471975511965978,0.12915436464758037,-0.8125,9.625,94.5,0.1599999964237213,1.6699999570846558,9.789999961853027,-0.05017821490764618,-0.004363323096185923,0.04036073759198189,-0.0008757750629117282,-0.00007615435435675759,0.0007044277595135317,-0.6766357421875,0.06256103515625,0.05694580078125,-0.7314453125,1.0000024400621685,-0.8875,-2.2750000000000004,72.4,0.126666663090388,-0.34666670958201085,0.1399999618530252,-0.022692390712840845,0.01039582115760922,-0.12844993688806683,0.9761596979302408,0.10161391313898527,0.19069954778528414,0.02050705409881942,97.66117003497101
1773306596942,-0.28,12.120000000000001,21.96,0.06666666666666667,2.083333333333333,9.633333333333333,-0.1372992344902206,-0.04566944876051829,-0.022107503858594828,-0.5,10.625,94.625,0.019999999552965164,1.9199999570846558,9.630000114440918,-0.16035212576389313,-0.02617993950843811,-0.01636246219277382,-0.0027986725571519625,-0.0004569261423951908,-0.00028557883899699426,-0.67547607421875,0.06640625,0.06494140625,-0.73150634765625,0.999998319892664,-0.21999999999999997,-1.495000000000001,72.66499999999999,-0.0466666671137015,-0.16333337624867728,-0.003333218892414891,0.13450056193306864,0.0452125226181231,0.021821925019597833,0.9762541318001008,0.10409976252909621,0.18914818526743812,0.017722121618254802,98.43282582691381
1773306597042,-0.5666666666666668,12.366666666666667,21.8,0.08333333333333336,2.0833333333333335,9.450000000000001,-0.00872664625997165,-0.022980168484592004,0.08872090364304508,-1.375,10.375,94.25,0.49000000953674316,1.5700000524520874,9.890000343322754,-0.14726215600967407,-0.009817477315664291,-0.011999138630926609,-0.002570209485954367,-0.00017134730339819656,-0.00020942447651291403,-0.67791748046875,0.070556640625,0.05804443359375,-0.72943115234375,0.999994656056788,-0.8083333333333332,-1.9916666666666671,72.45,0.4066666762034098,-0.5133332808812461,0.44000034332275284,0.006156436774017282,0.022808821181193806,-0.08893032811955799,0.9763347908352025,0.10669529304612443,0.18747002504801483,0.015539638190116351,98.1910472236379
1773306597142,-0.5200000000000001,13.000000000000004,21.639999999999997,0.03333333333333333,2.2166666666666672,9.583333333333334,0.08319402767839637,-0.015998851476614687,0.18529578892006465,-1.1875,11,94.125,0.18000000715255737,1.8799999952316284,9.640000343322754,0.018544122576713562,0.06981316953897476,-0.004363323096185923,0.0003236559958570664,0.0012184696697081214,-0.00007615435435675759,-0.67828369140625,0.07379150390625,0.06280517578125,-0.7283935546875,1.0000078063153512,-0.6674999999999999,-2.0000000000000036,72.485,0.14666667381922405,-0.3366666714350388,0.05666700998941998,-0.0828703716825393,0.01721732114632281,-0.1853719432744214,0.9759943046572149,0.11203590409989155,0.18601098205373232,0.016822247905839076,98.26613309975995
1773306597243,-5.551115123125783e-18,13.98,21.6,-0.03333333333333333,2.416666666666667,9.416666666666666,0.09512044423369097,-0.006399540590645873,0.1655153907307956,-0.9375,11.75,94.0625,0.09000000357627869,1.9700000286102295,9.649999618530273,-0.22798363864421844,-0.15162548422813416,0,-0.003979065135018593,-0.002646363929711674,0,-0.67816162109375,0.07635498046875,0.0692138671875,-0.72760009765625,0.9999628637541094,-0.9375,-2.2300000000000004,72.4625,0.12333333690961201,-0.44666663805643747,0.23333295186360736,-0.09909950936870957,0.003753176660934199,-0.1655153907307956,0.9749863091264626,0.11954053689056195,0.18598858548929803,0.022803576990559633,98.04089092589562
1773306597343,0.42500000000000004,14.775,21.575000000000003,-0.03333333333333333,2.5,9.383333333333333,0.041015237421866746,-0.0526507657684956,0.11170107212763711,-0.4375,12.75,94.0625,0.15000000596046448,2.0799999237060547,9.5600004196167,-0.1592612862586975,-0.11126473546028137,0.006544984877109528,-0.0027796338161754732,-0.0019419359751423984,0.0001142315355987977,-0.6773681640625,0.07879638671875,0.078857421875,-0.72711181640625,0.9999732930372194,-0.8625,-2.0250000000000004,72.4875,0.1833333392937978,-0.4200000762939453,0.17666708628336636,-0.04379487123804222,0.050708829793353206,-0.11158684059203831,0.9740780797558193,0.12561773125720843,0.18608055230768128,0.027678659394485126,98.10565388844839
1773306597443,0.8600000000000001,15.460000000000003,21.28,-0.18333333333333335,2.6666666666666665,9.35,0.1128646249623,-0.01774418072860902,0.14253522224620363,0,13.5625,93.875,-0.07000000029802322,2.3399999141693115,9.4399995803833,-0.11017391085624695,-0.047996554523706436,-0.055632367730140686,-0.0019228974942402343,-0.0008376979060516561,-0.0009709679875711992,-0.67816162109375,0.0810546875,0.0865478515625,-0.72528076171875,0.9999978803075736,-0.8600000000000001,-1.8975000000000026,72.595,0.11333333303531012,-0.326666752497355,0.08999958038330114,-0.11478752245654024,0.016906482822557363,-0.14350619023377484,0.9736620269612444,0.13081565026688557,0.1839466375310529,0.03214276652673838,97.84346929990615
1773306597543,1.4333333333333336,16.133333333333336,21.200000000000003,-0.3333333333333333,2.8000000000000003,9.4,0.08203047484373349,-0.0023271056693257735,0.09570222065102242,0.625,14.375,93.875,-0.25999999046325684,2.5799999237060547,9.4399995803833,-0.08944812417030334,-0.07963064312934875,-0.011999138630926609,-0.0015611642765045145,-0.0013898169080877366,-0.00020942447651291403,-0.677490234375,0.08148193359375,0.09613037109375,-0.72467041015625,1.0000102873362446,-0.8083333333333336,-1.7583333333333364,72.675,0.07333334287007648,-0.22000007629394558,0.039999580383300426,-0.08359163912023801,0.0009372887612380369,-0.09591164512753533,0.9728106626606343,0.13564177147745377,0.18384220773226825,0.03798377417215726,97.72470230554318
1773306597642,1.9000000000000001,16.65,21.175000000000004,-0.3333333333333333,2.75,9.333333333333334,0.05905030635914148,-0.005235987755982988,0.06428629411512447,1,14.8125,93.875,-0.2199999988079071,2.559999942779541,9.489999771118164,-0.1276271939277649,-0.11453723162412643,0.007635815534740686,-0.0022275147491208113,-0.0019990518079603787,0.00013327012215615645,-0.67718505859375,0.08154296875,0.1004638671875,-0.724365234375,1.0000134202682485,-0.9000000000000001,-1.8374999999999986,72.69999999999999,0.11333333452542621,-0.19000005722045898,0.15666643778483014,-0.06127782110826229,0.0032369359480226094,-0.06415302399296832,0.9720427939012595,0.13928920415785717,0.1841355206156973,0.04272510359602005,97.50021350040912
1773306597742,2.2500000000000004,16.950000000000003,21.1,-0.43333333333333335,2.9,9.333333333333334,0.07650359887908478,-0.015998851476614687,0.08115781021773631,1.375,15.25,93.9375,-0.25999999046325684,2.4700000286102295,9.460000038146973,-0.023998277261853218,-0.023998277261853218,-0.011999138630926609,-0.00041884895302582805,-0.00041884895302582805,-0.00020942447651291403,-0.67657470703125,0.08160400390625,0.10577392578125,-0.72418212890625,1.0000202132208722,-0.8750000000000004,-1.7000000000000028,72.8375,0.1733333428700765,-0.4299999713897704,0.12666670481363873,-0.07692244783211061,0.015580002523588859,-0.08136723469424922,0.9716431327119814,0.14130303330909838,0.18390392439256545,0.04606975172831272,97.43549577702726
1773306597842,2.68,17.4,21,-0.5833333333333334,3.0666666666666664,9.266666666666667,0.11519173063162577,0.009890199094634535,0.11199196033630282,1.75,15.625,93.9375,-0.3700000047683716,2.630000114440918,9.520000457763672,-0.06326818466186523,-0.062177352607250214,-0.008726646192371845,-0.0011042381341093237,-0.001085199523169997,-0.00015230870871351518,-0.67620849609375,0.0811767578125,0.1102294921875,-0.723876953125,0.9999979902038644,-0.9300000000000002,-1.7749999999999986,72.9375,0.2133333285649618,-0.43666655222574846,0.2533337910970044,-0.1162959687657351,-0.010975398617804532,-0.11214426904501633,0.9710310480346126,0.1444746767396716,0.18356748443675844,0.05028668005873521,97.23873394015537
1773306597942,3.4,18.080000000000002,21.02,-0.5833333333333334,3.0833333333333335,9.383333333333333,0.10966485466697702,0.00930842267730309,0.11141018391897137,2.5625,16.375,94.0625,-0.5199999809265137,2.869999885559082,9.3100004196167,-0.0719948336482048,-0.10035642981529236,0.014180799946188927,-0.0012565468915867748,-0.0017515501258234564,0.0002475016496276315,-0.6746826171875,0.080810546875,0.11981201171875,-0.72381591796875,0.9999956898298359,-0.8374999999999999,-1.7050000000000018,73.0425,0.0633333524068197,-0.21333344777425145,-0.07333291371663364,-0.1109214015585638,-0.011059972803126547,-0.11116268226934374,0.9697327317469773,0.1490757922286159,0.1846452222162721,0.05745414748004933,97.14398894421937
1773306598043,3.9800000000000004,18.7,21.080000000000002,-0.6000000000000001,3.033333333333333,9.233333333333336,0.09948376736367678,-0.00727220521664304,0.1265363707695889,3.0625,17,94.1875,-0.5400000214576721,2.759999990463257,9.40999984741211,-0.19634954631328583,-0.1843504011631012,0.03490658476948738,-0.003426946067963931,-0.0032175214776685,0.0006092348348540607,-0.6732177734375,0.08050537109375,0.12689208984375,-0.7239990234375,0.9999897367725609,-0.9175000000000004,-1.6999999999999993,73.1075,0.05999997854232797,-0.2733333428700764,0.17666651407877332,-0.10291071343164071,0.0040546837389745394,-0.12592713593473484,0.9684489042583659,0.15335983938347092,0.18592924383272053,0.06338608516732266,97.10565216652786
1773306598143,4.6000000000000005,19.35,20.916666666666668,-0.8000000000000002,3.3333333333333335,9.133333333333335,0.13526301702956053,-0.04537856055185257,0.15038920388017807,3.5625,17.625,94.25,-0.46000000834465027,2.8299999237060547,9.270000457763672,-0.11671889573335648,-0.10035642981529236,-0.01745329238474369,-0.002037129029839032,-0.0017515501258234564,-0.00030461741742703036,-0.67205810546875,0.0809326171875,0.1341552734375,-0.72369384765625,0.9999713036770915,-1.0375000000000005,-1.7250000000000014,73.33333333333333,0.3399999916553499,-0.5033334096272788,0.13666712443033724,-0.13730014605939955,0.043627010426029116,-0.15069382129760509,0.9673951297983814,0.15795306076410573,0.1854269699296675,0.06938538938657018,96.98777321603959
1773306598242,5.425,20.125000000000004,20.575000000000003,-0.9500000000000002,3.483333333333333,9.100000000000001,0.07737626350508194,-0.029961485492569325,0.09570222065102242,4.4375,18.5,94.125,-0.7300000190734863,3.0799999237060547,9.289999961853027,-0.11999138444662094,-0.11890055239200592,-0.0359974168241024,-0.0020942447326198496,-0.002075206121680523,-0.0006282734457933874,-0.6719970703125,0.0806884765625,0.144287109375,-0.72186279296875,0.9999976772788014,-0.9874999999999998,-1.6250000000000036,73.55,0.21999998092651385,-0.40333340962727826,0.18999996185302592,-0.07947050823770178,0.027886279370888802,-0.09633049409681581,0.9662269243701432,0.16339934361828434,0.18377916379313342,0.07701560934527543,96.60543261814774
1773306598342,5.833333333333333,20.6,20.36666666666667,-1.0166666666666666,3.533333333333333,9.100000000000001,0.04712388980384691,-0.024434609527920616,0.08435758051305926,4.9375,19,94,-0.8399999737739563,3.1700000762939453,9.239999771118164,-0.06544984877109528,-0.055632367730140686,-0.009817477315664291,-0.001142315355987977,-0.0009709679875711992,-0.00017134730339819656,-0.6719970703125,0.08050537109375,0.150634765625,-0.7205810546875,0.9999945331215436,-0.895833333333333,-1.6000000000000014,73.63333333333333,0.1766666928927103,-0.3633332570393879,0.13999977111816264,-0.04826620515983489,0.02346364154034942,-0.08452892781645746,0.965522999428678,0.16690644250361325,0.1826787603985704,0.08084582564535306,96.46185734076515
1773306598442,6.283333333333334,21.183333333333337,20.150000000000002,-1.0999999999999999,3.616666666666667,9.116666666666667,0.10006554378100824,-0.02210750385859484,0.13409946419489766,5.3125,19.5625,93.9375,-0.8600000143051147,3.2699999809265137,9.199999809265137,-0.11017391085624695,-0.0872664600610733,-0.02617993950843811,-0.0019228974942402343,-0.001523087054625861,-0.0004569261423951908,-0.672119140625,0.08148193359375,0.15625,-0.71917724609375,1.0000067092253206,-0.9708333333333341,-1.6208333333333371,73.7875,0.23999998569488512,-0.34666668574015347,0.08333314259846958,-0.10198844127524848,0.02058441680396898,-0.13455639033729286,0.9645876469699038,0.17127792647193543,0.18161641038191256,0.08514706510812417,96.29426725136751
1773306598542,6.94,21.92,19.919999999999998,-1.1833333333333333,3.7500000000000004,8.966666666666667,0.11606439525762294,-0.020071286397934793,0.16377006147880127,5.8125,20.25,93.875,-1.0499999523162842,3.380000114440918,9.210000038146973,-0.142898827791214,-0.10908307880163193,-0.023998277261853218,-0.0024940550421970603,-0.0019038588833009075,-0.00041884895302582805,-0.67138671875,0.0819091796875,0.16448974609375,-0.71795654296875,0.9999938569774295,-1.1275000000000004,-1.6700000000000017,73.955,0.13333338101704917,-0.3699998855590825,0.24333337148030587,-0.11855845029982,0.018167427514633887,-0.1641889104318271,0.9632006599737343,0.17663727463470216,0.18082849278654026,0.09134997554644293,96.16608803175296
1773306598643,7.733333333333334,22.883333333333336,19.650000000000002,-1.2666666666666668,3.9,8.733333333333334,0.08930268006037652,-0.014835298641951801,0.12304571226560022,6.5,21.125,93.8125,-1.0099999904632568,3.4600000381469727,9.069999694824219,-0.1898045539855957,-0.15707963705062866,0.0021816615480929613,-0.003312714402327971,-0.002741556854371145,0.000038077177178378795,-0.670654296875,0.08270263671875,0.17291259765625,-0.71661376953125,1.0000254862488025,-1.2333333333333343,-1.7583333333333364,74.1625,0.25666667620341,-0.43999996185302725,0.33666636149088447,-0.09261539446270449,0.012093741787580655,-0.12300763508842184,0.9612711599987881,0.18373747326837542,0.18004851740317301,0.09889807506952089,95.98557863648882
1773306598742,8.175,23.450000000000003,19.55,-1.3,3.85,9.05,0.0363610260832152,-0.0063995405906458755,0.09162978572970232,7.125,22,93.8125,-1.2300000190734863,3.819999933242798,8.779999732971191,-0.05890486016869545,-0.062177352607250214,0.021816615015268326,-0.001028083755370598,-0.001085199523169997,0.00038077176365646523,-0.66943359375,0.08367919921875,0.18212890625,-0.71533203125,1.0000071990975883,-1.0500000000000007,-1.4500000000000028,74.2625,0.06999998092651372,-0.030000066757202237,-0.2700002670288093,-0.0373891098385858,0.005314341067475878,-0.09124901396604586,0.9600055523209392,0.1879055463726765,0.18008889618377924,0.1031931907960129,96.18127338449241
1773306598842,8.38,23.980000000000004,19.3,-1.3,3.966666666666667,8.966666666666667,-0.09075712110370514,-0.06050474740247009,0.11577350704895718,7.1875,22.25,93.8125,-1.1399999856948853,3.509999990463257,9.069999694824219,-0.15489797294139862,-0.07308565825223923,-0.01636246219277382,-0.0027034796324924915,-0.0012755853724889389,-0.00028557883899699426,-0.6690673828125,0.084228515625,0.1842041015625,-0.715087890625,1.000013723875287,-1.1925000000000008,-1.730000000000004,74.5125,0.1600000143051148,-0.45666667620340995,0.10333302815755196,0.08805364147121264,0.05922916202998115,-0.11605908588795417,0.9592209006819727,0.19227359668101696,0.17849749225330286,0.10518922460733736,96.18529431235025
1773306598942,7.9,24.520000000000003,18.8,-1.2,4.166666666666667,9.15,-0.2911790968743873,-0.07679448708775051,0.21525727441263398,7,23.0625,93.25,-1.1399999856948853,3.799999952316284,8.869999885559082,-0.10035642981529236,0.17126043140888214,-0.07635815441608429,-0.0017515501258234564,0.0029890584064709044,-0.001332701205306919,-0.6717529296875,0.09130859375,0.18756103515625,-0.7108154296875,1.0000134873225717,-0.9000000000000004,-1.4575000000000031,74.45,0.0600000143051147,-0.3666667143503828,-0.2800001144409183,0.28942754674856386,0.07978354549422141,-0.2165899756179409,0.9593932447729234,0.19800492887767535,0.17365341545502128,0.10101060006273595,96.53942454151885
1773306599042,5.96,25.46,18.119999999999997,-0.6666666666666666,4.166666666666667,8.833333333333334,-0.8083783318820402,-0.16144295580947549,0.1372992344902206,5.875,24.0625,92.5,-1.2599999904632568,3.9100000858306885,9.170000076293945,-0.3632466495037079,0.7101308107376099,-0.11235556751489639,-0.006339850030677528,0.012394120767227994,-0.001960974586081725,-0.67578125,0.10589599609375,0.1864013671875,-0.70526123046875,1.0000165662287372,-0.08499999999999996,-1.3975000000000009,74.38,-0.5933333237965902,-0.2566665808359785,0.3366667429606114,0.8020384818513627,0.17383707657670347,-0.13926020907630232,0.9601434614383154,0.20932836852540368,0.16470314472461373,0.08472922580530327,98.04915053152835
1773306599142,1.6666666666666667,26.133333333333336,16.633333333333333,-0.10000000000000002,4.383333333333333,8.816666666666666,-0.8156505370986832,-0.21932970933395404,0.08261225126106495,2.125,24.6875,90.4375,-0.20000000298023224,3.9800000190734863,8.8100004196167,-0.2203478217124939,0.6435901522636414,-0.19744037091732025,-0.0038457949884804685,0.011232767190412178,-0.0034459845488660954,-0.6881103515625,0.13726806640625,0.165283203125,-0.69305419921875,0.9999905190912466,0.45833333333333326,-1.4458333333333364,73.80416666666667,-0.10000000298023222,-0.40333331425984653,-0.006666247049967211,0.8118047421102027,0.23056247652436623,-0.08605823580993104,0.9632861511113614,0.22163419190420328,0.14413753426917356,0.04671667015994347,100.27049732650165
1773306599242,-1.9000000000000004,26.666666666666668,15.049999999999999,0.3666666666666667,4.6,8.55,-0.7097672291443606,-0.24172810140121467,0.19751309368402498,-1,25.1875,88.3125,0.3100000023841858,4,9.119999885559082,-0.10035642981529236,0.8803004622459412,-0.19853119552135468,-0.0017515501258234564,0.01536414147301971,-0.0034650230297682593,-0.701416015625,0.16607666015625,0.14300537109375,-0.67822265625,1.0000011958174708,0.9000000000000004,-1.4791666666666679,73.2625,-0.056666664282480905,-0.5999999999999996,0.5699998855590813,0.7080156790185371,0.2570922428742344,-0.20097811671379323,0.9650329603809948,0.2307110897886998,0.12362060123705791,0.014203005899879738,101.82178864134474
1773306599342,-3.9333333333333336,28.066666666666674,13.083333333333334,0.8333333333333335,4.583333333333333,8.233333333333334,-0.22980168484592,-0.5358160803622593,0.19402243518003634,-4.4375,26.3125,85.9375,0.7200000286102295,4.289999961853027,8.670000076293945,-0.285797655582428,0.4461497962474823,-0.2519819140434265,-0.004988110084394121,0.0077867829016204084,-0.0043979140555351305,-0.7122802734375,0.19390869140625,0.125732421875,-0.66278076171875,1.0000153741548794,-0.5041666666666664,-1.7541666666666735,72.85416666666667,-0.11333330472310399,-0.2933333714803057,0.43666674296061103,0.2248135747615259,0.5436028632638796,-0.19842034923557147,0.9642187145503838,0.24455870763533838,0.10219300848529904,-0.005467910685277806,102.94372264983383
1773306599442,-3.5,28.800000000000008,9.533333333333335,0.65,4.650000000000001,8.366666666666669,-0.3319034460875883,-0.5113814708343385,-0.23445589618457163,-4.0625,28,81.625,0.41999998688697815,4.570000171661377,8.640000343322754,0.06108652427792549,0.11344639956951141,-0.7384924292564392,0.0010661609772492516,0.001980013197021052,-0.012889124391576164,-0.73406982421875,0.206787109375,0.13006591796875,-0.63360595703125,0.9999965336113693,-0.5625,-0.8000000000000078,72.09166666666667,-0.23000001311302187,-0.07999982833862429,0.273333676656085,0.3329696070648376,0.5133614840313595,0.22156677179299547,0.9654140974637992,0.25017213733484095,0.0728815212438422,-0.00882076984502621,100.13559769791115
1773306599542,-3.9833333333333343,27.58333333333334,6.1000000000000005,0.8333333333333334,4.566666666666667,8.633333333333335,-0.1928588823453734,-0.48549242026308925,-0.1602794029748126,-4.6875,26.75,78.6875,1,4.199999809265137,8.779999732971191,0.4156065285205841,0.41233402490615845,-0.4668755829334259,0.00725370231546791,0.007196586352612768,-0.008148516119356127,-0.75189208984375,0.20556640625,0.1138916015625,-0.615966796875,0.9999928269278038,-0.7041666666666657,-0.8333333333333393,72.5875,0.16666666666666663,-0.3666668574015306,0.14666639963785677,0.2001125846608413,0.49268900661570203,0.15213088685545648,0.9696482553811289,0.23970657600990916,0.04336878352331313,-0.02102776425697472,97.10958849773994
1773306599642,-3.75,27.316666666666666,3.066666666666667,0.9833333333333334,4.283333333333333,8.633333333333335,-0.15446163880149819,-0.7106398937703579,-0.07941248096574201,-4.375,26.1875,75.9375,0.7900000214576721,4.21999979019165,8.930000305175781,0.13089969754219055,0.1941678822040558,-0.5497786998748779,0.002284630711975954,0.003388868846085278,-0.009595448470150357,-0.767333984375,0.202880859375,0.10821533203125,-0.5986328125,1.0000169443393672,-0.625,-1.1291666666666664,72.87083333333334,-0.19333331187566127,-0.06333354314168282,0.2966669718424466,0.15674626951347415,0.7140287626164431,0.06981703249559165,0.9710598004263307,0.23677137379102026,0.01826465621233124,-0.025467290443498384,94.3332273243016
1773306599742,-2.8333333333333335,27.01666666666667,298.3833333333334,0.38333333333333347,4.366666666666667,8.65,0.0861029097650536,-0.9645852999355329,0.013380857598623194,-3.3125,26,71.6875,0.9599999785423279,3.819999933242798,8.90999984741211,0.19198621809482574,0.1843504011631012,-0.9948376417160034,0.0033507916242066244,0.0032175214776685,-0.01736319237071995,-0.78961181640625,0.2000732421875,0.10748291015625,-0.57000732421875,0.9999885241773884,-0.4791666666666665,-1.0166666666666693,-226.69583333333338,0.5766666452089944,-0.5466667334238693,0.259999847412109,-0.08275211814084697,0.9678028214132014,-0.030744049969343143,-0.831912158029953,-0.18825093898366402,0.5028069699330452,0.14024584229297196,107.2132671915406
1773306599842,0.06666666666666665,27.000000000000004,352.6833333333334,-0.4166666666666667,4.533333333333334,8.466666666666667,0.020362174606600517,-0.6390813944385904,-0.13759012269888632,-0.8125,26.0625,66.625,-0.4399999976158142,4.639999866485596,8.5600004196167,-0.12544554471969604,-0.29561513662338257,-0.9872018694877625,-0.002189437787316483,-0.005159457452810898,-0.0172299230044048,-0.814208984375,0.192626953125,0.11761474609375,-0.53497314453125,1.0000354529593143,-0.8791666666666667,-0.9375000000000036,-286.0583333333334,-0.023333330949147524,0.1066665331522616,0.09333375295003243,-0.022551612393917,0.6339219369857795,0.12036019969448152,-0.9703970078201309,-0.23300572449113902,0.06190805872017799,0.014330800172888628,83.70971565215275
1773306599942,2.2500000000000004,26.316666666666666,348.56666666666666,-0.7000000000000001,4.416666666666667,8.733333333333333,0.01250819297262604,-0.4278965549472765,-0.15562519163616106,1.6875,25.1875,62,-0.7900000214576721,4.210000038146973,8.84000015258789,0.08617562800645828,-0.1494438201189041,-0.5475970506668091,0.0015040484436865344,-0.0026082867078330205,-0.009557371508346029,-0.83648681640625,0.17901611328125,0.12530517578125,-0.50250244140625,0.9999835266306143,-0.5625000000000004,-1.1291666666666664,-286.56666666666666,-0.09000002145767205,-0.2066666285196943,0.10666681925455812,-0.011004144528939505,0.4252882682394435,0.14606782012781502,-0.9691603560064348,-0.22837133976640248,0.09252798984212898,0.00364782326240011,77.55775625617892
1773306600042,3.4333333333333336,25.58333333333334,346.1833333333334,-0.65,4.2,8.983333333333333,0.061668300237132975,-0.35313828532018604,-0.03577924966588375,2.5,24.125,59.9375,-0.47999998927116394,3.8399999141693115,9.09000015258789,0.09817477315664291,-0.037088245153427124,-0.34688419103622437,0.0017134730339819655,-0.0006473119917141328,-0.006054271256699116,-0.8480224609375,0.16925048828125,0.1240234375,-0.48663330078125,0.9999908022159535,-0.9333333333333336,-1.4583333333333393,-286.2458333333334,0.17000001072883608,-0.36000008583068865,0.10666681925455812,-0.05995482720315101,0.3524909733284719,0.029724978409184633,-0.9684649020463729,-0.22321441102553563,0.11065886686677244,-0.002382309508538832,74.04779192066779
1773306600142,4.683333333333334,25.41666666666667,344.0833333333334,-0.7166666666666668,4.05,9.083333333333334,0.012217304763960305,-0.3551745027808461,0.05323254218582706,3.8125,24,58.0625,-1.059999942779541,3.930000066757202,9.119999885559082,-0.047996554523706436,-0.07417649030685425,-0.318522572517395,-0.0008376979060516561,-0.0012946239834282656,-0.0055592676323509465,-0.85491943359375,0.1650390625,0.13079833984375,-0.47406005859375,0.9999831373312892,-0.8708333333333336,-1.4166666666666714,-286.0208333333334,-0.34333327611287423,-0.11999993324279767,0.036666552225748106,-0.01305500267001196,0.35387987879741784,-0.05879180981817801,-0.9665452228405721,-0.22320583935518906,0.12604659713004057,-0.00904106375111347,71.75862525944683
1773306600242,5.616666666666667,25.400000000000002,341.61666666666673,-0.9333333333333332,4.166666666666667,8.983333333333334,0.004363323129985825,-0.4537856055185257,0.15533430342749532,4.6875,24.25,55.8125,-0.949999988079071,3.9200000762939453,9.039999961853027,-0.10471975803375244,-0.003272492438554764,-0.4210606813430786,-0.0018277045695807633,-0.00005711576779939885,-0.007348895240127382,-0.86328125,0.1656494140625,0.1356201171875,-0.45709228515625,1.00001020910595,-0.9291666666666671,-1.1500000000000021,-285.80416666666673,-0.016666654745737808,-0.24666659037272165,0.05666662851969306,-0.006191027699566588,0.4537284897507263,-0.1626831986676227,-0.9635722425378692,-0.22439750626244423,0.14500934762221188,-0.012107092793837544,69.85788067296913
1773306600342,6.833333333333335,25.850000000000005,338.4166666666667,-1.3333333333333333,4.3500000000000005,8.65,-0.07999425738307343,-0.4817108735504349,0.15300719775816957,5.8125,24.875,53.375,-1.1699999570846558,3.940000057220459,8.970000267028809,-0.2508910894393921,-0.027270769700407982,-0.5486878752708435,-0.004378875574632966,-0.00047596472082522687,-0.009576409989248193,-0.8714599609375,0.16839599609375,0.14276123046875,-0.43798828125,1.0000070892023096,-1.0208333333333348,-0.975000000000005,-285.0416666666667,0.1633333762486775,-0.40999994277954155,0.32000026702880824,0.07561538180844046,0.4812349088296097,-0.16258360774741776,-0.958220426714433,-0.23020513694166855,0.16907556213777164,-0.015253296059351704,68.395364233242
1773306600442,7.850000000000001,26.349999999999998,335.5166666666667,-1.4500000000000002,4.416666666666667,8.5,-0.07824892813107912,-0.3857177646907468,0.11170107212763708,6.6875,25.4375,50.125,-1.2599999904632568,4,8.6899995803833,-0.1494438201189041,0.054541539400815964,-0.41669735312461853,-0.0026082867078330205,0.0009519294416504537,-0.007272740796370075,-0.8822021484375,0.17303466796875,0.1474609375,-0.412353515625,1.0000008884813414,-1.1625000000000014,-0.9124999999999979,-285.3916666666667,0.19000000953674334,-0.41666666666666696,0.18999958038330078,0.0756406414232461,0.38666969413239727,-0.11897381292400716,-0.952615185305676,-0.23635293980290173,0.19072327098501382,-0.016918347328732333,66.8510626601427
1773306600542,8.65,26.583333333333332,333.03333333333336,-1.3666666666666665,4.3500000000000005,8.5,-0.10471975511965978,-0.3871722057340755,0.01250819297262603,7.25,25.625,48.0625,-1.2999999523162842,4.090000152587891,8.630000114440918,-0.030543262138962746,0.09817477315664291,-0.38615408539772034,-0.0005330804886246258,0.0017134730339819655,-0.006739660210217577,-0.88897705078125,0.175048828125,0.149169921875,-0.39593505859375,0.9999692621573399,-1.4000000000000004,-0.9583333333333321,-284.97083333333336,0.0666667143503823,-0.2599998474121099,0.13000011444091797,0.10418667463103515,0.38888567876805746,-0.019247853182843607,-0.9477360578600474,-0.24004740367730726,0.20941006057754968,-0.017917453741745602,65.96699127484423
1773306600642,9.316666666666668,26.299999999999997,330.45,-1.6333333333333335,4.366666666666666,8.600000000000001,-0.02472549773658634,-0.3522656206941889,-0.004945099547317267,7.75,25.375,46,-1.4299999475479126,4.090000152587891,8.6899995803833,0.01636246219277382,0.055632367730140686,-0.3348850607872009,0.00028557883899699426,0.0009709679875711992,-0.00584484692647801,-0.8961181640625,0.173828125,0.149169921875,-0.38018798828125,1.000019276328861,-1.5666666666666682,-0.9249999999999972,-284.45,0.20333338578542093,-0.2766665140787756,0.08999958038329936,0.025011076575583335,0.35323658868176006,-0.000899747379160743,-0.9431811709962965,-0.23942047627941876,0.22965096975461874,-0.01864259389018872,64.67145338953895
1773306600742,10.133333333333335,25.983333333333334,328.3,-1.6833333333333333,4.383333333333334,8.666666666666668,-0.08930268006037655,-0.26267205242514663,-0.02850704444924072,8.5,25.0625,44.0625,-1.7799999713897705,4.110000133514404,8.890000343322754,0.009817477315664291,0.0818123072385788,-0.3032509684562683,0.00017134730339819656,0.00142789412996639,-0.005292727859423348,-0.90264892578125,0.1710205078125,0.15130615234375,-0.36474609375,0.9999781807366818,-1.6333333333333346,-0.9208333333333343,-284.2375,-0.09666663805643716,-0.27333319981892945,0.22333367665608606,0.08947402736377474,0.26409994655511304,0.02321431658981737,-0.9391159035018372,-0.23892017660971093,0.24598971342155007,-0.021622439489944627,63.153789478689774
1773306600843,10.416666666666666,25.733333333333334,326.81666666666666,-1.5666666666666667,4.316666666666666,8.566666666666666,-0.1157735070489572,-0.18442312429406751,-0.06806784082777885,8.6875,24.6875,42.625,-1.5299999713897705,3.9800000190734863,8.710000038146973,-0.003272492438554764,0.037088245153427124,-0.23671028017997742,-0.00005711576779939885,0.0006473119917141328,-0.0041313737624588814,-0.90753173828125,0.16943359375,0.149658203125,-0.35400390625,1.0000189708608982,-1.729166666666666,-1.0458333333333343,-284.19166666666666,0.036666695276896144,-0.3366666475931801,0.14333337148030623,0.1157163912811578,0.18507043628578165,0.06393646706531997,-0.9362151869635146,-0.23780078909352512,0.2578568015254864,-0.021489027721474017,62.35864862678195
1773306600943,10.299999999999999,25.25,325.7666666666667,-1.4166666666666667,4.016666666666667,8.666666666666666,-0.05497787143782139,-0.2751802453977727,-0.1087921900409799,8.625,23.9375,41.125,-1.2599999904632568,3.680000066757202,8.819999694824219,0.06763150542974472,0.055632367730140686,-0.23343779146671295,0.001180392447829468,0.0009709679875711992,-0.004074258059678064,-0.91351318359375,0.16552734375,0.1444091796875,-0.3424072265625,1.0000011790536845,-1.674999999999999,-1.3125,-284.6416666666667,0.1566666762034099,-0.33666659990946446,0.15333302815755268,0.05615826388565086,0.2761512133853439,0.10471793198130183,-0.9346094375217076,-0.2338250679640008,0.26729224052081346,-0.019644211471869417,61.27709173916345
1773306601042,10.533333333333333,24.200000000000003,323.81666666666666,-1.4666666666666668,3.6833333333333336,8.816666666666668,-0.034033920413889425,-0.5814855291227775,-0.08057603380040487,9.25,22.875,39.0625,-1.4199999570846558,3.390000104904175,9.039999961853027,0.10581058263778687,0.009817477315664291,-0.48541969060897827,0.0018467430504829274,0.00017134730339819656,-0.00847217185513887,-0.92095947265625,0.15777587890625,0.14324951171875,-0.326171875,0.9999840463170369,-1.2833333333333332,-1.3250000000000028,-284.75416666666666,0.04666670958201102,-0.29333322842915877,0.22333329518635914,0.03588066346437235,0.5816568764261757,0.072103861945266,-0.9314937782102648,-0.22628542514253347,0.2840672524059966,-0.02049496606820153,59.18884381219456
1773306601142,12.016666666666667,23.033333333333335,319.56666666666666,-1.8833333333333335,3.4333333333333336,8.516666666666667,0.05846852994181006,-0.933169373399635,-0.015417075059283246,10.6875,22.0625,35.375,-1.5199999809265137,2.9600000381469727,8.600000381469727,-0.10362892597913742,-0.16035212576389313,-0.9293878078460693,-0.0018086659586414365,-0.0027986725571519625,-0.016220877274806297,-0.93121337890625,0.15118408203125,0.148193359375,-0.296630859375,0.9999830609615474,-1.3291666666666675,-0.970833333333335,-284.19166666666666,0.36333335240681985,-0.4733332951863609,0.08333371480305907,-0.0602771959004515,0.9303707008424831,-0.0008038022155230518,-0.9216703182927478,-0.22176741999659533,0.31714276277402326,-0.027631572996452792,56.73002287600241
1773306601242,13.933333333333332,21.36666666666667,314.4833333333334,-2.4833333333333334,3.4166666666666674,8.9,-0.08057603380040487,-0.781325728476128,-0.23300145514124299,12.6875,20.6875,30.625,-2.130000114440918,2.9700000286102295,9.010000228881836,0.2508910894393921,0.0818123072385788,-0.8563021421432495,0.004378875574632966,0.00142789412996639,-0.014945291772280198,-0.9432373046875,0.14044189453125,0.1549072265625,-0.258056640625,1.000005008640263,-1.2458333333333318,-0.6791666666666707,-283.8583333333334,0.3533332188924154,-0.4466666380564379,0.11000022888183558,0.08495490937503784,0.7827536226060944,0.21805616336896277,-0.9081689559178051,-0.21579364922898117,0.3565985994199212,-0.03872579697506389,53.863793795034084
1773306601342,15.25,19.46666666666667,310.68333333333334,-3.016666666666667,3.3000000000000007,8.933333333333334,0.05032366009916985,-0.4360414247899167,-0.14951653925418093,13.875,18.5,26.5625,-2.9200000762939453,3.140000104904175,8.930000305175781,0.13089969754219055,-0.09490227699279785,-0.5301437377929688,0.002284630711975954,-0.0016563572011639854,-0.009252753733316802,-0.9537353515625,0.125,0.155517578125,-0.224853515625,0.9999904706620124,-1.375,-0.9666666666666686,-284.12083333333334,0.09666659037272174,-0.1599998950958259,-0.00333302815755232,-0.0480390293871939,0.4343850675887527,0.14026378552086413,-0.8971685355143645,-0.20684945964990506,0.3871776129838537,-0.04894298652185031,51.41424824911121
1773306601442,16.9,18,308.00000000000006,-3.1500000000000004,2.983333333333334,9.216666666666667,0.10006554378100822,-0.3438298626428829,-0.061086523819801536,15.3125,16.75,23.875,-2.819999933242798,2.5299999713897705,9.380000114440918,0.09053895622491837,-0.11562806367874146,-0.3850632607936859,0.0015802028874438412,-0.0020180904188997054,-0.006720621729315413,-0.95947265625,0.11114501953125,0.16156005859375,-0.20233154296875,0.9999903495889166,-1.5874999999999986,-1.25,-284.12500000000006,0.3300000667572025,-0.45333336194356333,0.16333344777425118,-0.09848534089356438,0.3418117722239832,0.054365902090486126,-0.8881686822064521,-0.202699980471912,0.40761291557862644,-0.06261645884136528,49.49328029279868
1773306601558,17.857142857142858,16.97142857142857,306.3714285714286,-2.7142857142857144,2.542857142857143,8.914285714285715,0.0413892365472941,-0.3398405386383245,-0.07330382858376185,15.9375,16,22.5625,-2.2300000190734863,2,8.949999809265137,0.13526301085948944,-0.023998277261853218,-0.22362031042575836,0.002360784895658936,-0.00041884895302582805,-0.003902910691261286,-0.9619140625,0.10528564453125,0.16412353515625,-0.19146728515625,0.9999799931283146,-1.9196428571428577,-0.9714285714285715,-283.8089285714286,0.4842856952122281,-0.5428571428571431,0.03571409497942213,-0.03902845165163517,0.3394216896852986,0.06940091789250057,-0.8823382956542656,-0.19934572225559022,0.42031582105617055,-0.07123921399201366,48.88719191243058
1773306601659,18.450000000000003,15.800000000000002,304.2666666666667,-3.1,2.816666666666667,9.083333333333334,-0.08435758051305926,-0.30950505402032785,-0.02763437982324355,16.9375,15.25,20.5625,-2.700000047683716,2.259999990463257,9.0600004196167,0.03163409233093262,-0.03490658476948738,-0.4265148341655731,0.0005521190670546618,-0.0006092348348540607,-0.007444088164786852,-0.96514892578125,0.09918212890625,0.169677734375,-0.1728515625,1.0000088698768632,-1.5125000000000028,-0.5500000000000025,-283.7041666666667,0.39999995231628427,-0.55666667620341,-0.023332913716634707,0.08490969958011392,0.3088958191854738,0.020190291658456698,-0.874621482549977,-0.19415577955926075,0.4375126857921971,-0.07696392204607588,48.31534594245449
1773306601759,18.04,15.320000000000002,303.17999999999995,-3.483333333333334,2.833333333333334,8.966666666666667,-0.16580627893946134,0.08668468618238503,-0.05468698322915566,16.75,14.5,19,-3.190000057220459,2.390000104904175,8.609999656677246,0.13089969754219055,0.2977968156337738,-0.029452430084347725,0.002284630711975954,0.005197534934763877,-0.000514041877685299,-0.96807861328125,0.096435546875,0.16534423828125,-0.16180419921875,0.9999976661029045,-1.2899999999999991,-0.8200000000000021,-284.17999999999995,0.29333327611287485,-0.4433332284291591,-0.3566670099894207,0.1680909096514373,-0.08148715124762115,0.05417294135147036,-0.8708795076970637,-0.18971768729561933,0.4473200395093608,-0.07403286063543361,48.78855486760967
1773306601859,17.250000000000004,15.866666666666667,304.3833333333334,-3.366666666666667,2.983333333333333,9.3,-0.22776546738526005,0.6233734311706413,0.11460995421429432,15.9375,14.4375,19.5,-3.640000104904175,2.619999885559082,9.380000114440918,-0.054541539400815964,0.07417649030685425,0.257436066865921,-0.0009519294416504537,0.0012946239834282656,0.004493106980194601,-0.96856689453125,0.0966796875,0.1583251953125,-0.1658935546875,1.0000281646606775,-1.3125000000000036,-1.4291666666666671,-284.8833333333334,-0.27333343823750766,-0.3633334477742509,0.08000011444091726,0.2268135379436096,-0.622078807187213,-0.11011684723409972,-0.8757967433838802,-0.18999278314597526,0.4385170002948409,-0.06771740605672043,48.83388639033312
1773306601959,15.416666666666666,17.71666666666667,307.93333333333334,-2.7833333333333337,2.983333333333334,8.966666666666667,-0.158824961931484,0.8476482400519127,0.1576614090968211,13.1875,16.5625,23.9375,-2.7200000286102295,2.5899999141693115,9.119999885559082,-0.2356194406747818,0.07090400159358978,0.7908523082733154,-0.004112335021482392,0.001237508280647448,0.013802976676366546,-0.961669921875,0.1143798828125,0.143310546875,-0.203857421875,0.9999937787458496,-2.229166666666666,-1.1541666666666686,-283.99583333333334,0.06333330472310417,-0.3933334191640223,0.15333321889241525,0.1547126269100016,-0.8464107317712652,-0.14385843242045457,-0.8888639192668569,-0.195284161839511,0.4111809190745464,-0.05210835776738332,51.153880550001084
1773306602059,13.600000000000001,19.283333333333335,312.40000000000003,-1.9833333333333336,3.0500000000000003,8.866666666666667,-0.1087921900409799,0.8598655448158732,0.06574073515845309,10.5625,18.125,28.6875,-1.6200000047683716,2.5799999237060547,8.899999618530273,-0.03272492438554764,0.22798363864421844,0.9108436703681946,-0.0005711576779939885,0.003979065135018593,0.015897221018874908,-0.9527587890625,0.1278076171875,0.12908935546875,-0.2435302734375,1.0000275760812143,-3.0375000000000014,-1.158333333333335,-283.71250000000003,0.36333332856496203,-0.4700000762939456,0.0333329518636063,0.10822103236298591,-0.8558864796808546,-0.04984351413957819,-0.9036927402854067,-0.19927114047278544,0.376901835853926,-0.039691936965435826,53.27703268385802
1773306602159,11.433333333333335,20.25,317.41666666666674,-1.4666666666666668,3.1333333333333333,8.799999999999999,-0.06486807053245591,0.7269296334556383,-0.053232542185827056,8.5625,19.125,33.3125,-1.2799999713897705,2.8399999141693115,8.859999656677246,0.047996554523706436,0.15489797294139862,0.8235772252082825,0.0008376979060516561,0.0027034796324924915,0.01437413422432337,-0.9422607421875,0.13616943359375,0.11968994140625,-0.2816162109375,1.0000153965062772,-2.8708333333333353,-1.125,-284.10416666666674,0.18666669527689628,-0.2933334191640218,0.05999965667724716,0.06570576843850758,-0.7242261538231458,0.06760667641015043,-0.9190303547048783,-0.19858889397575613,0.33936727645670267,-0.027847980014206925,54.906877493167755
1773306602259,9.733333333333334,20.450000000000003,322.0166666666667,-1.216666666666667,3.383333333333334,9.05,0.049741883681838385,0.7470009198535731,-0.15940673834881544,7.1875,19.25,36.875,-1.0499999523162842,3.190000057220459,8.890000343322754,0.08072147518396378,-0.08508480340242386,0.7526732087135315,0.0014088555190270634,-0.0014850099627843703,0.013136625683601598,-0.93353271484375,0.13763427734375,0.11322021484375,-0.31097412109375,0.9999751222019344,-2.5458333333333343,-1.2000000000000028,-285.1416666666667,0.16666671435038283,-0.1933332761128752,-0.1599996566772468,-0.04833302816281132,-0.7484859298163574,0.17254336403241705,-0.9320948033076251,-0.1944163741931609,0.304867571778167,-0.02138491923269307,55.60761912292683
1773306602359,8.183333333333334,20.26666666666667,326.31666666666666,-0.9500000000000001,3.4333333333333336,9.466666666666669,-0.011053751929297423,0.6018477037293779,0.01832595714594046,5.875,18.8125,41.125,-0.6499999761581421,2.559999942779541,9.819999694824219,0.07090400159358978,0.023998277261853218,0.7210391163825989,0.001237508280647448,0.00041884895302582805,0.012584506616546936,-0.92242431640625,0.13446044921875,0.10638427734375,-0.345947265625,0.9999716780794403,-2.3083333333333336,-1.4541666666666693,-285.19166666666666,0.300000023841858,-0.8733333905537926,0.3533330281575502,0.01229126020994487,-0.6014288547763521,-0.005741450529393526,-0.9434148033215126,-0.18831434011375406,0.27246622910223134,-0.01638206886091013,56.8210039307698
1773306602459,6.750000000000001,20.85,329.9166666666667,-0.9833333333333334,3.633333333333334,9.15,-0.016289739685280406,0.6608980100885194,0.05992297098513865,4.5,19.4375,44.8125,-0.9300000071525574,3.4700000286102295,9.069999694824219,-0.1178097203373909,-0.014180799946188927,0.6544984579086304,-0.002056167510741196,-0.0002475016496276315,0.01142315303973112,-0.9105224609375,0.1407470703125,0.10162353515625,-0.37530517578125,1.000021103546861,-2.250000000000001,-1.4125000000000014,-285.1041666666667,0.05333332618077602,-0.1633333047231047,-0.0800003051757816,0.01423357217453921,-0.6611455117381471,-0.04849981794540753,-0.9509128047743887,-0.18947147309884818,0.24450712943612865,-0.009036716923866173,59.68441483782923
1773306602559,5.1000000000000005,21.616666666666664,334.00000000000006,-0.7000000000000001,3.6500000000000004,9.016666666666667,-0.013089969389957472,0.6012659273120464,0.09482955602502524,3,20.0625,48.6875,-0.28999999165534973,2.9600000381469727,9.25,-0.11126473546028137,0.021816615015268326,0.7275841236114502,-0.0019419359751423984,0.00038077176365646523,0.012698738542257221,-0.89697265625,0.1478271484375,0.096435546875,-0.40533447265625,1.0000043306405948,-2.1000000000000005,-1.5541666666666636,-285.31250000000006,0.41000000834465034,-0.6899999618530277,0.2333333333333325,0.011148033414815075,-0.60088515554839,-0.08213081748276801,-0.9580138052107772,-0.19236781147288698,0.21261227776481498,-0.0004398617466664645,63.23722450261717
1773306602659,3.6500000000000004,22.266666666666666,337.78333333333336,-0.3666666666666667,3.6,8.966666666666667,0.01861684535460618,0.5541420375081997,0.05701408889848144,1.9375,20.625,51.5625,-0.3700000047683716,3.450000047683716,9,-0.047996554523706436,0,0.6294093728065491,-0.0008376979060516561,0,0.010985265898386744,-0.88592529296875,0.15386962890625,0.09356689453125,-0.4273681640625,0.999968898930305,-1.7125000000000004,-1.6416666666666657,-286.22083333333336,-0.0033333381017048858,-0.14999995231628427,0.033333333333333215,-0.019454543260657837,-0.5541420375081997,-0.0460288230000947,-0.9634941385615821,-0.19539935190977425,0.182908753651416,0.006521201453783227,66.1734857810961
1773306602759,2.483333333333334,22.66666666666667,341.05,-0.30000000000000004,3.7500000000000004,8.95,0.034033920413889425,0.555887366760194,0.041597013839198185,1,21,54.3125,-0.550000011920929,3.6600000858306885,9.140000343322754,-0.05017821490764618,-0.046905722469091415,0.5563237071037292,-0.0008757750629117282,-0.0008186592951123293,0.009709680395860643,-0.87359619140625,0.1583251953125,0.09112548828125,-0.45111083984375,1.0000210085539585,-1.4833333333333338,-1.6666666666666714,-286.7375,-0.2500000119209289,-0.08999991416931197,0.19000034332275462,-0.03490969547680115,-0.5567060260553064,-0.031887333443337544,-0.9675979575259597,-0.19728773281194448,0.15716907059424645,0.011385355596325218,69.1790191480556
1773306602859,1.4833333333333334,23,344.20000000000005,0.016666666666666673,3.6999999999999997,8.866666666666667,0.06952228187110747,0.4238241200259564,0.05934119456780721,0,21.25,57.5625,0.18000000715255737,3.380000114440918,9.020000457763672,-0.13526301085948944,-0.0970839411020279,0.5574145317077637,-0.002360784895658936,-0.001694434423042639,0.009728718876762807,-0.86163330078125,0.1619873046875,0.0889892578125,-0.47271728515625,1.0000162756608655,-1.4833333333333334,-1.75,-286.63750000000005,0.1633333404858907,-0.31999988555908176,0.15333379109700473,-0.07188306676676641,-0.425518554448999,-0.049612475691044405,-0.9708980714623066,-0.199202670003502,0.13211786291788025,0.014835814512931445,71.99673704259861
1773306602959,0.825,23.225,346.975,0.06666666666666667,3.6833333333333336,9.05,0.1823869068334074,0.3490658503988659,0.09453866781635953,-0.3125,21.75,60.6875,0.029999999329447746,3.490000009536743,8.989999771118164,-0.07526732236146927,-0.20834867656230927,0.35670167207717896,-0.0013136625943675924,-0.0036363703981850373,0.0062256186251158935,-0.84771728515625,0.16461181640625,0.09246826171875,-0.49566650390625,0.999978653858761,-1.1375,-1.4750000000000014,-286.2875,-0.03666666733721892,-0.1933333237965904,-0.06000022888183665,-0.183700569427775,-0.35270222079705094,-0.08831304919124364,-0.9733497186271177,-0.2007873800828126,0.1096557109333528,0.01582334691814507,74.80842261156715
1773306603076,0.5714285714285714,23.485714285714288,349.34285714285716,-0.17142857142857146,3.985714285714286,8.871428571428572,0.09599310885968812,0.3298672286269283,0.03116659378561303,-0.375,22.125,62.625,-0.28999999165534973,3.880000114440918,8.899999618530273,-0.023998277261853218,-0.06108652427792549,0.2977968156337738,-0.00041884895302582805,-0.0010661609772492516,0.005197534934763877,-0.838623046875,0.166015625,0.09674072265625,-0.50970458984375,1.0000036694042118,-0.9464285714285714,-1.3607142857142875,-286.71785714285716,-0.11857142022677827,-0.10571417127336824,0.028571047101701552,-0.09641195781271394,-0.33093338960417756,-0.02596905885084915,-0.9749219378696454,-0.20309107031278822,0.08991185703113724,0.014038881184545066,76.48125897864162
1773306603175,0.35000000000000003,23.700000000000003,351.61666666666673,-0.25,4.116666666666667,8.916666666666666,0.11082840750163994,0.4290601077819393,0.01803506893727474,-0.5625,22.1875,64.5625,-0.11999999731779099,3.869999885559082,9.020000457763672,-0.010908307507634163,-0.09162978827953339,0.4210606813430786,-0.00019038588182823261,-0.0015992414983831678,0.007348895240127382,-0.8297119140625,0.1658935546875,0.098388671875,-0.52374267578125,0.9999646258803068,-0.9125000000000001,-1.5125000000000028,-287.05416666666673,0.13000000268220901,-0.2466667811075851,0.1033337910970058,-0.11101879338346818,-0.43065934928032246,-0.010686173697147357,-0.9761119754894658,-0.2050184463091847,0.07090956120202235,0.012028387637470819,78.107105452708
1773306603276,0.06666666666666667,23.983333333333334,354.11666666666673,0.05000000000000001,3.9833333333333343,9.133333333333335,0.05701408889848144,0.46891179236914327,0.05061454830783556,-0.9375,22.25,67.1875,0.14000000059604645,3.569999933242798,9.380000114440918,-0.007635815534740686,-0.07744898647069931,0.5334162712097168,-0.00013327012215615645,-0.0013517398162462457,0.009309870216320595,-0.8173828125,0.165771484375,0.0999755859375,-0.5426025390625,1.0000037401844653,-1.0041666666666667,-1.7333333333333343,-286.92916666666673,0.09000000059604643,-0.41333340009053643,0.24666678110758333,-0.0571473590206376,-0.4702635321853895,-0.04130467809151496,-0.9768949237559181,-0.20752481489478627,0.05007859462827815,0.010094231167366885,80.43037571951078
1773306603376,-0.78,24.5,357.38000000000005,0.16666666666666666,3.983333333333333,8.616666666666667,0.019198621771937624,0.4491313941798742,0.0415970138391982,-1.5625,22.5625,69.5625,0.03999999910593033,3.7100000381469727,9,-0.17562375962734222,-0.1079922467470169,0.3992440700531006,-0.0030652128502282115,-0.001884820272361581,0.006968123541489498,-0.80438232421875,0.16949462890625,0.1004638671875,-0.56048583984375,0.999998359008277,-0.7825,-1.9375,-287.81750000000005,-0.12666666756073633,-0.2733332951863603,0.38333333333333286,-0.022263834622165836,-0.4510162144522358,-0.0346288902977087,-0.9769200413188546,-0.21196523106244575,0.02378462427047576,0.011500666873012183,83.53847129662567
1773306603475,-1.6500000000000004,24.483333333333334,179.98333333333332,0.3833333333333333,3.9166666666666665,8.816666666666668,0.09366600319036236,0.4351687601639195,-0.011635528346628869,-2.625,22.6875,72.625,0.44999998807907104,3.690000057220459,9.010000228881836,-0.028361599892377853,-0.11671889573335648,0.44396811723709106,-0.000495003299255263,-0.002037129029839032,0.007748705419667429,-0.7899169921875,0.17236328125,0.097412109375,-0.580322265625,0.9999705027163719,-0.9749999999999996,-1.7958333333333343,-107.35833333333332,0.06666665474573774,-0.22666660944620753,0.19333356221516773,-0.09416100648961763,-0.4372058891937585,0.019384233766296298,0.003195109287787592,0.01410191173536218,0.9771601955201157,0.21201150830352686,176.79778252035217
1773306603575,-2.2833333333333337,24.2,2.6666666666666665,0.4833333333333334,3.9166666666666665,8.783333333333333,0.15271630954950383,0.443022741797894,-0.050614548307835565,-3.125,22.375,75.3125,0.6299999952316284,3.630000114440918,9.010000228881836,0.07526732236146927,-0.10144726186990738,0.5028730034828186,0.0013136625943675924,-0.0017705887367627832,0.008776789630168097,-0.776611328125,0.170654296875,0.0960693359375,-0.59869384765625,0.9999558412964517,-0.8416666666666663,-1.8249999999999993,72.64583333333333,0.14666666189829503,-0.28666655222574855,0.22666689554850272,-0.15140264695513622,-0.4447933305346568,0.05939133793800366,0.9774216271279473,0.2099735287548729,0.01857205971192626,-0.01459995352181013,89.08689957670776
1773306603676,-2.6166666666666667,23.7,5.3500000000000005,0.6,3.8166666666666664,8.933333333333335,0.13031791748224328,0.3653555900841463,-0.1451532161241951,-3.25,21.875,77.6875,0.7200000286102295,3.630000114440918,8.979999542236328,0.10908307880163193,-0.1494438201189041,0.4614214301109314,0.0019038588833009075,-0.0026082867078330205,0.008053323194696657,-0.7646484375,0.16607666015625,0.09649658203125,-0.6151123046875,0.9999717134706999,-0.6333333333333333,-1.8249999999999993,72.3375,0.12000002861022951,-0.18666655222574846,0.04666620890299278,-0.12841405859894237,-0.36796387679197934,0.15320653931889175,0.9775860736201671,0.20611586479669955,0.04098047433419083,-0.012740473553157954,90.90709009355592
1773306603775,-2.8,22.740000000000002,7.74,0.45,3.8333333333333335,9.233333333333334,0.16464272610479846,0.317649923862968,-0.10588330795432266,-3.3125,20.9375,79.5,0.6899999976158142,3.5,9.350000381469727,0.10144726186990738,-0.2050761878490448,0.3327033817768097,0.0017705887367627832,-0.00357925469540422,0.005806769444525031,-0.7547607421875,0.15802001953125,0.093505859375,-0.6297607421875,0.9999880212573001,-0.5125000000000002,-1.802500000000002,71.76,0.2399999976158142,-0.3333333333333335,0.11666704813639228,-0.16287213736803569,-0.3212291785583722,0.11169007739884769,0.9781721447802745,0.19825242851219957,0.06134288836580296,-0.010596216867998595,92.01740873008447
1773306603875,-2.9,22.05,9.683333333333334,0.46666666666666673,3.7833333333333337,8.983333333333333,0.09482955602502524,0.3894993114034013,-0.1332267995689005,-3.25,20.1875,81.5,0.5699999928474426,3.569999933242798,9.180000305175781,0.11890055239200592,-0.07308565825223923,0.39706239104270935,0.002075206121680523,-0.0012755853724889389,0.0069300460595365185,-0.74566650390625,0.15179443359375,0.09246826171875,-0.6422119140625,1.0000233032819406,-0.3500000000000001,-1.8625000000000007,71.81666666666666,0.1033333261807759,-0.2133334000905358,0.19666697184244875,-0.09275434990334472,-0.3907748967758903,0.140156845628437,0.9781366918266148,0.19259024206597417,0.07799630633753474,-0.008613185308418304,93.1529198172253
1773306603975,-3.3833333333333333,21.216666666666672,12,0.6166666666666667,3.483333333333333,9.233333333333334,0,0.4601851461091715,-0.18733200638072472,-3.75,19,84.375,0.6899999976158142,3.200000047683716,9.40999984741211,0.2552543878555298,0.038179077208042145,0.4756022095680237,0.0044550294982416225,0.0006663506026534595,0.008300824486722091,-0.7293701171875,0.14434814453125,0.08453369140625,-0.663330078125,0.9999849459885923,-0.3666666666666667,-2.216666666666672,72.375,0.07333333094914751,-0.28333328564961713,0.1766665140787751,0.0044550294982416225,-0.45951879550651803,0.19563283086744682,0.9776661409656666,0.18603905791642325,0.09729229361371151,-0.009622647362046398,95.61577420431419
1773306604076,-4.1499999999999995,20.216666666666665,14.733333333333334,0.75,3.25,9.15,0.08203047484373349,0.5075999241216842,-0.1471894335848551,-4.5,18,87.125,0.8700000047683716,2.990000009536743,9.220000267028809,0.11017391085624695,-0.11671889573335648,0.5595961809158325,0.0019228974942402343,-0.002037129029839032,0.009766795838567134,-0.71551513671875,0.1407470703125,0.07843017578125,-0.67974853515625,0.9999905060526069,-0.35000000000000053,-2.216666666666665,72.39166666666667,0.12000000476837158,-0.25999999046325684,0.07000026702880824,-0.08010757734949325,-0.5096370531515232,0.15695622942342222,0.9765263091942168,0.17851754366777461,0.11984327012460583,-0.012862529307487339,98.09230008525563
1773306604176,-4.7,19,17.983333333333334,0.8833333333333333,3.0500000000000003,9.183333333333335,0.1090830782496456,0.4462225120932169,-0.14602588075019224,-4.9375,16.8125,89.9375,0.9300000071525574,2.7799999713897705,9.359999656677246,0.12980885803699493,-0.17126043140888214,0.49960049986839294,0.002265591970999465,-0.0029890584064709044,0.008719673667312954,-0.6993408203125,0.13421630859375,0.07220458984375,-0.6983642578125,1.0000088698768632,-0.23749999999999982,-2.1875,71.95416666666667,0.04666667381922407,-0.27000002861022976,0.17666632334391075,-0.10681748627864614,-0.4492115704996878,0.1547455544175052,0.9744036483803485,0.16920286777668125,0.14733333366782228,-0.014170686276228238,100.6851353747767
1773306604276,-5.2,17.950000000000003,20.3,0.9333333333333332,2.85,9.216666666666667,-0.06486807053245591,0.3569198320328404,-0.19198621771937624,-5.25,15.8125,92.125,1.0499999523162842,2.7100000381469727,9.270000457763672,0.16035212576389313,-0.0010908307740464807,0.38288161158561707,0.0027986725571519625,-0.000019038588589189398,0.0066825447675110845,-0.68682861328125,0.1290283203125,0.06640625,-0.712158203125,0.9999804737002624,-0.04999999999999982,-2.137500000000003,71.825,0.11666661898295094,-0.13999996185302743,0.05333379109700509,0.06766674308960788,-0.3569388706214296,0.19866876248688733,0.9725440854998872,0.16130017057941423,0.1669229582361961,-0.016642798560252223,102.74981777288114
1773306604375,-5.983333333333333,16.8,22.183333333333337,1.0666666666666669,2.6,9.316666666666666,0.06777695261911315,0.268489816598461,-0.09075712110370514,-6.125,14.625,93.9375,1.2899999618530273,2.259999990463257,9.529999732971191,0.07853981852531433,-0.09381144493818283,0.3087051212787628,0.0013707784271855725,-0.0016373185902246587,0.005387920784082819,-0.67608642578125,0.12615966796875,0.0557861328125,-0.72381591796875,1.0000153462156314,-0.1416666666666666,-2.1750000000000007,71.75416666666666,0.22333329518636047,-0.34000000953674325,0.21333306630452498,-0.06640617419192758,-0.27012713518868564,0.09614504188778795,0.9709370477687015,0.15309162005677956,0.1825743242738765,-0.02260135514800807,104.7372346146281
1773306604476,-6.1000000000000005,15.950000000000001,23.61666666666667,1.0666666666666667,2.5833333333333335,9.35,0.04130612563053247,0.2318379023065801,-0.19460421159736774,-6.125,14.625,93.9375,1.2899999618530273,2.259999990463257,9.529999732971191,0.07853981852531433,-0.09381144493818283,0.3087051212787628,0.0013707784271855725,-0.0016373185902246587,0.005387920784082819,-0.67608642578125,0.12615966796875,0.0557861328125,-0.72381591796875,1.0000153462156314,-0.024999999999999467,-1.325000000000001,70.32083333333333,0.2233332951863607,-0.32333334287007665,0.17999973297119176,-0.0399353472033469,-0.23347522089680475,0.19999213238145055,0.9695085234756511,0.14639551960167396,0.19514640321454438,-0.023226193425642083,104.9215542942437
1773306604575,-6.2,14.683333333333335,25.083333333333332,1.1666666666666667,2.4666666666666672,9.950000000000001,0.046542113386515455,0.2426007660272118,-0.09948376736367678,-6.375,12.375,97.0625,1.2200000286102295,2.309999942779541,9.640000343322754,0.1276271939277649,-0.047996554523706436,0.34033921360969543,0.0022275147491208113,-0.0008376979060516561,0.005940039851137481,-0.657470703125,0.11346435546875,0.0435791015625,-0.74365234375,1.0000299154962733,-0.17499999999999982,-2.3083333333333353,71.97916666666667,0.05333336194356275,-0.1566667238871262,-0.30999965667724716,-0.04431459863739464,-0.24343846393326346,0.10542380721481426,0.9682196613771715,0.1362011035271706,0.20830852868787753,-0.024647588047272333,107.15784331670865
1773306604675,-6.216666666666666,14.483333333333333,26.150000000000002,1,2.45,9.466666666666667,0.08813912722571365,0.11897327734428015,0.14893476283684945,-6.3125,12.375,97.9375,1.1200000047683716,2.200000047683716,9.5,-0.17016960680484772,-0.09162978827953339,0.11344639956951141,-0.0029700199255687405,-0.0015992414983831678,0.001980013197021052,-0.65191650390625,0.1126708984375,0.04425048828125,-0.74853515625,0.9999764223597485,-0.0958333333333341,-2.1083333333333325,71.7875,0.12000000476837158,-0.24999995231628436,0.033333333333333215,-0.09110914715128239,-0.12057251884266332,-0.1469547496398284,0.9664295295636096,0.13477510104400942,0.2174336065434995,-0.023922024820735657,108.06615374135802
1773306604775,-5.9399999999999995,15.180000000000001,26.860000000000003,1.1333333333333335,2.416666666666667,9.65,0.10442886691099407,0.028797932657906433,0.2600540585471552,-5.9375,13.25,98.75,1.409999966621399,2.0899999141693115,9.680000305175781,-0.21271200478076935,-0.09599310904741287,0.08399397134780884,-0.003712524841942344,-0.0016753958121033122,0.0014659713518450435,-0.64630126953125,0.1146240234375,0.0533447265625,-0.7525634765625,1.0000207217125905,0.0024999999999995026,-1.9300000000000015,71.89,0.2766666332880654,-0.32666675249735544,0.030000305175780895,-0.10814139175293641,-0.030473328470009744,-0.2585880871953101,0.9644270597359053,0.1402274511276849,0.22325658310079913,-0.01931855329846382,108.98788838384128
1773306604875,-5.616666666666667,16.616666666666667,27.166666666666668,0.9,2.9333333333333336,9.633333333333333,0.12100949480494018,-0.04217879025652963,0.5480333851262196,-5.4375,14.875,98.875,1.1100000143051147,2.319999933242798,10.010000228881836,-0.5061454772949219,-0.07417649030685425,-0.047996554523706436,-0.00883390507287459,-0.0012946239834282656,-0.0008376979060516561,-0.64447021484375,0.1204833984375,0.06695556640625,-0.75213623046875,1.0000250317748656,0.17916666666666714,-1.7416666666666671,71.70833333333333,0.21000001430511472,-0.6133334000905357,0.3766668955485031,-0.12984339987781476,0.04088416627310137,-0.5488710830322713,0.9623353211006334,0.1516758481832561,0.22523360749037472,-0.013228336891038361,109.53554150084605
1773306604975,-4.883333333333334,19.683333333333334,27.316666666666666,0.7166666666666668,3.4500000000000006,9.049999999999999,0.08755735080838221,0.03985168458720385,0.40811615675800744,-4.375,18.75,99,0.6600000262260437,3.309999942779541,9.149999618530273,-0.411243200302124,-0.08399397134780884,0.0512690469622612,-0.007177547871710603,-0.0014659713518450435,0.000894813673851055,-0.640380859375,0.13531494140625,0.0985107421875,-0.7496337890625,1.0000264808754682,0.5083333333333337,-0.9333333333333336,71.68333333333334,-0.056666640440623084,-0.1400000572204596,0.0999996185302745,-0.09473489868009281,-0.041317655939048896,-0.40722134308415636,0.9582713509490782,0.1758533573469957,0.22536947326277135,-0.00046387636224928813,110.87373218877421
1773306605076,-4.616666666666667,21.61666666666667,27.700000000000003,0.6833333333333335,3.6333333333333333,8.766666666666667,0.07126761112310179,0.033452143996557986,0.2871066619530672,-4.375,18.75,99,0.6600000262260437,3.309999942779541,9.149999618530273,-0.411243200302124,-0.08399397134780884,0.0512690469622612,-0.007177547871710603,-0.0014659713518450435,0.000894813673851055,-0.640380859375,0.13531494140625,0.0985107421875,-0.7496337890625,1.0000264808754682,0.24166666666666714,-2.8666666666666707,71.3,-0.023333307107289758,-0.3233333905537923,0.38333295186360594,-0.07844515899481239,-0.03491811534840303,-0.28621184827921614,0.9547356591085359,0.19139484191360462,0.22761008381671588,0.006440920772959908,110.79186855308103
1773306605175,-4.316666666666667,23,27.96666666666667,0.7333333333333334,3.75,8.65,0.08203047484373349,-0.047123889803846894,0.20129464039667935,-3.6875,21.875,99.5,0.7099999785423279,3.609999895095825,8.75,-0.23343779146671295,-0.11017391085624695,-0.047996554523706436,-0.004074258059678064,-0.0019228974942402343,-0.0008376979060516561,-0.6341552734375,0.14788818359375,0.12359619140625,-0.748779296875,0.9999851397065853,0.6291666666666673,-1.125,71.53333333333333,-0.02333335479100551,-0.1400001049041748,0.09999999999999964,-0.08610473290341156,0.04520099230960666,-0.202132338302731,0.9520254156016847,0.20224035447361918,0.2293347508100086,0.012329604281385432,112.61848310690921
