participant,rep,equipment_code,exercise_code,quality_code,timestamp,timestamp_ms,accelX,accelY,accelZ,accelMag,gyroX,gyroY,gyroZ,roll,pitch,yaw,filteredX,filteredY,filteredZ,filteredMag
1,1,1,2,1,00.000,0,1.3800,10.1400,0.7100,10.2581,-0.0153,0.1058,0.0687,-6.25,85.25,295.06,0.8528,9.6731,0.9001,9.7523
1,1,1,2,1,00.121,121,1.2400,9.5200,0.9400,9.6463,0.0076,0.1080,-0.1582,-5.69,85.38,293.75,0.9039,9.6529,0.9053,9.7373
1,1,1,2,1,00.242,242,0.5600,10.0000,1.0200,10.0675,0.0262,0.0676,-0.0142,-4.56,85.38,292.13,0.8585,9.6987,0.9204,9.7800
1,1,1,2,1,00.363,363,1.1100,9.4700,0.8300,9.5709,0.0087,0.0251,0.1178,-5.38,85.38,292.56,0.8917,9.6685,0.9085,9.7520
1,1,1,2,1,00.502,502,1.0800,9.8800,0.8700,9.9769,-0.0076,-0.0284,-0.1091,-5.63,85.38,292.88,0.9165,9.6964,0.9034,9.7814
1,1,1,2,1,00.623,623,0.9200,9.6800,0.7800,9.7549,0.0033,-0.0338,0.1080,-5.50,85.38,292.94,0.9170,9.6942,0.8872,9.7778
1,1,1,2,1,00.743,743,0.7700,9.7900,0.8700,9.8587,0.0175,-0.0469,-0.0862,-5.44,85.25,293.19,0.8976,9.7069,0.8849,9.7884
1,1,1,2,1,00.864,864,1.1500,9.7300,0.8800,9.8372,0.0098,-0.0382,0.0480,-5.81,85.13,293.81,0.9309,9.7099,0.8843,9.7944
1,1,1,2,1,01.027,1027,0.8000,9.8100,0.8800,9.8818,-0.0076,-0.0251,-0.0338,-5.63,85.06,293.94,0.9136,9.7231,0.8837,9.8058
1,1,1,2,1,01.153,1153,0.5800,9.6400,1.1300,9.7233,0.0098,-0.0055,0.0622,-5.19,85.00,293.56,0.8696,9.7121,0.9162,9.7940
1,1,1,2,1,01.274,1274,0.9900,9.7100,0.9800,9.8094,-0.0098,-0.0142,-0.0371,-5.63,85.00,294.06,0.8855,9.7119,0.9246,9.7959
1,1,1,2,1,01.395,1395,1.0000,9.8300,0.7600,9.9099,0.0065,-0.0164,0.0153,-5.69,85.00,294.25,0.9006,9.7274,0.9029,9.8107
1,1,1,2,1,01.516,1516,0.8400,9.6700,0.9000,9.7481,0.0098,-0.0164,0.0229,-5.56,84.94,294.19,0.8926,9.7199,0.9025,9.8024
1,1,1,2,1,01.637,1637,1.0100,9.7700,1.0900,9.8824,0.0131,-0.0120,0.0447,-5.75,84.88,294.44,0.9081,9.7265,0.9272,9.8127
1,1,1,2,1,01.758,1758,1.0700,9.8100,1.1400,9.9338,0.0425,-0.0109,-0.0502,-5.75,84.75,294.56,0.9294,9.7375,0.9553,9.8283
1,1,1,2,1,01.880,1880,0.9300,11.0000,0.9600,11.0809,0.0273,0.0044,0.1320,-5.75,84.56,294.63,0.9295,9.9038,0.9559,9.9932
1,1,1,2,1,02.043,2043,1.4500,10.9500,1.1700,11.1074,0.0502,0.0120,-0.1080,-5.50,84.25,294.19,0.9981,10.0417,0.9841,10.1391
1,1,1,2,1,02.166,2166,1.8600,11.5700,1.2300,11.7829,0.1822,-0.0491,-0.2749,-3.88,83.50,292.63,1.1117,10.2431,1.0165,10.3533
1,1,1,2,1,02.287,2287,1.5200,11.1800,1.4600,11.3769,0.3196,-0.1538,-0.3436,-1.06,81.75,290.38,1.1655,10.3666,1.0749,10.4871
1,1,1,2,1,02.408,2408,-0.4600,9.7900,1.5400,9.9211,0.4429,-0.2411,-0.5040,1.94,79.19,288.75,0.9513,10.2906,1.1362,10.3967
1,1,1,2,1,02.529,2529,-0.4500,8.4800,1.9400,8.7107,0.2662,-0.2193,0.3360,2.13,77.13,290.19,0.7666,10.0520,1.2421,10.1574
1,1,1,2,1,02.651,2651,-1.0300,7.8900,1.7800,8.1536,0.3294,-0.2258,0.4287,1.13,75.44,292.88,0.5299,9.7671,1.3130,9.8692
1,1,1,2,1,02.777,2777,0.3500,6.7600,2.6000,7.2512,0.0360,-0.2705,-0.1167,-1.00,74.19,296.88,0.5062,9.3708,1.4826,9.5009
1,1,1,2,1,02.898,2898,0.4700,6.6700,2.1300,7.0176,-0.2934,-0.2105,0.6578,-2.56,75.38,300.25,0.5014,9.0149,1.5679,9.1640
1,1,1,2,1,03.060,3060,-2.4300,11.0900,2.7100,11.6721,0.1614,-0.2465,-0.4538,0.06,75.88,299.81,0.1151,9.2884,1.7184,9.4467
1,1,1,2,1,03.182,3182,0.5300,7.4900,1.1200,7.5918,0.1167,-0.0753,0.1898,-1.50,74.81,302.50,0.1698,9.0514,1.6396,9.2003
1,1,1,2,1,03.307,3307,-0.7500,8.1700,2.1500,8.4814,-0.0458,0.0905,-0.5476,0.31,74.75,300.50,0.0486,8.9353,1.7068,9.0969
1,1,1,2,1,03.429,3429,-1.2700,7.8100,2.3100,8.2429,-0.1680,0.3065,-0.4680,3.69,75.31,295.50,-0.1252,8.7870,1.7863,8.9676
1,2,1,2,1,03.550,3550,-1.6400,9.4700,1.7400,9.7672,-0.2214,0.4472,-0.6109,6.31,76.56,289.94,-0.3248,8.8770,1.7802,9.0595
1,2,1,2,1,03.671,3671,-1.4100,9.8500,2.3900,10.2334,-0.3905,0.4647,0.5727,6.31,78.44,286.56,-0.4678,9.0052,1.8606,9.2073
1,2,1,2,1,03.792,3792,0.2900,11.7400,1.1100,11.7959,-0.5269,0.3458,0.3054,3.25,81.25,286.69,-0.3679,9.3656,1.7617,9.5369
1,2,1,2,1,03.913,3913,0.7100,11.5700,0.7300,11.6147,-0.3262,0.1342,-0.0469,1.69,83.88,286.56,-0.2259,9.6561,1.6257,9.7946
1,2,1,2,1,04.081,4081,0.7700,10.2400,0.0900,10.2693,-0.1451,-0.0916,0.4265,-1.75,85.75,290.06,-0.0947,9.7330,1.4233,9.8370
1,2,1,2,1,04.202,4202,1.7900,11.9900,0.9100,12.1570,-0.0698,-0.1200,0.8825,-5.00,86.50,294.25,0.1537,10.0304,1.3557,10.1228
1,2,1,2,1,04.322,4322,0.7900,8.9600,0.6800,9.0204,0.0185,-0.1789,-0.8138,-4.81,86.63,295.19,0.2375,9.8894,1.2667,9.9730
1,2,1,2,1,04.443,4443,-0.1500,10.6400,0.8400,10.6742,0.0818,-0.0415,0.2214,-3.81,86.19,294.75,0.1865,9.9883,1.2104,10.0631
1,2,1,2,1,04.564,4564,0.6200,9.9000,0.3900,9.9271,0.0545,0.0316,0.1222,-4.94,85.63,295.88,0.2436,9.9766,1.1023,10.0403
1,2,1,2,1,04.686,4686,1.3200,13.2400,1.1800,13.3579,-0.0611,0.1156,-0.5923,-3.94,85.88,294.38,0.3854,10.4067,1.1126,10.4731
1,2,1,2,1,04.806,4806,0.4400,10.5600,0.7800,10.5979,-0.1156,0.2138,-0.5814,0.44,86.56,288.81,0.3926,10.4269,1.0687,10.4889
1,2,1,2,1,04.933,4933,0.3000,8.8700,0.4000,8.8841,-0.1309,0.2345,0.2476,1.69,87.56,286.06,0.3804,10.2217,0.9806,10.2757
1,2,1,2,1,05.096,5096,-0.5700,9.6000,-0.1900,9.6188,-0.2258,0.1167,0.2476,-0.94,89.19,287.13,0.2552,10.1398,0.8264,10.1766
1,2,1,2,1,05.217,5217,-0.3700,8.5200,0.1600,8.5295,-0.3469,0.1582,0.7636,-5.44,91.13,290.81,0.1728,9.9263,0.7385,9.9553
1,2,1,2,1,05.339,5339,1.4400,6.5000,1.2900,6.7814,0.0513,0.1734,0.5683,-10.19,92.31,294.50,0.3398,9.4748,0.8112,9.5156
1,2,1,2,1,05.464,5464,1.9900,11.6400,-0.7800,11.8346,0.3763,0.0218,-0.2476,-10.81,91.13,294.25,0.5572,9.7602,0.6015,9.7945
1,2,1,2,1,05.586,5586,2.1600,7.6400,-0.0700,7.9398,0.2749,-0.0873,-0.1244,-10.75,88.31,293.94,0.7684,9.4808,0.5130,9.5257
1,2,1,2,1,05.706,5706,1.7600,8.6500,0.5200,8.8425,-0.0371,-0.1287,0.0153,-10.69,87.50,294.44,0.8991,9.3713,0.5140,9.4283
1,2,1,2,1,05.827,5827,1.2500,10.0100,0.6500,10.1087,-0.1713,-0.1113,-0.1189,-10.31,88.25,295.06,0.9453,9.4555,0.5319,9.5175
1,2,1,2,1,05.948,5948,0.8400,8.9100,0.3700,8.9572,0.0360,-0.0698,-0.0327,-9.19,88.50,294.63,0.9315,9.3836,0.5106,9.4435
1,2,1,2,1,06.110,6110,0.9600,8.3000,-0.1000,8.3559,-0.0513,-0.0502,-0.5171,-7.06,88.38,292.94,0.9352,9.2408,0.4301,9.2980
1,3,1,2,1,06.247,6247,-0.0600,10.1600,-0.2900,10.1643,-0.0905,-0.0611,-0.5574,-2.56,88.56,288.88,0.8041,9.3619,0.3352,9.4024
1,3,1,2,1,06.368,6368,0.0100,9.1200,-0.1500,9.1212,-0.0731,-0.0905,0.0567,-1.88,88.75,288.56,0.6994,9.3300,0.2713,9.3602
1,3,1,2,1,06.489,6489,0.0100,11.0700,0.0100,11.0700,0.0109,-0.0960,-0.0185,-2.25,88.81,289.56,0.6086,9.5593,0.2368,9.5816
1,3,1,2,1,06.610,6610,0.6400,11.3300,-0.2900,11.3518,0.1407,-0.0611,-0.1113,-2.56,88.06,290.31,0.6127,9.7927,0.1674,9.8132
1,3,1,2,1,06.732,6732,0.3400,10.7900,0.0000,10.7954,0.0764,0.0218,0.0873,-2.31,87.19,290.19,0.5768,9.9241,0.1454,9.9419
1,3,1,2,1,06.853,6853,0.5000,10.7400,0.4300,10.7602,0.0513,0.0731,0.1331,-3.13,86.81,290.50,0.5667,10.0316,0.1829,10.0493
1,3,1,2,1,06.978,6978,0.2800,10.4600,0.7700,10.4920,0.0513,0.0873,0.2007,-4.44,86.56,291.31,0.5289,10.0880,0.2602,10.1053
1,3,1,2,1,07.140,7140,1.7200,9.7800,0.5000,9.9427,0.0862,0.0338,0.1407,-7.19,85.81,293.38,0.6859,10.0475,0.2918,10.0751
1,3,1,2,1,07.261,7261,1.5200,9.9300,0.5200,10.0591,0.0196,-0.0305,-0.0327,-7.75,85.44,293.81,0.7958,10.0320,0.3219,10.0686
1,3,1,2,1,07.382,7382,1.7200,10.0200,0.6200,10.1854,-0.0273,-0.0829,0.3087,-9.06,85.38,295.50,0.9176,10.0304,0.3612,10.0788
1,3,1,2,1,07.503,7503,2.0600,9.7700,0.6800,10.0079,-0.0338,-0.1222,0.0535,-10.25,85.50,297.44,1.0681,9.9961,0.4032,10.0611
1,3,1,2,1,07.626,7626,1.6500,11.5700,0.8400,11.7172,0.0262,-0.1156,0.0654,-10.00,85.38,298.06,1.1448,10.2035,0.4608,10.2778
1,3,1,2,1,07.747,7747,1.7800,11.3500,0.7800,11.5152,0.0262,-0.0785,-0.1614,-9.81,85.13,298.44,1.2285,10.3546,0.5028,10.4393
1,3,1,2,1,07.871,7871,1.3500,11.1000,1.1600,11.2418,0.0393,-0.0415,-0.5629,-7.31,84.88,296.31,1.2445,10.4528,0.5894,10.5431
1,3,1,2,1,07.992,7992,0.7800,10.6100,0.9100,10.6775,0.0142,-0.0153,-0.5509,-3.81,84.69,292.94,1.1833,10.4735,0.6317,10.5591
1,3,1,2,1,08.154,8154,-0.1800,9.6100,1.2700,9.6952,0.0436,-0.0120,0.1549,-2.19,84.56,291.38,1.0036,10.3597,0.7158,10.4328
1,3,1,2,1,08.275,8275,0.4200,9.4100,0.8900,9.4613,0.1025,-0.0240,0.2236,-4.63,84.13,293.81,0.9267,10.2346,0.7387,10.3030
1,3,1,2,1,08.397,8397,0.3900,6.9200,1.1100,7.0193,0.0196,0.0316,0.5814,-7.56,83.63,296.75,0.8560,9.7978,0.7877,9.8666
1,3,1,2,1,08.523,8523,1.6900,4.1400,0.8000,4.5427,-0.1582,0.0458,0.2509,-10.56,84.25,299.56,0.9659,9.0522,0.7893,9.1378
1,4,1,2,1,08.644,8644,0.0900,13.6300,2.1700,13.8020,0.1069,-0.1069,-0.6501,-6.63,84.56,295.94,0.8505,9.6555,0.9712,9.7414
1,4,1,2,1,08.784,8784,2.2100,9.7700,0.8200,10.0503,0.0785,-0.1254,0.2193,-7.44,83.25,297.44,1.0296,9.6706,0.9513,9.7716
1,4,1,2,1,08.904,8904,1.7200,9.0700,1.4700,9.3480,-0.0207,-0.1265,0.5520,-8.38,83.44,299.38,1.1206,9.5914,1.0197,9.7104
1,4,1,2,1,09.025,9025,0.2500,8.4600,0.4600,8.4762,-0.1069,-0.1189,-0.4974,-7.31,83.69,299.31,1.0059,9.4423,0.9459,9.5428
1,4,1,2,1,09.187,9187,1.0600,7.2100,0.9400,7.3479,0.0425,-0.0142,-0.5520,-7.94,84.56,300.31,1.0130,9.1482,0.9451,9.2525
1,4,1,2,1,09.309,9309,2.2000,9.5400,1.3200,9.8790,-0.0065,0.0491,-0.1593,-5.31,84.69,297.56,1.1694,9.1998,0.9945,9.3270
1,4,1,2,1,09.435,9435,0.4000,11.9800,1.0900,12.0361,0.0044,0.0600,-0.5345,-3.38,84.75,295.25,1.0680,9.5662,1.0071,9.6781
1,4,1,2,1,09.556,9556,-1.1500,9.7500,1.9000,9.9997,0.0469,0.0687,-0.4516,-2.00,84.63,293.25,0.7758,9.5904,1.1248,9.6872
1,4,1,2,1,09.677,9677,1.0400,10.1100,0.8400,10.1980,-0.1309,0.0164,-0.0753,-4.31,85.31,295.19,0.8106,9.6589,1.0872,9.7536
1,4,1,2,1,09.798,9798,2.4900,8.0600,0.5400,8.4531,-0.0873,0.0098,0.5367,-4.63,85.75,295.50,1.0319,9.4482,1.0151,9.5584
1,4,1,2,1,09.919,9919,-0.0300,10.3000,-0.0600,10.3002,-0.1593,-0.0600,-0.2629,-4.50,86.50,295.69,0.8920,9.5604,0.8735,9.6416
1,4,1,2,1,10.040,10040,0.4700,10.0400,0.3800,10.0582,0.0142,-0.0065,-0.1091,-4.94,86.81,296.38,0.8364,9.6236,0.8084,9.6937
1,4,1,2,1,10.203,10203,1.8300,9.3100,0.3200,9.4935,0.0905,0.0502,-0.5367,-5.56,85.94,296.44,0.9673,9.5823,0.7441,9.6597
1,4,1,2,1,10.328,10328,-0.3900,11.7900,0.8700,11.8285,0.0371,0.0916,0.3392,-4.56,85.38,294.75,0.7884,9.8732,0.7607,9.9338
1,4,1,2,1,10.449,10449,2.9300,9.9500,0.6800,10.3947,-0.0425,0.0327,0.7810,-8.94,85.38,298.81,1.0706,9.8833,0.7500,9.9694
1,4,1,2,1,10.570,10570,2.4800,11.3100,0.6600,11.5975,-0.0654,-0.0796,-0.0687,-10.25,85.69,300.38,1.2564,10.0713,0.7382,10.1762
1,4,1,2,1,10.691,10691,0.8100,8.8300,0.3800,8.8752,-0.0109,-0.1091,-0.0753,-8.69,85.81,299.56,1.1975,9.9078,0.6910,10.0038
1,4,1,2,1,10.814,10814,1.7900,11.5900,0.6100,11.7433,0.0284,-0.0687,0.2214,-9.88,85.63,301.38,1.2756,10.1294,0.6803,10.2321
1,4,1,2,1,10.939,10939,0.9500,11.8300,0.7200,11.8899,-0.0295,0.0011,-0.5214,-9.19,85.63,300.88,1.2327,10.3535,0.6855,10.4492
1,4,1,2,1,11.060,11060,1.8700,12.5200,0.7000,12.6782,0.0382,0.1451,0.4756,-8.94,85.88,300.06,1.3167,10.6390,0.6874,10.7422
1,4,1,2,1,11.222,11222,2.5300,9.6300,0.5000,9.9693,0.2062,0.0916,-0.4112,-6.25,84.75,296.06,1.4766,10.5060,0.6627,10.6300
1,4,1,2,1,11.343,11343,0.3500,10.7000,-0.8000,10.7356,0.2094,-0.0196,-0.3229,-2.31,82.50,291.63,1.3281,10.5316,0.4700,10.6254
1,4,1,2,1,11.465,11465,-0.0600,8.0300,0.5900,8.0519,0.1418,-0.1244,-0.3545,-1.38,80.88,291.00,1.1452,10.2020,0.4858,10.2775
1,4,1,2,1,11.591,11591,0.6300,10.8800,0.8600,10.9321,0.0415,-0.1767,0.6283,-2.75,80.25,293.31,1.0773,10.2913,0.5351,10.3614
1,4,1,2,1,11.712,11712,1.2500,10.9000,1.8100,11.1197,0.3327,-0.3262,0.1331,-5.63,79.00,297.94,1.1001,10.3715,0.7031,10.4534
1,4,1,2,1,11.833,11833,1.6700,6.1900,1.5200,6.5890,-0.0284,-0.2443,0.3807,-8.38,77.75,302.69,1.1752,9.8205,0.8108,9.9237
1,4,1,2,1,11.954,11954,0.6400,8.7300,2.2900,9.0480,-0.1254,-0.1287,-0.1811,-8.75,78.81,304.31,1.1046,9.6768,1.0057,9.7914
1,4,1,2,1,12.075,12075,3.1100,9.1000,1.9400,9.8105,0.1189,-0.1494,0.9348,-13.75,78.81,310.06,1.3689,9.6008,1.1288,9.7634
1,4,1,2,1,12.243,12243,1.3600,7.6700,1.7500,7.9838,-0.1244,-0.0862,1.0036,-11.63,78.13,309.69,1.3677,9.3464,1.2107,9.5232
1,4,1,2,1,12.364,12364,1.5400,9.6500,2.5100,10.0893,0.0502,-0.0818,-0.6130,-12.13,78.50,310.88,1.3904,9.3864,1.3819,9.5889
1,4,1,2,1,12.484,12484,1.3600,8.1400,0.5600,8.2718,-0.1124,0.1058,0.0415,-10.44,78.13,308.94,1.3864,9.2221,1.2736,9.4123
1,4,1,2,1,12.605,12605,1.0400,7.6800,2.8700,8.2644,0.0251,0.2356,-0.3425,-7.88,79.25,305.31,1.3408,9.0189,1.4839,9.2380
1,5,1,2,1,12.726,12726,1.0900,9.0900,2.0500,9.3818,-0.0796,0.2454,-0.5498,-4.69,79.94,300.50,1.3077,9.0283,1.5585,9.2547
1,5,1,2,1,12.848,12848,-0.1200,10.6400,1.6000,10.7603,-0.1560,0.2345,-0.1756,-2.13,80.88,296.31,1.1196,9.2407,1.5640,9.4387
1,5,1,2,1,12.969,12969,0.6400,7.9600,1.6600,8.1564,-0.1898,0.2400,0.3938,-3.88,82.19,296.56,1.0564,9.0719,1.5767,9.2683
1,5,1,2,1,13.095,13095,1.2900,10.9600,0.6700,11.0560,-0.2127,0.1385,-0.2454,-4.88,83.56,296.38,1.0872,9.3207,1.4572,9.4964
1,5,1,2,1,13.257,13257,0.1000,11.2500,0.6900,11.2716,-0.1680,0.0884,0.1254,-6.25,85.31,296.81,0.9571,9.5749,1.3561,9.7177
1,5,1,2,1,13.378,13378,3.8900,10.5600,0.3200,11.2582,-0.0709,0.1625,0.9828,-11.38,86.06,301.06,1.3436,9.7047,1.2196,9.8729
1,5,1,2,1,13.499,13499,1.9900,10.4300,0.6700,10.6393,-0.0513,0.1058,-0.2018,-10.94,86.44,299.81,1.4288,9.8003,1.1471,9.9701
1,5,1,2,1,13.621,13621,1.6100,8.4800,0.3900,8.6403,-0.0382,0.0087,-0.1549,-11.19,86.81,299.69,1.4526,9.6263,1.0474,9.7915
1,5,1,2,1,13.747,13747,1.8600,10.7400,0.4100,10.9076,-0.0873,-0.0142,0.5880,-12.94,87.31,301.50,1.5063,9.7731,0.9634,9.9353
1,5,1,2,1,13.868,13868,3.0000,9.2400,0.4600,9.7257,0.0000,-0.0654,0.1909,-16.38,87.38,305.31,1.7031,9.7028,0.8970,9.8919
1,5,1,2,1,13.989,13989,3.0800,9.8800,0.2900,10.3530,0.0131,-0.0382,0.0480,-16.88,87.19,306.13,1.8846,9.7262,0.8171,9.9407
1,5,1,2,1,14.110,14110,2.2000,11.4400,0.8000,11.6771,-0.0305,0.0731,-1.0243,-13.88,87.38,303.00,1.9261,9.9520,0.8148,10.1694
1,5,1,2,1,14.272,14272,-0.0200,8.9600,0.0600,8.9602,-0.1025,0.2509,-1.1061,-6.94,88.31,294.63,1.6697,9.8213,0.7153,9.9879
1,5,1,2,1,14.398,14398,1.1000,10.4000,0.0800,10.4583,-0.0818,0.3763,0.3982,-5.63,89.38,291.13,1.5946,9.8976,0.6316,10.0451
1,5,1,2,1,14.520,14520,3.5500,11.2600,-0.1200,11.8070,0.1887,0.1658,0.0644,-7.31,89.25,290.69,1.8523,10.0771,0.5326,10.2597
1,5,1,2,1,14.640,14640,2.4500,9.9900,-0.1400,10.2870,0.3709,-0.1298,-0.1931,-6.50,87.06,289.63,1.9311,10.0656,0.4439,10.2588
1,5,1,2,1,14.761,14761,-0.1200,8.1200,1.3200,8.2275,0.1418,-0.2607,0.2618,-5.31,84.81,289.69,1.6608,9.8092,0.5594,9.9645
1,5,1,2,1,14.883,14883,-0.1100,8.3500,0.6000,8.3723,-0.1898,-0.2138,0.4931,-8.75,84.88,294.75,1.4274,9.6169,0.5647,9.7387
1,5,1,2,1,15.008,15008,2.5100,7.7700,0.7900,8.2035,-0.2116,-0.0894,0.3360,-13.19,86.25,300.44,1.5701,9.3736,0.5944,9.5227
1,6,1,2,1,15.131,15131,2.2300,11.2900,0.5200,11.5199,-0.1822,0.0273,0.1876,-12.69,87.56,300.44,1.6570,9.6261,0.5846,9.7852
1,6,1,2,1,15.292,15292,1.5200,9.9300,0.1900,10.0475,0.0927,0.0044,-0.1484,-14.38,86.81,301.63,1.6390,9.6661,0.5326,9.8186
1,6,1,2,1,15.413,15413,1.8800,8.3600,0.9200,8.6180,0.0894,0.0327,0.1647,-14.13,86.25,301.13,1.6707,9.4940,0.5837,9.6576
1,6,1,2,1,15.534,15534,1.5100,10.3500,0.8800,10.4965,-0.1156,-0.0065,-0.0829,-12.88,86.31,299.88,1.6496,9.6068,0.6227,9.7673
1,6,1,2,1,15.661,15661,2.5600,8.7800,0.2700,9.1496,-0.0164,-0.0851,-0.6261,-12.63,86.63,299.88,1.7695,9.4979,0.5762,9.6785
1,6,1,2,1,15.782,15782,0.8800,9.8400,-0.1500,9.8804,0.0796,-0.0938,-0.3251,-8.25,86.00,296.13,1.6523,9.5430,0.4805,9.6969
1,6,1,2,1,15.903,15903,0.8000,8.5600,0.0400,8.5974,-0.0284,-0.0807,-0.4374,-5.13,85.69,293.50,1.5400,9.4134,0.4225,9.5479
1,6,1,2,1,16.024,16024,-0.6200,10.3800,0.0000,10.3985,-0.0807,-0.0305,-0.2640,-2.63,86.06,291.44,1.2554,9.5408,0.3668,9.6300
1,6,1,2,1,16.145,16145,0.6500,9.1700,0.9600,9.2430,-0.1069,0.0469,0.4974,-3.13,87.06,291.94,1.1756,9.4919,0.4450,9.5748
1,6,1,2,1,16.313,16313,0.7400,10.9500,0.4300,10.9834,-0.0360,0.0731,0.0687,-4.19,87.63,292.56,1.1182,9.6841,0.4430,9.7585
1,6,1,2,1,16.434,16434,0.0800,9.4500,-0.2900,9.4548,-0.1254,0.1102,0.3632,-4.75,88.06,292.50,0.9814,9.6532,0.3464,9.7092
1,6,1,2,1,16.555,16555,1.0800,10.4500,0.4100,10.5137,-0.1527,0.1844,0.5727,-7.88,89.19,294.75,0.9944,9.7582,0.3548,9.8152
1,6,1,2,1,16.676,16676,1.5900,10.9300,0.0400,11.0451,-0.0011,0.2553,0.4091,-10.50,89.88,296.00,1.0729,9.9126,0.3133,9.9754
1,6,1,2,1,16.797,16797,2.7400,9.6300,0.1100,10.0128,0.1571,0.1342,0.1691,-13.31,89.56,297.31,1.2926,9.8754,0.2865,9.9637
1,6,1,2,1,16.920,16920,4.0900,10.3000,0.0300,11.0824,0.1396,-0.0218,0.1167,-15.19,88.56,298.56,1.6612,9.9313,0.2527,10.0725
1,6,1,2,1,17.045,17045,3.3300,8.7400,0.2400,9.3560,0.0425,-0.1614,-0.0109,-15.50,87.81,299.38,1.8811,9.7744,0.2510,9.9569
1,6,1,2,1,17.166,17166,1.9700,11.3400,0.6300,11.5271,0.0055,-0.2193,0.2989,-14.38,87.25,299.75,1.8928,9.9807,0.3010,10.1630
1,6,1,2,1,17.328,17328,1.9300,9.5600,0.6100,9.7719,0.1527,-0.2018,-0.8661,-11.75,86.25,299.00,1.8977,9.9252,0.3417,10.1108
1,6,1,2,1,17.449,17449,2.1600,10.4700,0.5800,10.7062,0.0905,-0.1822,-0.6370,-9.44,85.19,297.75,1.9323,9.9970,0.3731,10.1889
1,6,1,2,1,17.571,17571,0.3700,8.1400,0.6900,8.1776,-0.1025,-0.1004,-0.0142,-8.06,84.94,297.13,1.7264,9.7523,0.4149,9.9126
1,6,1,2,1,17.696,17696,1.5600,9.1700,1.5900,9.4367,-0.0120,-0.0393,0.0731,-9.19,85.56,298.75,1.7045,9.6756,0.5697,9.8411
1,6,1,2,1,17.818,17818,0.7000,11.2900,0.4700,11.3214,0.0087,-0.0218,-0.1942,-7.94,85.81,297.75,1.5721,9.8883,0.5566,10.0280
1,6,1,2,1,17.938,17938,1.0200,9.2200,0.0600,9.2764,0.0676,0.0011,0.9305,-9.00,85.25,298.94,1.4994,9.8002,0.4911,9.9264
1,6,1,2,1,18.059,18059,2.3900,9.7600,0.6900,10.0720,0.0774,-0.0360,-0.1942,-10.06,84.38,300.06,1.6167,9.7949,0.5173,9.9409
1,6,1,2,1,18.180,18180,4.4500,10.3300,1.7400,11.3815,-0.0840,-0.0262,-0.3502,-10.50,84.31,300.50,1.9901,9.8655,0.6785,10.0870
1,6,1,2,1,18.343,18343,3.0200,9.4300,0.5000,9.9144,-0.0382,0.0153,0.7221,-8.38,84.81,298.63,2.1258,9.8081,0.6549,10.0571
1,6,1,2,1,18.468,18468,-0.0500,8.8200,-0.6200,8.8419,-0.0654,-0.1298,-0.8923,-4.94,84.81,295.69,1.8391,9.6779,0.4869,9.8631
1,6,1,2,1,18.589,18589,-1.4100,8.2700,1.8100,8.5824,0.0884,0.0196,0.2280,0.19,85.06,291.06,1.4109,9.4923,0.6613,9.6194
1,7,1,2,1,18.710,18710,-0.8300,10.8900,0.9400,10.9620,0.1036,0.0000,-1.2457,-2.75,85.00,293.81,1.1156,9.6765,0.6980,9.7656
1,7,1,2,1,18.831,18831,0.6200,11.7400,0.8900,11.7900,0.0284,0.0185,0.2323,-0.25,84.88,291.38,1.0503,9.9484,0.7233,10.0298
1,7,1,2,1,18.953,18953,0.9700,9.5900,2.5000,9.9579,0.2498,-0.0622,-1.1628,1.25,83.81,289.94,1.0397,9.9012,0.9574,10.0016
1,7,1,2,1,19.074,19074,-1.5500,9.3600,2.5500,9.8242,0.1625,-0.0120,0.3589,-0.31,83.00,291.63,0.6985,9.8299,1.1673,9.9236
1,7,1,2,1,19.200,19200,0.7900,6.5200,0.8200,6.6187,0.0120,-0.0360,0.4080,-3.44,82.81,294.94,0.7105,9.3937,1.1215,9.4871
1,7,1,2,1,19.362,19362,-1.6200,8.8900,1.4100,9.1457,-0.0807,-0.1014,-0.1113,-5.50,83.88,297.88,0.4034,9.3273,1.1595,9.4078
1,7,1,2,1,19.483,19483,1.8100,11.2900,0.6700,11.4538,0.0535,-0.0338,0.1309,-9.13,83.69,301.81,0.5888,9.5860,1.0950,9.6663
1,7,1,2,1,19.604,19604,2.6300,6.6200,1.3400,7.2482,-0.0709,0.0458,0.7636,-10.31,83.75,303.06,0.8578,9.1951,1.1273,9.3036
1,7,1,2,1,19.726,19726,0.9700,10.0100,1.0200,10.1085,-0.0545,-0.0284,-1.7715,-6.44,84.25,299.31,0.8726,9.3025,1.1132,9.4094
1,7,1,2,1,19.852,19852,0.4400,7.1800,0.7800,7.2356,0.0262,0.0785,0.5792,-1.56,84.13,294.19,0.8156,9.0228,1.0693,9.1225
1,7,1,2,1,19.973,19973,-2.2000,9.3400,1.3500,9.6901,-0.1244,-0.0065,-1.0723,2.13,84.63,290.31,0.4182,9.0646,1.1063,9.1414
1,7,1,2,1,20.093,20093,-1.2700,11.0400,1.0800,11.1652,-0.1985,0.0611,0.6490,3.75,86.00,288.50,0.1957,9.3249,1.1028,9.3919
1,7,1,2,1,20.214,20214,1.2900,10.3600,0.5500,10.4545,0.0305,0.0556,0.3927,-0.44,86.50,292.19,0.3399,9.4613,1.0300,9.5233
1,7,1,2,1,20.376,20376,0.7300,10.1000,0.2700,10.1299,0.1364,-0.0764,0.3709,-1.94,85.69,293.75,0.3913,9.5455,0.9298,9.5986
1,7,1,2,1,20.501,20501,-0.4100,9.9400,1.1900,10.0194,0.0960,-0.0644,0.1604,-2.94,84.88,295.31,0.2857,9.5975,0.9641,9.6500
1,7,1,2,1,20.624,20624,1.2300,10.7900,0.9100,10.8979,0.0033,0.0480,0.4156,-6.56,84.56,298.81,0.4102,9.7546,0.9570,9.8100
1,7,1,2,1,20.745,20745,1.8100,9.6000,1.3200,9.8579,-0.0709,0.1276,0.1614,-8.44,84.88,300.06,0.5946,9.7342,1.0048,9.8040
1,7,1,2,1,20.866,20866,1.1100,11.2600,0.9400,11.3536,-0.1025,0.1505,0.0251,-8.19,85.69,299.00,0.6625,9.9353,0.9963,10.0071
1,7,1,2,1,20.988,20988,0.6200,9.2800,0.1400,9.3017,-0.0611,0.1167,0.1254,-8.75,86.38,298.75,0.6569,9.8489,0.8834,9.9103
1,7,1,2,1,21.108,21108,2.5300,10.7400,0.3300,11.0389,0.0251,0.0295,0.2520,-10.56,86.56,300.13,0.9038,9.9664,0.8105,10.0400
1,7,1,2,1,21.229,21229,2.1600,11.7400,0.3300,11.9416,-0.0022,-0.0469,-0.3818,-9.75,86.44,299.44,1.0693,10.2001,0.7472,10.2832
1,7,1,2,1,21.391,21391,0.7200,11.4800,0.7100,11.5244,0.0971,-0.0098,-0.0709,-6.75,85.88,296.56,1.0233,10.3687,0.7423,10.4455
1,7,1,2,1,21.516,21516,2.2500,9.1500,0.3800,9.4302,0.2858,-0.0142,-0.8290,-3.75,84.06,293.44,1.1849,10.2081,0.6945,10.3001
1,7,1,2,1,21.656,21656,-0.0200,9.4900,0.6900,9.5151,-0.0796,-0.0425,-0.4636,1.19,83.00,288.56,1.0261,10.1135,0.6939,10.1891
1,7,1,2,1,21.777,21777,-2.2200,8.9900,1.5600,9.3905,-0.2127,-0.0731,0.2847,2.19,84.44,287.88,0.5984,9.9655,0.8081,10.0161
1,7,1,2,1,21.898,21898,1.5200,12.8100,0.3100,12.9036,-0.0469,-0.1658,0.1233,-0.75,85.00,291.69,0.7198,10.3403,0.7424,10.3919
1,7,1,2,1,22.019,22019,0.8900,8.7300,0.2900,8.7800,0.1429,-0.1516,-0.0993,-0.75,84.19,292.63,0.7423,10.1281,0.6828,10.1782
1,7,1,2,1,22.141,22141,-0.8600,10.9100,0.8000,10.9730,0.0709,-0.0971,0.7385,-0.88,83.50,293.63,0.5311,10.2311,0.6983,10.2687
1,7,1,2,1,22.267,22267,0.3600,9.7000,1.7100,9.8562,0.4265,-0.0033,0.4178,-2.94,81.81,296.06,0.5086,10.1611,0.8316,10.2078
1,7,1,2,1,22.429,22429,1.0700,6.6100,0.5100,6.7154,-0.2105,-0.0305,-0.0545,-4.06,80.00,297.38,0.5826,9.6932,0.7892,9.7427
1,7,1,2,1,22.550,22550,1.2300,9.4700,1.3600,9.6459,-0.5334,-0.0175,-0.3174,-3.94,82.75,297.44,0.6679,9.6638,0.8644,9.7253
1,7,1,2,1,22.671,22671,-0.8000,12.7100,0.9700,12.7720,-0.2389,-0.0207,-0.1669,-0.50,85.56,294.38,0.4744,10.0652,0.8783,10.1146
1,7,1,2,1,22.793,22793,1.3000,11.0700,1.1800,11.2084,0.1102,0.0262,0.0513,-2.69,85.81,296.38,0.5832,10.1976,0.9181,10.2554
1,7,1,2,1,22.919,22919,-2.1500,6.0300,0.7100,6.4411,0.2029,0.0873,0.9283,-0.50,84.44,294.06,0.2231,9.6484,0.8907,9.6920
1,7,1,2,1,23.041,23041,1.0500,10.2000,0.6700,10.2758,-0.0469,-0.0273,-0.2585,-4.81,84.06,298.13,0.3320,9.7211,0.8616,9.7649
1,7,1,2,1,23.161,23161,1.3200,9.5300,0.9200,9.6649,-0.0196,0.0109,0.7003,-5.13,84.56,298.63,0.4622,9.6959,0.8693,9.7458
1,7,1,2,1,23.282,23282,0.5900,9.3500,0.5000,9.3819,-0.0022,-0.0436,-0.5727,-4.63,84.56,298.25,0.4791,9.6503,0.8206,9.6970
1,7,1,2,1,23.444,23444,-0.8600,6.9400,1.0200,7.0671,0.0524,-0.0273,-0.5476,-0.31,84.00,294.19,0.3026,9.2932,0.8469,9.3366
1,7,1,2,1,23.567,23567,-1.5700,9.2300,1.0000,9.4158,-0.1113,-0.0120,-0.0087,1.69,84.50,292.31,0.0558,9.2849,0.8671,9.3254
1,8,1,2,1,23.688,23688,0.5700,10.8300,0.8700,10.8798,-0.0556,0.0840,0.6927,-0.44,85.19,294.25,0.1236,9.4885,0.8675,9.5288
1,8,1,2,1,23.812,23812,0.8800,11.4100,0.2300,11.4462,-0.0295,0.1691,0.3098,-3.69,85.38,296.56,0.2233,9.7417,0.7835,9.7757
1,8,1,2,1,23.933,23933,2.4000,10.1300,0.9500,10.4537,0.1036,0.1702,-0.1047,-5.94,85.06,297.44,0.5101,9.7928,0.8054,9.8391
1,8,1,2,1,24.054,24054,2.5900,11.8800,1.0500,12.2043,0.0960,0.1854,0.7210,-6.19,84.38,296.50,0.7842,10.0679,0.8376,10.1331
1,8,1,2,1,24.175,24175,0.1800,8.5000,0.3000,8.5072,-0.0327,0.0502,0.2585,-6.88,84.19,296.50,0.7046,9.8613,0.7668,9.9161
1,8,1,2,1,24.297,24297,0.9700,9.6100,1.1700,9.7294,-0.1331,0.0131,0.4352,-8.69,84.63,298.25,0.7395,9.8282,0.8199,9.8900
1,8,1,2,1,24.464,24464,2.4000,8.6500,0.7600,9.0089,-0.1200,-0.0480,-0.3218,-11.00,85.81,300.81,0.9584,9.6729,0.8120,9.7541
1,8,1,2,1,24.585,24585,1.9600,9.7800,0.9400,10.0187,-0.0491,-0.0600,0.4265,-11.00,86.44,301.31,1.0903,9.6870,0.8289,9.7834
1,8,1,2,1,24.725,24725,2.2800,10.7300,0.3000,10.9737,0.0164,-0.0894,0.1167,-11.00,86.31,302.06,1.2471,9.8245,0.7592,9.9324
1,8,1,2,1,24.845,24845,1.3300,10.8800,0.6700,10.9814,0.0600,-0.0960,-0.6709,-8.56,86.06,300.25,1.2580,9.9636,0.7474,10.0704
1,8,1,2,1,24.966,24966,0.0200,10.4900,1.0500,10.5424,0.0742,-0.0502,-0.4298,-4.69,85.75,296.81,1.0949,10.0329,0.7873,10.1232
1,8,1,2,1,25.088,25088,0.3700,9.4200,1.2400,9.5085,0.2127,-0.0862,-0.4898,-3.13,84.88,295.50,0.9994,9.9522,0.8470,10.0380
1,8,1,2,1,25.208,25208,0.0400,9.4500,0.5600,9.4667,0.2247,-0.0600,-0.1702,-2.06,83.19,294.81,0.8729,9.8860,0.8091,9.9574
1,8,1,2,1,25.334,25334,-1.9800,5.5700,-0.2200,5.9155,-0.1047,0.1244,-0.0774,-0.81,82.50,293.38,0.4970,9.3172,0.6735,9.3548
1,8,1,2,1,25.497,25497,1.4100,12.4100,0.8900,12.5215,-0.6905,0.3043,0.1669,-2.63,87.63,292.88,0.6173,9.7248,0.7021,9.7696
1,8,1,2,1,25.618,25618,2.2600,12.5600,0.9200,12.7948,0.0458,0.1451,0.0589,-3.13,89.75,291.94,0.8338,10.0984,0.7308,10.1591
1,8,1,2,1,25.739,25739,1.6400,8.9800,0.6200,9.1496,0.3600,-0.0993,0.3774,-4.56,88.00,293.25,0.9400,9.9510,0.7162,10.0210
1,8,1,2,1,25.860,25860,0.7000,8.2000,0.1600,8.2314,0.0960,-0.1527,-0.0709,-5.00,86.25,294.56,0.9084,9.7203,0.6429,9.7838
1,8,1,2,1,25.987,25987,-0.3700,6.7300,-0.1400,6.7416,-0.4374,-0.1004,0.1680,-5.19,87.38,295.75,0.7399,9.3262,0.5397,9.3711
1,9,1,2,1,26.109,26109,0.3600,13.2200,0.0700,13.2251,-0.5105,-0.0382,-0.2553,-6.50,91.38,297.94,0.6899,9.8393,0.4778,9.8751
1,9,1,2,1,26.229,26229,-0.9500,10.1200,1.2000,10.2351,0.4865,0.0425,0.7232,-5.88,91.19,297.25,0.4738,9.8763,0.5730,9.9043
1,9,1,2,1,26.350,26350,-2.2800,7.4400,-2.7600,8.2565,0.3611,-0.0196,-0.6120,-11.25,87.56,302.00,0.1109,9.5553,0.1338,9.5569
1,9,1,2,1,26.512,26512,0.7300,9.1500,0.6900,9.2050,-0.0698,0.1254,-0.0982,-9.06,87.13,299.00,0.1925,9.5019,0.2071,9.5061
1,9,1,2,1,26.650,26650,1.8900,9.0900,0.4200,9.2939,0.1429,0.0916,-0.2716,-8.69,86.88,297.75,0.4162,9.4476,0.2351,9.4597
1,9,1,2,1,26.771,26771,1.4100,5.8500,0.2800,6.0240,0.1647,0.0033,-0.7570,-5.56,85.81,294.06,0.5471,8.9735,0.2411,8.9934
1,9,1,2,1,26.891,26891,-1.0300,9.6000,1.1600,9.7245,0.1724,-0.0971,-1.6668,2.13,84.69,286.63,0.3393,9.0561,0.3621,9.0697
1,9,1,2,1,27.012,27012,-3.8400,9.7300,0.7200,10.4851,0.0960,-0.0829,-0.6392,10.06,83.63,279.38,-0.2114,9.1449,0.4093,9.1565
1,9,1,2,1,27.134,27134,-3.6900,10.6800,0.2100,11.3014,-0.0109,-0.0207,0.7210,9.19,83.19,280.63,-0.6698,9.3472,0.3830,9.3790
1,9,1,2,1,27.255,27255,0.0100,10.8600,1.2300,10.9294,-0.0207,0.1178,1.1519,1.63,83.38,287.81,-0.5802,9.5465,0.4946,9.5769
1,9,1,2,1,27.381,27381,1.0000,9.7600,1.1100,9.8737,-0.0654,0.1145,0.0033,-1.81,83.69,290.50,-0.3720,9.5747,0.5757,9.5992
1,9,1,2,1,27.543,27543,1.6000,12.3500,0.5900,12.4672,-0.1538,0.0742,0.6327,-6.94,84.94,294.63,-0.1121,9.9404,0.5776,9.9578
1,9,1,2,1,27.664,27664,2.6900,9.1100,1.1800,9.5719,-0.0938,-0.0055,0.0535,-10.88,85.75,298.44,0.2571,9.8310,0.6570,9.8562
1,9,1,2,1,27.785,27785,1.7600,10.3700,0.7800,10.5472,-0.0131,-0.0633,0.0044,-10.88,86.06,298.75,0.4552,9.9020,0.6732,9.9353
1,9,1,2,1,27.907,27907,1.7000,10.0200,0.6100,10.1815,0.0404,-0.0665,0.2225,-11.75,85.81,300.06,0.6192,9.9175,0.6649,9.9591
1,9,1,2,1,28.033,28033,2.0400,11.0700,0.9600,11.2973,0.0611,-0.0676,0.3480,-13.31,85.31,302.00,0.8064,10.0694,0.7038,10.1261
1,9,1,2,1,28.154,28154,2.9200,11.2000,1.0900,11.6256,0.1113,-0.0862,-0.4865,-13.63,84.44,302.63,1.0849,10.2184,0.7547,10.3035
1,9,1,2,1,28.274,28274,2.1400,10.5400,0.7200,10.7791,0.1789,-0.0545,-0.3327,-9.75,83.44,299.06,1.2240,10.2608,0.7501,10.3607
1,9,1,2,1,28.395,28395,0.9800,10.0900,0.5900,10.1546,0.2345,-0.0873,-0.3523,-6.94,81.88,296.50,1.1918,10.2383,0.7290,10.3331
1,9,1,2,1,28.557,28557,0.7300,9.2200,1.9500,9.4522,0.1047,-0.1113,0.2978,-6.75,80.56,297.19,1.1310,10.1041,0.8899,10.2061
1,9,1,2,1,28.678,28678,-0.0500,11.6000,2.0100,11.7730,0.2280,-0.1484,-0.1418,-6.25,79.25,297.50,0.9753,10.3012,1.0375,10.3992
1,9,1,2,1,28.800,28800,1.5800,7.4800,0.6500,7.6726,0.1833,-0.0993,0.4614,-8.75,77.50,300.63,1.0550,9.9294,0.9864,10.0339
1,9,1,2,1,28.925,28925,4.2000,8.3400,1.3500,9.4349,-0.1582,-0.0295,0.7418,-12.13,77.13,304.56,1.4694,9.7200,1.0343,9.8847
1,9,1,2,1,29.047,29047,0.6800,8.7600,2.7800,9.2157,-0.1364,-0.0502,-0.0251,-11.13,78.19,304.19,1.3654,9.5935,1.2644,9.7723
1,9,1,2,1,29.168,29168,6.2200,4.7500,1.2900,7.9319,-0.3720,-0.0447,0.7341,-15.56,79.81,309.38,2.0051,8.9552,1.2678,9.2641
1,9,1,2,1,29.288,29288,0.0000,10.1300,2.8300,10.5179,0.3000,-0.2040,-0.5051,-13.25,80.31,308.25,1.7409,9.1100,1.4736,9.3912
1,9,1,2,1,29.410,29410,2.0800,7.8900,1.4700,8.2909,-0.0884,-0.1614,0.0687,-13.50,79.44,309.44,1.7856,8.9493,1.4731,9.2438
1,9,1,2,1,29.577,29577,1.9600,8.8900,1.5300,9.2312,0.1287,-0.1364,0.0076,-13.94,79.06,311.19,1.8086,8.9415,1.4806,9.2419
1,9,1,2,1,29.698,29698,2.3300,8.1800,1.7000,8.6736,0.1113,-0.0687,-0.2705,-13.56,78.13,311.38,1.8773,8.8411,1.5095,9.1634
1,9,1,2,1,29.819,29819,0.3200,7.7600,1.2900,7.8730,-0.0382,0.0349,-0.8879,-9.69,77.88,307.38,1.6721,8.6987,1.4806,8.9808
1,9,1,2,1,29.940,29940,-0.6800,7.7500,1.9300,8.0156,-0.1025,0.1549,-0.4309,-5.56,78.56,302.56,1.3621,8.5736,1.5398,8.8167
1,9,1,2,1,30.061,30061,0.5400,8.5700,1.5400,8.7240,-0.1920,0.2716,0.2171,-4.88,79.88,300.50,1.2538,8.5732,1.5399,8.8001
1,10,1,2,1,30.183,30183,-0.3400,11.0400,1.8600,11.2007,-0.1407,0.3403,-0.4025,-4.13,81.38,297.75,1.0438,8.8982,1.5820,9.0979
1,10,1,2,1,30.304,30304,2.0100,11.8800,1.2300,12.1115,-0.0589,0.3632,0.4265,-6.00,82.38,297.13,1.1711,9.2912,1.5356,9.4897
1,10,1,2,1,30.429,30429,1.3000,11.0800,1.0500,11.2053,0.0055,0.2313,-0.0818,-7.56,82.81,296.81,1.1881,9.5269,1.4717,9.7128
1,10,1,2,1,30.591,30591,1.6200,9.9200,0.6500,10.0724,-0.0796,0.0720,0.2105,-9.63,83.13,297.44,1.2450,9.5787,1.3634,9.7550
1,10,1,2,1,30.712,30712,3.7800,10.5100,1.0900,11.2221,-0.1560,-0.0240,0.1353,-11.81,83.94,299.63,1.5790,9.7014,1.3274,9.9183
1,10,1,2,1,30.833,30833,1.8600,9.0000,0.9300,9.2371,-0.1069,-0.1418,-0.2323,-10.94,84.75,299.50,1.6161,9.6090,1.2750,9.8270
1,10,1,2,1,30.955,30955,0.8500,10.2600,0.7900,10.3254,-0.0251,-0.1451,0.2618,-10.13,85.00,299.75,1.5151,9.6948,1.2111,9.8869
1,10,1,2,1,31.081,31081,1.5800,10.4800,0.5200,10.6112,-0.0065,-0.1254,0.1494,-11.75,84.88,302.31,1.5237,9.7982,1.1200,9.9791
1,10,1,2,1,31.202,31202,1.9600,11.0600,1.1900,11.2952,-0.2007,0.0087,-0.3829,-11.19,85.44,302.31,1.5812,9.9645,1.1292,10.1522
1,10,1,2,1,31.323,31323,1.6300,11.7000,0.8700,11.8450,-0.1931,0.1636,-0.5858,-6.75,86.94,297.44,1.5876,10.1932,1.0951,10.3741
1,10,1,2,1,31.444,31444,0.2200,10.3400,-0.4000,10.3501,-0.0556,0.1724,-0.6687,-2.94,87.81,292.38,1.4074,10.2125,0.8981,10.3481
1,10,1,2,1,31.607,31607,-0.2800,9.9000,-0.4500,9.9142,0.1102,0.0949,0.0535,-2.44,87.63,290.69,1.1850,10.1714,0.7204,10.2655
1,10,1,2,1,31.733,31733,-0.5300,9.4000,0.0300,9.4150,0.1844,0.0807,0.5694,-3.63,86.63,291.31,0.9590,10.0697,0.6294,10.1348
1,10,1,2,1,31.854,31854,1.0000,8.4600,0.7100,8.5484,0.1963,0.0862,0.3251,-6.81,85.19,293.81,0.9644,9.8576,0.6401,9.9253
1,10,1,2,1,31.974,31974,1.4800,7.3300,1.6900,7.6665,0.0676,0.1113,0.9043,-10.94,84.44,297.19,1.0324,9.5245,0.7784,9.6119
1,10,1,2,1,32.095,32095,3.2700,10.1500,1.2000,10.7310,0.0905,0.0305,-0.1702,-14.75,83.81,300.31,1.3272,9.6069,0.8340,9.7340
1,10,1,2,1,32.216,32216,1.2900,7.4300,1.4100,7.6718,-0.1724,0.0240,0.0415,-13.69,83.88,299.13,1.3223,9.3201,0.9099,9.4573
1,10,1,2,1,32.337,32337,1.2900,9.3000,0.9200,9.4340,0.0502,-0.0502,-0.3043,-12.69,84.31,298.19,1.3181,9.3174,0.9112,9.4542
1,10,1,2,1,32.458,32458,3.6200,5.9300,0.3300,6.9554,0.0196,-0.1080,0.2018,-13.38,84.00,299.31,1.6214,8.8711,0.8346,9.0566
1,10,1,2,1,32.620,32620,0.7400,8.4100,0.5500,8.4604,-0.0087,-0.2160,-0.4091,-7.31,83.81,294.94,1.5053,8.8103,0.7971,8.9734
1,10,1,2,1,32.745,32745,-0.1900,9.9000,0.9700,9.9492,-0.0327,-0.2051,-0.0774,-5.44,83.50,294.50,1.2819,8.9539,0.8199,9.0823
1,10,1,2,1,32.866,32866,1.1800,10.4500,1.1700,10.5813,-0.0022,-0.0829,0.6850,-8.13,83.50,298.19,1.2684,9.1510,0.8660,9.2790
1,10,1,2,1,32.987,32987,2.9900,10.6500,0.8900,11.0975,-0.0153,-0.0305,0.1974,-12.44,83.44,302.88,1.4953,9.3486,0.8692,9.5072
1,10,1,2,1,33.108,33108,2.9900,11.3400,0.9800,11.7684,-0.0273,0.0196,0.1778,-13.56,83.63,304.00,1.6923,9.6110,0.8838,9.7988
1,10,1,2,1,33.230,33230,0.7300,10.9300,0.5500,10.9681,-0.0196,0.0316,0.4996,-13.56,83.75,304.06,1.5655,9.7848,0.8398,9.9448
1,10,1,2,1,33.357,33357,1.9900,10.2600,1.1700,10.5165,-0.0142,0.0480,-0.0567,-17.38,83.88,307.56,1.6214,9.8474,0.8833,10.0190
1,10,1,2,1,33.478,33478,3.1900,8.8500,0.6400,9.4291,0.0164,0.1156,0.0480,-19.31,84.00,308.81,1.8281,9.7160,0.8513,9.9231
