timestamp_ms,phone_roll,phone_pitch,phone_yaw,phone_accelX,phone_accelY,phone_accelZ,phone_gyroX_rad,phone_gyroY_rad,phone_gyroZ_rad,esp32_roll,esp32_pitch,esp32_yaw,esp32_accelX,esp32_accelY,esp32_accelZ,esp32_gyroX_deg,esp32_gyroY_deg,esp32_gyroZ_deg,esp32_gyroX_rad,esp32_gyroY_rad,esp32_gyroZ_rad,esp32_qw,esp32_qx,esp32_qy,esp32_qz,esp32_quatNorm,diff_roll,diff_pitch,diff_yaw,diff_accelX,diff_accelY,diff_accelZ,diff_gyroX_rad,diff_gyroY_rad,diff_gyroZ_rad,phone_qw,phone_qx,phone_qy,phone_qz,diff_quat_angle_deg
1773346732548,0.6666666666666666,1.4666666666666668,30.066666666666666,-0.06666666666666667,0.25,9.833333333333334,-0.03461569683122087,-0.014835298641951801,0.04508767234318685,0,3.0625,262.625,0.07999999821186066,0.6600000262260437,9.899999618530273,-0.046905722469091415,0.018544122576713562,-0.014180799946188927,-0.0008186592951123293,0.0003236559958570664,-0.0002475016496276315,0.659912109375,-0.01788330078125,0.0198974609375,-0.7508544921875,0.9999910909285654,-0.6666666666666666,1.5958333333333332,232.55833333333334,0.1466666648785273,0.4100000262260437,0.06666628519693951,0.03379703753610854,0.015158954637808867,-0.04533517399281448,0.9656603281497625,0.010851601973937332,0.25942723101870435,0.008937850874802892,101.0846856454605
1773346732662,0.4000000000000001,1.7333333333333334,29.96666666666667,0.014285714285714287,0.32857142857142857,9.785714285714286,-0.05136254655869027,0.00648265150740751,0.05435453956210912,-0.1875,3.25,262.4375,0.09000000357627869,0.6399999856948853,9.739999771118164,-0.06763150542974472,0.04363323003053665,-0.04145156964659691,-0.001180392447829468,0.0007615435273129305,-0.0007234663704528584,0.65850830078125,-0.01751708984375,0.0228271484375,-0.75201416015625,0.9999932031847522,-0.5875000000000001,1.5166666666666666,232.47083333333333,0.0757142892905644,0.3114285571234567,-0.04571451459612241,0.0501821541108608,-0.00572110798009458,-0.055078005932561985,0.9658710287878248,0.013708903513637858,0.2585579095623017,0.007282109280653194,100.97896685621168
1773346732779,0.1,2.1,30.160000000000004,-0.028571428571428574,0.3714285714285714,9.72857142857143,-0.021193283774216858,0.02543194052906023,0.05585053606381855,-0.5,3.625,262.3125,0.14000000059604645,0.6000000238418579,9.609999656677246,-0.062177352607250214,0.038179077208042145,-0.023998277261853218,-0.001085199523169997,0.0006663506026534595,-0.00041884895302582805,0.65740966796875,-0.017333984375,0.02691650390625,-0.75286865234375,1.0000118221388807,-0.6,1.525,232.1525,0.16857142916747503,0.22857145241328652,-0.11857177189418344,0.020108084251046862,-0.024765589926406772,-0.05626938501684438,0.9653968439882634,0.017466877451828306,0.26013913483928136,0.005610020913827382,100.84269340077638
1773346732879,0.10000000000000002,2.466666666666667,30.3,-0.03333333333333333,0.45,9.783333333333333,0.0026179938779914945,0.003199770295322938,0.04596033696918401,-0.5,3.875,262.25,0.009999999776482582,0.6399999856948853,9.699999809265137,0.010908307507634163,-0.015271631069481373,0.004363323096185923,0.00019038588182823261,-0.0002665402443123129,0.00007615435435675759,0.6571044921875,-0.0186767578125,0.02874755859375,-0.75299072265625,0.999978292497823,-0.6,1.4083333333333332,231.95,0.043333333109815915,0.18999998569488524,-0.0833335240681965,-0.0024276079961632617,-0.003466310539635251,-0.045884182614827254,0.9650160359713109,0.02054797146695699,0.26130442801594517,0.006467386339972779,100.95598079591645
1773346732978,0.1,2.4000000000000004,30.3,-0.016666666666666673,0.48333333333333334,9.783333333333333,0.005817764173314432,-0.00145444104332861,-0.058759418150475765,-0.4375,4.125,262.1875,-0.029999999329447746,0.75,9.920000076293945,0.04036073759198189,0.009817477315664291,0.030543262138962746,0.0007044277595135317,0.00017134730339819656,0.0005330804886246258,0.65655517578125,-0.02044677734375,0.030029296875,-0.75335693359375,0.9999655982149974,-0.5375,1.7249999999999996,231.8875,-0.013333332662781073,0.26666666666666666,0.1366667429606121,-0.0051133364138009,0.0016257883467268065,0.05929249863910039,0.9650280922922791,0.019986538737352285,0.26130716649338265,0.006315385595858869,100.97082437506089
1773346733078,0.1,2.4000000000000004,30.200000000000003,0.03333333333333333,0.4166666666666667,9.800000000000002,-0.002908882086657216,-0.00930842267730309,0.030543261909900768,-0.4375,3.8125,262.3125,0.09000000357627869,0.5799999833106995,9.8100004196167,0.0010908307740464807,-0.0021816615480929613,0.020725784823298454,0.000019038588589189398,-0.000038077177178378795,0.0003617331852264292,0.657470703125,-0.0189208984375,0.0281982421875,-0.752685546875,0.9999781993635395,-0.5375,1.4124999999999996,232.1125,0.056666670242945354,0.16333331664403278,0.010000419616696732,0.0029279206752464053,0.009270345500124712,-0.03018152872467434,0.9652557583286185,0.019992042339952477,0.26046492122264703,0.006297941647999983,100.88483304988543
1773346733179,0.07500000000000001,2.625,30.1,0,0.48333333333333334,9.733333333333334,-0.017453292519943295,-0.021234839232597676,0.0037815467126543763,-0.4375,4.125,262.25,0.1599999964237213,0.6399999856948853,9.829999923706055,-0.14726215600967407,0.01636246219277382,-0.062177352607250214,-0.002570209485954367,0.00028557883899699426,-0.001085199523169997,0.65692138671875,-0.02056884765625,0.0302734375,-0.7530517578125,0.9999861082959873,-0.5125,1.5,232.15,0.1599999964237213,0.15666665236155192,0.0966665903727204,0.014883083033988928,0.02152041807159467,-0.004866746235824373,0.9654421318872374,0.021949868653098368,0.2596081715542979,0.006579552064719984,100.911704093595
1773346733279,-0.06666666666666667,2.5666666666666664,30.066666666666666,0.016666666666666666,0.5,9.75,-0.01890773356327191,-0.002617993877991494,0.004945099547317268,-0.625,4.125,262.1875,0.10999999940395355,0.75,9.699999809265137,-0.006544984877109528,0.02508910745382309,0,-0.0001142315355987977,0.0004378875314558641,0,0.656494140625,-0.0196533203125,0.03094482421875,-0.75341796875,0.9999835135918833,-0.5583333333333333,1.5583333333333336,232.12083333333334,0.09333333273728689,0.25,-0.05000019073486328,0.018793502027673114,0.0030558814094473583,-0.004945099547317268,0.9655360555471841,0.021780860581162832,0.2593032649973794,0.00524750535279763,100.78702553352876
1773346733379,-0.06666666666666667,2.766666666666667,30,0,0.5166666666666667,9.850000000000001,0.018035068937274742,-0.0008726646259971649,0.061086523819801536,-0.6875,4.3125,262.125,0.14000000059604645,0.75,9.90999984741211,-0.05781403183937073,-0.003272492438554764,-0.0054541537538170815,-0.0010090452094498527,-0.00005711576779939885,-0.00009519294091411631,0.6563720703125,-0.02020263671875,0.03253173828125,-0.75347900390625,1.000010682212876,-0.6208333333333333,1.545833333333333,232.125,0.14000000059604645,0.23333333333333328,0.059999847412107954,-0.019044114146724595,0.000815548858197766,-0.061181716760715654,0.9656477832365227,0.023469305294347924,0.2587300033590286,0.005686457704718688,100.7913124318925
1773346733496,0.016666666666666666,3.4166666666666665,30,0.042857142857142864,0.5857142857142857,9.799999999999999,0.022439947525641383,-0.010222642761681073,0.1837582369599744,-0.5625,5,262.125,0.14000000059604645,0.8100000023841858,9.829999923706055,-0.21707531809806824,-0.014180799946188927,-0.02508910745382309,-0.0037886790256253257,-0.0002475016496276315,-0.0004378875314558641,0.65582275390625,-0.02490234375,0.03631591796875,-0.75360107421875,0.9999785178827533,-0.5791666666666667,1.5833333333333335,232.125,0.09714285773890358,0.22428571666990005,0.029999923706055753,-0.026228626551266707,0.009975141112053441,-0.18419612449143027,0.9654953734093984,0.02875819013208851,0.2587081944808188,0.00785624171266898,101.0186777276924
1773346733596,0.2,4.44,30,-0.016666666666666666,0.8166666666666668,9.733333333333334,0.04392411950852395,-0.0034906585039886596,0.16784249640012133,-0.375,5.875,262.125,0.10999999940395355,0.9100000262260437,9.829999923706055,-0.13199052214622498,-0.062177352607250214,0.02508910745382309,-0.0023036691928781184,-0.001085199523169997,0.0004378875314558641,0.65570068359375,-0.03094482421875,0.04107666015625,-0.7532958984375,1.0000214853809857,-0.575,1.4349999999999996,232.125,0.12666666607062022,0.09333335955937694,0.0966665903727204,-0.04622778870140207,0.0024054589808186625,-0.16740460886866546,0.9651818877744379,0.036965254971784,0.2586897004478,0.011710350945677593,101.37772419061295
1773346733695,0.5,5.525,29.900000000000002,-0.08333333333333333,1.0333333333333332,9.783333333333333,0.06079563561113581,-0.012217304763960308,0.17656914266009302,-0.1875,6.875,262.1875,0,1.2000000476837158,9.819999694824219,-0.17671458423137665,-0.047996554523706436,0.0010908307740464807,-0.0030842513311303754,-0.0008376979060516561,0.000019038588589189398,0.65576171875,-0.03814697265625,0.04638671875,-0.7525634765625,0.9999910685766242,-0.6875,1.3499999999999996,232.2875,0.08333333333333333,0.1666667143503826,0.036666361490885535,-0.06387988694226618,0.011379606857908653,-0.17655010407150384,0.9649651146543472,0.04543990559642952,0.25787694543522977,0.016644022726064703,101.82740883543134
1773346733795,0.825,6.525,29.8,-0.13333333333333333,1.1666666666666667,9.683333333333335,0.03723369070921236,-0.0031997702953229378,0.16667894356545848,0.1875,8,262.125,-0.07000000029802322,1.3300000429153442,9.720000267028809,-0.19634954631328583,-0.06544984877109528,-0.019634954631328583,-0.003426946067963931,-0.001142315355987977,-0.00034269460679639313,0.65484619140625,-0.04736328125,0.05181884765625,-0.75250244140625,1.0000059660346161,-0.6375,1.4749999999999996,232.325,0.06333333303531011,0.1633333762486775,0.03666693369547325,-0.040660636777176296,0.0020574549393349607,-0.16702163817225488,0.9646794951976714,0.05314741169170048,0.2571053462452055,0.021579274959365485,102.44703059175696
1773346733895,0.95,7.200000000000001,29.8,-0.16666666666666666,1.2500000000000002,9.616666666666669,0.023852833110589174,-0.0034906585039886596,0.10006554378100822,0.3125,8.875,262.125,-0.07000000029802322,1.4500000476837158,9.619999885559082,-0.08290313929319382,-0.019634954631328583,0,-0.0014469327409057167,-0.00034269460679639313,0,0.65447998046875,-0.05303955078125,0.056396484375,-0.7520751953125,0.9999774505635849,-0.6375,1.674999999999999,232.325,0.09666666636864343,0.2000000476837156,0.0033332188924131145,-0.02529976585149489,0.0031479638971922664,-0.10006554378100822,0.9643021636742156,0.05854969010645997,0.2571196258521879,0.024140607351405507,102.73011457225941
1773346733995,1.12,7.92,29.8,-0.23333333333333336,1.4166666666666667,9.683333333333335,0.03287036757922653,0.009017534468637371,0.11024663108430849,0.4375,9.5625,262.0625,-0.10999999940395355,1.6200000047683716,9.619999885559082,-0.16580627858638763,-0.01636246219277382,-0.008726646192371845,-0.0028938654818114334,-0.00028557883899699426,-0.00015230870871351518,0.65411376953125,-0.057861328125,0.0604248046875,-0.75177001953125,1.000011037974236,-0.6825000000000001,1.6425,232.2625,0.12333333392937981,0.20333333810170484,-0.06333344777425332,-0.035764233061037966,-0.009303113307634366,-0.110398939793022,0.9638492579304421,0.06422763359006967,0.2571589139547274,0.0271792576054063,103.09626055725566
1773346734095,1.2333333333333334,8.333333333333334,29.833333333333332,-0.18333333333333335,1.5,9.716666666666669,0.00872664625997165,0.009599310885968812,0.05090543651650128,0.5625,10,262.125,-0.20999999344348907,1.590000033378601,9.710000038146973,-0.013089969754219055,-0.046905722469091415,0.04036073759198189,-0.0002284630711975954,-0.0008186592951123293,0.0007044277595135317,0.654052734375,-0.0616455078125,0.06256103515625,-0.75128173828125,0.99996163995005,-0.6708333333333334,1.666666666666666,232.29166666666666,-0.026666660110155727,0.09000003337860107,-0.006666628519695905,-0.008955109331169244,-0.010417970181081142,-0.05020100875698775,0.9634901117407892,0.06744228627279344,0.2574742941166242,0.029074567394306666,103.32675880623238
1773346734195,1.3,8.733333333333334,29.900000000000002,-0.18333333333333335,1.5333333333333332,9.55,0.02792526803190927,0.016580627893946133,0.079412480965742,0.5625,10.4375,262.125,-0.019999999552965164,1.649999976158142,9.550000190734863,-0.09926559776067734,-0.018544122576713562,0.009817477315664291,-0.0017325115148841296,-0.0003236559958570664,0.00017134730339819656,0.65411376953125,-0.06378173828125,0.0650634765625,-0.7508544921875,0.9999743286950453,-0.7375,1.7041666666666657,232.225,0.16333333378036818,0.11666664282480887,1.9073486257070726e-7,-0.0296577795467934,-0.0169042838898032,-0.0792411336623438,0.9630619748490143,0.07063892963126298,0.2580451300965554,0.030569348274335065,103.47243991101668
1773346734295,1.3,8.850000000000001,30.150000000000002,-0.18333333333333332,1.5499999999999998,9.483333333333333,-0.015707963267948967,0.07097672291443606,-0.0619591884457987,0.6875,10.6875,262.3125,-0.07999999821186066,1.7400000095367432,9.520000457763672,0.07963064312934875,-0.007635815534740686,0.05890486016869545,0.0013898169080877366,-0.00013327012215615645,0.001028083755370598,0.6551513671875,-0.06646728515625,0.0662841796875,-0.7496337890625,0.9999928120265357,-0.6125,1.8374999999999986,232.1625,0.10333333512147266,0.19000000953674334,0.03666712443033937,0.017097780176036702,-0.07110999303659221,0.0629872722011693,0.9624183769799391,0.07155241659877971,0.26013641501766865,0.030986527910202514,103.39866110109462
1773346734395,1.0400000000000003,8.34,30.920000000000005,-0.18333333333333332,1.5,9.483333333333333,-0.04363323129985824,0.18005980116408166,-0.14311699866353503,0.4375,10.1875,262.8125,-0.10999999940395355,1.7000000476837158,9.449999809265137,0.13417218625545502,0.030543262138962746,0.11235556751489639,0.0023417464147567715,0.0005330804886246258,0.001960974586081725,0.658447265625,-0.06182861328125,0.06396484375,-0.74737548828125,1.0000186002014764,-0.6025000000000003,1.8475000000000001,231.89249999999998,0.07333333392937977,0.20000004768371582,-0.033333524068195786,0.045974977714615006,-0.17952672067545702,0.14507797324961674,0.961049756024018,0.06766917502451857,0.2664850002303286,0.028106829239855517,102.68611225224967
1773346734495,0.6666666666666666,7.716666666666666,31.91666666666667,-0.21666666666666665,1.2833333333333332,9.600000000000001,-0.04363323129985824,0.20420352248333656,-0.12566370614359174,0.4375,10.1875,262.8125,-0.10999999940395355,1.7000000476837158,9.449999809265137,0.13417218625545502,0.030543262138962746,0.11235556751489639,0.0023417464147567715,0.0005330804886246258,0.001960974586081725,0.658447265625,-0.06182861328125,0.06396484375,-0.74737548828125,1.0000186002014764,-0.22916666666666663,2.470833333333334,230.89583333333331,0.1066666672627131,0.4166667143503826,-0.1500001907348647,0.045974977714615006,-0.20367044199471193,0.12762468072967345,0.9591588503799672,0.06309953075363436,0.2746868246504538,0.024081057283722535,102.30835727319253
1773346734595,0.3666666666666667,6.916666666666667,32.96666666666667,-0.09999999999999999,1.2333333333333334,9.816666666666668,-0.06370451769779303,0.15038920388017804,-0.21583905082996543,-0.4375,8.5625,264.5625,-0.009999999776482582,1.4700000286102295,9.84000015258789,0.2356194406747818,0.09162978827953339,0.22362031042575836,0.004112335021482392,0.0015992414983831678,0.003902910691261286,0.67156982421875,-0.04632568359375,0.0576171875,-0.73724365234375,1.0000000204890964,-0.8041666666666667,1.645833333333333,231.59583333333333,0.09000000022351741,0.2366666952768961,0.02333348592122242,0.06781685271927543,-0.14878996238179487,0.21974196152122671,0.9570964167516319,0.05693700483947915,0.2834033553569968,0.020178322365631392,100.18172195600224
1773346734697,0.11666666666666665,5.916666666666667,33.85,0.08333333333333333,0.9666666666666668,9.799999999999999,0.009017534468637371,0.21845704470795693,-0.15446163880149816,-0.9375,7.3125,265.9375,0.17000000178813934,1.1799999475479126,9.880000114440918,0.1592612862586975,0.010908307507634163,0.20834867656230927,0.0027796338161754732,0.00019038588182823261,0.0036363703981850373,0.67987060546875,-0.03759765625,0.052490234375,-0.73046875,0.9999887216200205,-1.0541666666666667,1.395833333333333,232.0875,0.08666666845480601,0.2133332808812458,0.08000011444091903,-0.006237900652461898,-0.2182666588261287,0.1580980091996832,0.955395911229817,0.04907830677573478,0.29078180605145665,0.01599730848697348,98.7239401040883
1773346734814,-0.05714285714285715,4.742857142857143,36,0.042857142857142864,0.7142857142857143,9.700000000000001,0.027426602531339463,0.46799757228476535,-0.23512078351866472,-1.125,6.1875,267.625,0.17000000178813934,1.059999942779541,9.670000076293945,0.27488934993743896,0.03272492438554764,0.39269909262657166,0.004797724235075179,0.0005711576779939885,0.006853892135927862,0.6910400390625,-0.0303955078125,0.0460205078125,-0.720703125,0.9999955519934912,-1.0678571428571428,1.4446428571428571,231.625,0.12714285893099647,0.3457142284938267,-0.029999923706055753,-0.022628878296264286,-0.46742641460677137,0.24197467565459257,0.9502482778605056,0.03950622459840751,0.308732686451696,0.012312471621987918,97.27921134863028
1773346734928,-0.028571428571428574,3.5142857142857147,39.17142857142857,0.12857142857142856,0.5571428571428572,9.799999999999999,0.05036521555755065,0.39195108344786955,-0.06283185307179587,-1.1875,4.9375,270.375,0.18000000715255737,0.7599999904632568,9.869999885559082,0.1178097203373909,-0.046905722469091415,0.4766930341720581,0.002056167510741196,-0.0008186592951123293,0.008319862967624256,0.71002197265625,-0.0230712890625,0.03759765625,-0.7027587890625,0.9999734923455534,-1.1589285714285715,1.4232142857142853,231.20357142857142,0.051428578581128814,0.20285713332039967,0.0699998855590831,-0.04830904804680945,-0.3927697427429819,0.07115171603942012,0.9417005787421863,0.028972525885427775,0.33505183322118764,0.010043993009319404,95.32470985991688
1773346735030,0.08333333333333333,3.4166666666666665,41.11666666666667,0.05000000000000001,0.6666666666666669,9.883333333333335,0.05061454830783556,0.25918139392115797,0.0020362174606600517,-1.0625,4.75,272.5625,0.07999999821186066,0.8100000023841858,10.020000457763672,0.04363323003053665,-0.07744898647069931,0.40797069668769836,0.0007615435273129305,-0.0013517398162462457,0.0071204319088554605,0.72198486328125,-0.0233154296875,0.03582763671875,-0.69061279296875,1.0000177005601982,-1.1458333333333333,1.3333333333333335,231.44583333333333,0.029999998211860647,0.14333333571751894,0.13666712443033724,-0.049853004780522625,-0.2605331337374042,0.005084214448195409,0.9358911346231956,0.027657809985355383,0.35102496108822717,0.011149276816465745,94.3235065101713
1773346735146,0.09999999999999999,3.542857142857143,42.58571428571429,0.014285714285714287,0.642857142857143,9.871428571428572,0.010970641012535788,0.20794351373761014,-0.006981317007977316,-1,4.8125,274.1875,0,0.8799999952316284,9.869999885559082,-0.04036073759198189,-0.01636246219277382,0.24434609711170197,-0.0007044277595135317,-0.00028557883899699426,0.004264643908997006,0.7314453125,-0.0247802734375,0.03564453125,-0.6805419921875,1.0000171212876425,-1.1,1.2696428571428569,231.6017857142857,-0.014285714285714287,0.2371428523744854,-0.001428685869489854,-0.01167506877204932,-0.20822909257660713,0.011245960916974322,0.9312810776916534,0.028485397075485853,0.36298653107761564,0.012038053960833392,93.49395914159011
1773346735245,0.16,3.62,43.88,-0.06666666666666667,0.55,9.750000000000002,0.024725497736586336,0.1361356816555577,0.0686496172451103,-1.0625,4.75,275.3125,0.029999999329447746,0.7400000095367432,9.8100004196167,0.06872233748435974,-0.011999138630926609,0.19198621809482574,0.0011994310587687947,-0.00020942447651291403,0.0033507916242066244,0.7381591796875,-0.024169921875,0.03515625,-0.67327880859375,1.000001737846414,-1.2225,1.13,231.4325,0.09666666599611441,0.19000000953674312,0.06000041961669744,-0.02352606667781754,-0.13634510613207063,-0.06529882562090368,0.9270954498312256,0.02877620530923354,0.3734895661749287,0.01309583402086289,93.06202629211563
1773346735348,0.15,3.8500000000000005,44.325,0.016666666666666666,0.6666666666666669,9.816666666666666,-0.01454441043328608,0.050614548307835565,0.00029088820866572315,-1,5.1875,276.125,0.07999999821186066,1.1399999856948853,9.8100004196167,-0.02508910745382309,0.04908738657832146,0.062177352607250214,-0.0004378875314558641,0.0008567365169909828,0.001085199523169997,0.74298095703125,-0.02764892578125,0.03717041015625,-0.667724609375,1.0000114794161663,-1.15,1.3374999999999995,231.8,0.063333331545194,0.4733333190282184,-0.006666247049967211,0.014106522901830216,-0.04975781179084458,0.0007943113145042738,0.9255776516851878,0.030615920009999038,0.3770622333699492,0.013883382474762309,92.48853050588164
1773346735462,0,3.9000000000000004,44.55,0.08571428571428572,0.7142857142857144,9.657142857142858,-0.010471975511965976,0.02543194052906023,0.007479982508547124,-1.125,5.1875,276.3125,0.2199999988079071,1.0199999809265137,9.680000305175781,-0.05017821490764618,0.038179077208042145,0.019634954631328583,-0.0008757750629117282,0.0006663506026534595,0.00034269460679639313,0.74407958984375,-0.0269775390625,0.0379638671875,-0.66644287109375,0.9999847895240321,-1.125,1.2874999999999996,231.7625,0.1342857130936214,0.30571426664079926,0.02285744803292289,0.009596200449054248,-0.024765589926406772,-0.007137287901750731,0.9248393163930124,0.031488066252283224,0.3788329160349033,0.012898149707968891,92.24947402365575
1773346735562,0.06666666666666667,4,44.666666666666664,-0.016666666666666666,0.6333333333333334,9.783333333333333,0.020943951023931952,0.002908882086657216,0.06428629411512447,-1.1875,5.1875,276.5,0.009999999776482582,0.8600000143051147,9.640000343322754,0,0.007635815534740686,0.0359974168241024,0,0.00013327012215615645,0.0006282734457933874,0.74505615234375,-0.0269775390625,0.0382080078125,-0.6654052734375,1.000030243311959,-1.2541666666666667,1.1875,231.83333333333334,0.02666666644314925,0.22666668097178133,-0.1433329900105793,-0.020943951023931952,-0.0027756119645010596,-0.06365802066933109,0.9244174532567896,0.03206070114904461,0.37978159461045824,0.013799418509502165,92.23106212093987
1773346735662,0.1,4.3,44.6,0,0.8666666666666667,9.733333333333334,0.0026179938779914936,-0.004363323129985824,0.004654211338651544,-1.0625,5.5625,276.4375,0.009999999776482582,1.25,9.739999771118164,-0.10908307880163193,-0.023998277261853218,-0.08508480340242386,-0.0019038588833009075,-0.00041884895302582805,-0.0014850099627843703,0.74468994140625,-0.03009033203125,0.03961181640625,-0.66558837890625,1.000022761264686,-1.1625,1.2625000000000002,231.8375,0.009999999776482582,0.3833333333333333,0.006666437784829782,-0.004521852761292401,0.003944474176959996,-0.006139221301435915,0.9245456287389411,0.034379039907960755,0.379219181664853,0.015042415104040148,92.34732807646796
1773346735762,0.15000000000000002,4.2,44.45,0.016666666666666666,0.7500000000000001,9.799999999999999,0.00029088820866572055,-0.04916010726450695,-0.008144869842640207,-1,5.625,276.375,0.05999999865889549,1.0099999904632568,9.8100004196167,0.03490658476948738,-0.006544984877109528,-0.028361599892377853,0.0006092348348540607,-0.0001142315355987977,-0.000495003299255263,0.74407958984375,-0.03082275390625,0.0399169921875,-0.66619873046875,1.0000092964187282,-1.15,1.4249999999999998,231.925,0.04333333199222883,0.2599999904632567,0.010000419616700285,0.00031834662618834017,0.04904587572890815,0.007649866543384944,0.925064987247432,0.03342646994843811,0.3780347855828853,0.015071209805342354,92.36854458488472
1773346735862,0.10000000000000002,4.166666666666667,44.199999999999996,0.06666666666666667,0.7833333333333332,9.700000000000003,-0.00930842267730309,-0.05032366009916984,-0.04886921905584123,-1,5.625,276.25,0.14000000059604645,1,9.699999809265137,0.030543262138962746,-0.008726646192371845,-0.01745329238474369,0.0005330804886246258,-0.00015230870871351518,-0.00030461741742703036,0.743408203125,-0.0306396484375,0.03948974609375,-0.66693115234375,0.9999755729731732,-1.1,1.458333333333333,232.05,0.07333333392937978,0.21666666666666679,-1.9073486612342094e-7,0.009841503165927716,0.05017135139045632,0.0485646016384142,0.9259039174849752,0.033353995205396565,0.3760048329552811,0.014484895031924523,92.34484015123428
1773346735962,0.025,3.9000000000000004,43.725,0.03333333333333333,0.7166666666666668,9.799999999999999,-0.00349065850398866,-0.12304571226560025,-0.03956079637853814,-1,5.3125,276.0625,0.12999999523162842,0.9399999976158142,9.829999923706055,0.0512690469622612,-0.0054541537538170815,-0.05890486016869545,0.000894813673851055,-0.00009519294091411631,-0.001028083755370598,0.742431640625,-0.02862548828125,0.0382080078125,-0.668212890625,0.9999962393123724,-1.025,1.4124999999999996,232.3375,0.09666666189829509,0.22333333094914742,0.029999923706055753,0.004385472177839715,0.12295051932468613,0.03853271262316754,0.9275399392593849,0.03149891489893296,0.3721716714236165,0.01287347772119351,92.20807652633196
1773346736062,0,3.716666666666667,42.666666666666664,0.08333333333333333,0.6833333333333335,9.716666666666669,-0.0189077335632719,-0.2495820830351891,-0.05585053606381853,-1,5.1875,275.5625,0.05999999865889549,0.9399999976158142,9.779999732971191,0.04036073759198189,-0.010908307507634163,-0.1690787672996521,0.0007044277595135317,-0.00019038588182823261,-0.002950981184592251,0.73956298828125,-0.0277099609375,0.03717041015625,-0.6715087890625,1.0000134742842313,-1,1.4708333333333332,232.89583333333334,-0.023333334674437836,0.25666666428248075,0.06333306630452284,0.019612161322785433,0.24939169715336088,0.05289955487922628,0.9309898390676338,0.030206350039947184,0.3636018725685755,0.011797213006090363,92.21906959274465
1773346736162,0,3.516666666666667,40.88333333333334,-0.06666666666666668,0.7166666666666668,9.766666666666667,-0.021525727441263395,-0.4276056667386107,-0.04566944876051829,-0.875,4.875,274.0625,0.1899999976158142,0.7200000286102295,9.850000381469727,0.07308565825223923,-0.019634954631328583,-0.35124751925468445,0.0012755853724889389,-0.00034269460679639313,-0.006130425700456423,0.73077392578125,-0.02587890625,0.0352783203125,-0.68121337890625,0.9999982379361364,-0.875,1.358333333333333,233.17916666666667,0.25666666428248086,0.003333361943562707,0.08333371480305907,0.022801312813752334,0.42726297213181436,0.039539023060061865,0.9365870425093332,0.02875167104715735,0.34908911577130985,0.010716457699338405,92.94472179182033
1773346736262,0.13333333333333333,3.266666666666666,38.300000000000004,-0.05000000000000001,0.5333333333333333,9.916666666666666,0.014835298641951801,-0.4578580404398458,-0.049741883681838385,-0.75,4.75,271.25,0.1899999976158142,0.949999988079071,9.930000305175781,0.12980885803699493,-0.004363323096185923,-0.5115996599197388,0.002265591970999465,-0.00007615435435675759,-0.00892909851768271,0.7137451171875,-0.02508544921875,0.0341796875,-0.6990966796875,0.9999828951833072,-0.8833333333333333,1.4833333333333338,232.95,0.23999999761581423,0.4166666547457377,0.013333638509115175,-0.012569706670952335,0.45778188608548903,0.04081278516415567,0.9442676672310916,0.02654434519338168,0.3279402224404768,0.010448964824223703,94.74882737190026
1773346736362,0.2833333333333334,3.1999999999999997,36.03333333333333,-0.016666666666666666,0.43333333333333335,9.766666666666667,-0.000581776417331443,-0.31183215968965355,0.016289739685280406,-0.75,4.75,271.25,0.1899999976158142,0.949999988079071,9.930000305175781,0.12980885803699493,-0.004363323096185923,-0.5115996599197388,0.002265591970999465,-0.00007615435435675759,-0.00892909851768271,0.7137451171875,-0.02508544921875,0.0341796875,-0.6990966796875,0.9999828951833072,-1.0333333333333334,1.5500000000000003,235.21666666666667,0.20666666428248087,0.5166666547457377,0.16333363850911375,0.0028473683883309077,0.3117560053352968,-0.02521883820296312,0.9505715604753605,0.02578801934660877,0.3092377508469436,0.010986351748460214,94.20200784248189
1773346736462,0.25,3.1166666666666667,34.333333333333336,-0.016666666666666666,0.5,9.733333333333334,-0.03170681474456365,-0.25685428825183215,-0.0020362174606600525,-0.25,4.5625,266.5625,0.10000000149011612,0.6899999976158142,9.720000267028809,0.01636246219277382,0.019634954631328583,-0.2912518084049225,0.00028557883899699426,0.00034269460679639313,-0.005083303009053591,0.6837158203125,-0.02532958984375,0.031005859375,-0.72869873046875,1.0000360564347657,-0.5,1.4458333333333333,232.22916666666666,0.11666666815678278,0.1899999976158142,-0.013333066304525687,0.03199239358356064,0.2571969828586285,-0.0030470855483935386,0.9550770845739996,0.02533943173307973,0.295099065599435,0.010110252391223148,98.2907603793591
1773346736562,0.19999999999999998,3.1666666666666665,32.78333333333333,-0.06666666666666667,0.5833333333333334,9.816666666666668,-0.006690428799311596,-0.2853613327010729,0.011344640137963142,-0.25,4.6875,264.625,0.05000000074505806,0.9700000286102295,9.920000076293945,-0.006544984877109528,0.03490658476948738,-0.3130684196949005,-0.0001142315355987977,0.0006092348348540607,-0.005464074707691475,0.6724853515625,-0.02569580078125,0.03192138671875,-0.73895263671875,0.9999833981059735,-0.44999999999999996,1.5208333333333335,231.84166666666667,0.11666666741172473,0.3866666952768961,0.1033334096272771,0.006576197263712799,0.2859705675359269,-0.016808714845654618,0.958973672787191,0.026015419793655032,0.282140016312617,0.009471221099815266,99.48336385560854
1773346736662,0.31666666666666665,3.1666666666666665,31.400000000000002,-0.05000000000000001,0.5333333333333333,9.716666666666667,0.024143721319254897,-0.2210750385859484,-0.01454441043328608,-0.0625,4.6875,263.375,0.029999999329447746,0.7799999713897705,9.789999961853027,0.003272492438554764,-0.013089969754219055,-0.21271200478076935,0.00005711576779939885,-0.0002284630711975954,-0.003712524841942344,0.6641845703125,-0.02685546875,0.03118896484375,-0.74639892578125,0.999973233430981,-0.37916666666666665,1.5208333333333335,231.975,0.07999999932944776,0.24666663805643718,0.07333329518636056,-0.024086605551455496,0.22084657551475081,0.010831885591343736,0.9622998493111095,0.025852400860196204,0.27056960385440604,0.01013621505541622,100.5172049919558
1773346736763,0.42000000000000004,3.16,30.220000000000006,-0.08333333333333333,0.5333333333333333,9.750000000000002,-0.005526875964648711,-0.19634954084936207,0.01628973968528041,0.0625,4.75,262.125,0.019999999552965164,0.8700000047683716,9.670000076293945,-0.05999569222331047,0.019634954631328583,-0.23343779146671295,-0.0010471223663099248,0.00034269460679639313,-0.004074258059678064,0.6561279296875,-0.02783203125,0.03106689453125,-0.75347900390625,0.9999871215885114,-0.35750000000000004,1.5899999999999999,231.905,0.10333333288629849,0.33666667143503826,-0.07999992370605646,0.004479753598338786,0.19669223545615847,-0.02036399774495847,0.9650272692853087,0.02566421029195867,0.26066971862316224,0.010724534430554497,101.53266697447899
1773346736878,0.39999999999999997,3.3000000000000003,28.800000000000004,0,0.5714285714285714,9.857142857142858,-0.04014257279586959,-0.21542349624615725,0.08103314384259387,0.0625,4.8125,260.9375,0.07999999821186066,0.6299999952316284,9.770000457763672,-0.038179077208042145,0.019634954631328583,-0.17016960680484772,-0.0006663506026534595,0.00034269460679639313,-0.0029700199255687405,0.64813232421875,-0.02789306640625,0.03173828125,-0.7603759765625,1.000016238408568,-0.33749999999999997,1.5124999999999997,232.1375,0.07999999821186066,0.05857142380305702,-0.08714239937918578,0.03947622219321613,0.21576619085295365,-0.08400316376816261,0.9681506615159977,0.027021437725871598,0.24868260990714133,0.010540305457412098,102.39847376473912
1773346736978,0.09999999999999999,4.150000000000001,27.61666666666667,-0.03333333333333334,0.7000000000000001,9.799999999999999,-0.09366600319036236,-0.158824961931484,0.19518598801469916,-0.125,5.75,259.625,0.03999999910593033,0.800000011920929,9.859999656677246,-0.2203478217124939,0.06544984877109528,-0.24216443300247192,-0.0038457949884804685,0.001142315355987977,-0.004226566687118353,0.639404296875,-0.031005859375,0.0394287109375,-0.76727294921875,1.0000308095387995,-0.22499999999999998,1.5999999999999988,232.00833333333333,0.07333333243926367,0.10000001192092889,0.05999965667724716,0.0898202082018819,0.15996727728747195,-0.1994125547018175,0.9704549032418076,0.0349530893203165,0.2385487919752958,0.009488739011430197,103.14051680361335
1773346737079,-0.45,5.283333333333334,26.883333333333336,0.06666666666666667,0.9166666666666666,9.916666666666666,-0.1375901226988863,-0.10035643198967395,0.27838001569309556,-0.5625,6.8125,258.6875,0.10000000149011612,1,9.789999961853027,-0.28034350275993347,0.17235125601291656,-0.1690787672996521,-0.004892917159734649,0.0030080968873730687,-0.002950981184592251,0.6324462890625,-0.03369140625,0.04962158203125,-0.77227783203125,0.9999993853269118,-0.11249999999999999,1.529166666666666,231.80416666666667,0.033333334823449454,0.08333333333333337,-0.12666670481363873,0.13269720553915165,0.10336452887704702,-0.2813309968776878,0.9716080970970298,0.04573845546330825,0.23203041348123762,0.0068983017508376515,103.49397290726657
1773346737178,-1.0666666666666667,6.966666666666668,26.516666666666666,0.15,1.2166666666666668,9.700000000000001,-0.09948376736367678,-0.02734349161457783,0.35895604949350046,-1.3125,8.6875,257.9375,0.28999999165534973,1.399999976158142,9.579999923706055,-0.3730641305446625,0.12435470521450043,-0.05890486016869545,-0.006511197399094307,0.002170399046339994,-0.001028083755370598,0.62701416015625,-0.03875732421875,0.0662841796875,-0.77520751953125,0.9999945890012021,-0.24583333333333335,1.7208333333333323,231.42083333333335,0.13999999165534974,0.1833333094914753,-0.12000007629394638,0.09297256996458247,0.029513890660917825,-0.3599841332488711,0.9716352848786401,0.06126701218582144,0.22835785697317262,0.004890353284402773,103.6303828453135
1773346737278,-1.2500000000000002,8.916666666666668,26.483333333333334,0.23333333333333336,1.5833333333333333,9.700000000000001,0.014544410433286081,-0.0037815467126543806,0.3112503832723221,-1.5625,10.625,257.8125,0.3499999940395355,1.7400000095367432,9.829999923706055,-0.31525009870529175,-0.018544122576713562,-0.023998277261853218,-0.005502152189644454,-0.0003236559958570664,-0.00041884895302582805,0.6248779296875,-0.04766845703125,0.0810546875,-0.77508544921875,1.0000360117328928,-0.3124999999999998,1.7083333333333321,231.32916666666665,0.11666666070620216,0.1566666762034099,0.12999992370605362,-0.020046562622930537,0.003457890716797314,-0.3116692322253479,0.9706036493765202,0.07815387981361364,0.22752674041046933,0.0072186761422823684,104.0045272843545
1773346737378,-1.2000000000000002,10.533333333333333,26.450000000000003,0.25,1.9333333333333333,9.616666666666667,-0.0014544410433286086,-0.004945099547317268,0.28797932657906433,-1.5625,10.625,257.8125,0.3499999940395355,1.7400000095367432,9.829999923706055,-0.31525009870529175,-0.018544122576713562,-0.023998277261853218,-0.005502152189644454,-0.0003236559958570664,-0.00041884895302582805,0.6248779296875,-0.04766845703125,0.0810546875,-0.77508544921875,1.0000360117328928,-0.3624999999999998,0.09166666666666679,231.3625,0.09999999403953552,-0.19333332379659018,0.21333325703938755,-0.004047711146315846,0.0046214435514602015,-0.2883981755320902,0.9695361580906058,0.09173757779180668,0.22686160581879408,0.010847432005704753,104.61126314276807
1773346737478,-1.3,12.100000000000001,26.53333333333333,0.30000000000000004,2.15,9.533333333333333,-0.024434609527920616,0.006690428799311596,0.31066860685499065,-1.5,14.5625,257.75,0.2800000011920929,2.369999885559082,9.510000228881836,-0.3010692894458771,-0.04145156964659691,-0.020725784823298454,-0.00525465037747037,-0.0007234663704528584,-0.0003617331852264292,0.62225341796875,-0.06890869140625,0.10736083984375,-0.7723388671875,0.9999906997695227,-0.19999999999999996,2.4624999999999986,231.21666666666667,-0.01999999880790715,0.21999988555908212,-0.023333104451497277,0.019179959150450246,-0.0074138951697644544,-0.31103034004021707,0.9681035852886678,0.10516579933903805,0.22702693757734688,0.013205014761819671,104.91727755115008
1773346737579,-1.55,13.983333333333334,26.566666666666663,0.3,2.483333333333334,9.433333333333335,-0.0430514548825268,0.004363323129985825,0.37000980142279793,-1.5,14.5625,257.75,0.2800000011920929,2.369999885559082,9.510000228881836,-0.3010692894458771,-0.04145156964659691,-0.020725784823298454,-0.00525465037747037,-0.0007234663704528584,-0.0003617331852264292,0.62225341796875,-0.06890869140625,0.10736083984375,-0.7723388671875,0.9999906997695227,0.050000000000000044,0.5791666666666657,231.18333333333334,-0.019999998807907093,-0.1133334477742518,0.07666689554850059,0.03779680450505643,-0.005086789500438683,-0.37037153460802436,0.9662984920086284,0.12154217234282585,0.22643481381546662,0.014899656921965905,105.44011747533767
1773346737678,-1.7833333333333334,16.116666666666667,26.783333333333335,0.3,2.8333333333333335,9.3,0.0020362174606600517,0.028797932657906433,0.2911790968743873,-1.6875,16.5625,257.625,0.4000000059604645,2.75,9.649999618530273,-0.36106500029563904,0.0021816615480929613,0.008726646192371845,-0.006301773068873201,0.000038077177178378795,0.00015230870871351518,0.6201171875,-0.07843017578125,0.12200927734375,-0.77099609375,1.0000089294809775,0.09583333333333344,0.44583333333333286,230.84166666666667,0.10000000596046449,-0.08333333333333348,0.3499996185302727,-0.008337990529533252,-0.028759855480728055,-0.2910267881656738,0.9635925266215432,0.13992177354188517,0.22716956423659707,0.01747366625979412,106.1440127744165
1773346737780,-1.8199999999999998,17.2,26.920000000000005,0.2666666666666667,3.016666666666667,8.95,-0.0061086523819801515,0.021816615649929115,0.06748606441044741,-1.8125,19.4375,257.625,0.33000001311302185,3.2799999713897705,9.180000305175781,-0.03272492438554764,-0.054541539400815964,0.010908307507634163,-0.0005711576779939885,-0.0009519294416504537,0.00019038588182823261,0.61749267578125,-0.09326171875,0.1419677734375,-0.76800537109375,0.9999910257354023,0.00749999999999984,2.2375000000000007,230.70499999999998,0.06333334644635513,0.26333330472310346,0.23000030517578196,0.005537494703986163,-0.022768545091579568,-0.06729567852861917,0.9620293874785835,0.1490648553270167,0.2278106372906695,0.019530490806331194,106.61984258896763
1773346737895,-1.7714285714285711,16.585714285714285,27,0.24285714285714285,2.8000000000000003,8.82857142857143,0.04363323129985824,0.010222642761681073,-0.4385763077511466,-1.6875,18.125,257.75,0.33000001311302185,3.190000057220459,9.149999618530273,0.5126904845237732,-0.018544122576713562,0.011999138630926609,0.008948136998584875,-0.0003236559958570664,0.00020942447651291403,0.6195068359375,-0.0870361328125,0.13214111328125,-0.7689208984375,1.0000323145085803,0.08392857142857113,1.5392857142857146,230.75,0.087142870255879,0.3900000572204587,0.32142818995884426,-0.03468509430127336,-0.010546298757538139,0.4387857322276595,0.9626081171608096,0.1438017869022054,0.22880885568818865,0.018792722488120868,106.31587212338087
1773346737995,-1.7000000000000002,13.516666666666666,26.933333333333337,0.2833333333333334,2.2833333333333337,9.283333333333333,-0.04508767234318685,0.009890199094634535,-0.6928957130417488,-1.75,14.5625,257.5,0.1899999976158142,2.7200000286102295,9.079999923706055,0.6948592066764832,0.1287180334329605,-0.08617562800645828,0.012127580994300396,0.0022465534900973005,-0.0015040484436865344,0.62066650390625,-0.0675048828125,0.10894775390625,-0.7735595703125,1.000023919802928,-0.04999999999999982,1.0458333333333343,230.56666666666666,-0.09333333571751917,0.43666669527689583,-0.20333340962727853,0.05721525333748725,-0.007643645604537235,0.6913916645980622,0.9660482542579625,0.11786434979369835,0.22953819374125278,0.013076050889124308,105.32196853244928
1773346738096,-1.916666666666667,10.033333333333333,27.166666666666668,0.35000000000000003,1.5833333333333337,9.75,0.03781546712654381,0.12479104151759456,-0.5704317771934801,-1.75,14.5625,257.5,0.1899999976158142,2.7200000286102295,9.079999923706055,0.6948592066764832,0.1287180334329605,-0.08617562800645828,0.012127580994300396,0.0022465534900973005,-0.0015040484436865344,0.62066650390625,-0.0675048828125,0.10894775390625,-0.7735595703125,1.000023919802928,0.16666666666666696,4.529166666666667,230.33333333333334,-0.16000000238418582,1.1366666952768958,-0.6700000762939453,-0.02568788613224341,-0.12254448802749726,0.5689277287497936,0.9685138597649017,0.08890076786829336,0.23250532710841423,0.004339329663613431,103.79108743295974
1773346738196,-1.7166666666666668,7.45,28.099999999999998,0.3333333333333333,1.1500000000000001,9.916666666666668,0.07853981633974483,0.22340214425527422,-0.3929899699073899,-1.875,8.1875,259.0625,0.4000000059604645,1.2400000095367432,10,0.33597588539123535,-0.0021816615480929613,0.2301652878522873,0.005863885407380174,-0.000038077177178378795,0.004017142096822922,0.63543701171875,-0.03192138671875,0.0648193359375,-0.768798828125,1.0000261772723025,-0.15833333333333321,0.7374999999999998,230.9625,0.06666667262713116,0.09000000953674303,0.08333333333333215,-0.07267593093236466,-0.2234402214324526,0.3970071120042128,0.9681624537653485,0.06664612822968416,0.24128436816067383,0.001269012354753546,102.23238417984771
1773346738313,-1.4714285714285715,5.4142857142857155,29.442857142857147,0.2285714285714286,0.8571428571428571,9.942857142857145,0.06981317007977318,0.25681273279345135,-0.2483354192837646,-1.6875,6.1875,260.5,0.30000001192092896,1,9.890000343322754,0.28470683097839355,-0.02508910745382309,0.318522572517395,0.004969071603491956,-0.0004378875314558641,0.0055592676323509465,0.64501953125,-0.02374267578125,0.0511474609375,-0.7620849609375,1.0000017303958466,-0.21607142857142847,0.7732142857142845,231.05714285714285,0.07142858334950036,0.1428571428571429,-0.05285679953439093,-0.06484409847628123,-0.2572506203249072,0.25389468691611555,0.9661678784676146,0.048936078073495134,0.253228608182355,-0.00040358171536605824,101.11628836268646
1773346738429,-1.242857142857143,4.228571428571429,31.171428571428574,0.1571428571428571,0.6428571428571429,10.028571428571428,0.02642927153019985,0.2336247870169553,-0.06981317007977318,-1.6875,6.1875,260.5,0.30000001192092896,1,9.890000343322754,0.28470683097839355,-0.02508910745382309,0.318522572517395,0.004969071603491956,-0.0004378875314558641,0.0055592676323509465,0.64501953125,-0.02374267578125,0.0511474609375,-0.7620849609375,1.0000017303958466,-0.4446428571428569,1.9589285714285714,229.32857142857142,0.14285715477807184,0.3571428571428571,-0.13857108524867456,-0.021460199926707894,-0.23406267454841118,0.07537243771212412,0.9626247373849711,0.038446268457112964,0.2680955437216943,-0.0005280651553005444,101.29142825486865
1773346738530,-1.0166666666666668,3.8833333333333333,32.76666666666667,0.18333333333333332,0.5333333333333333,9.816666666666666,0.07359471679242756,0.3001966313430247,-0.005526875964648709,-1.5,4.75,264.3125,0.27000001072883606,0.6499999761581421,9.760000228881836,0.046905722469091415,-0.10690141469240189,0.3174317479133606,0.0008186592951123293,-0.0018657816614222542,0.005540229151448782,0.6702880859375,-0.018310546875,0.03985595703125,-0.7408447265625,1.0000303997694076,-0.48333333333333317,0.8666666666666667,231.54583333333332,0.08666667739550274,0.11666664282480876,-0.05666643778483049,-0.07277605749731524,-0.302062413004447,0.01106710511609749,0.9588922684009593,0.03500598214520318,0.28160095371870375,0.0010496092744471856,98.53339315531454
1773346738628,-0.8166666666666668,3.85,34.583333333333336,0.1666666666666667,0.5333333333333333,9.85,0.062250076654464415,0.3496476268161974,0.034033920413889425,-1.375,4.875,266.0625,0.36000001430511475,0.6800000071525574,9.789999961853027,0.01636246219277382,-0.10471975803375244,0.37088245153427124,0.00028557883899699426,-0.0018277045695807633,0.006473119917141328,0.681640625,-0.02032470703125,0.0394287109375,-0.7303466796875,1.00000396556366,-0.5583333333333332,1.025,231.47916666666666,0.19333334763844803,0.14666667381922405,-0.0600000381469723,-0.06196449781546742,-0.35147533138577813,-0.027560800496748097,0.9543121240858149,0.034189380198518825,0.2968321433348273,0.0031835181347176777,97.52501721365502
1773346738730,-0.7666666666666666,3.866666666666667,36.483333333333334,0.06666666666666667,0.5000000000000001,9.700000000000001,0.004363323129985825,0.35750160845017187,0.011635528346628864,-1.375,5.0625,268,0.1599999964237213,0.800000011920929,9.720000267028809,-0.04581489413976669,0.019634954631328583,0.3436116874217987,-0.0007996207491915839,0.00034269460679639313,0.005997155293843973,0.6937255859375,-0.02203369140625,0.040283203125,-0.71875,0.999982485394281,-0.6083333333333334,1.1958333333333329,231.51666666666665,0.09333332975705465,0.30000001192092884,0.020000267028807528,-0.0051629438791774085,-0.3571589138433755,-0.0056383730527848905,0.9492534386487109,0.03413353478639963,0.3126261181946551,0.004209660214914864,96.27624067793387
1773346738829,-0.7000000000000001,3.72,38.64,0.11666666666666665,0.75,9.783333333333333,0.05846852994181004,0.3455751918948773,0.026179938779914945,-1.375,4.9375,270.125,0.25999999046325684,0.9800000190734863,9.760000228881836,0.0021816615480929613,-0.055632367730140686,0.3490658402442932,0.000038077177178378795,-0.0009709679875711992,0.006092348218503444,0.7069091796875,-0.021728515625,0.039306640625,-0.70587158203125,0.9999962095099374,-0.6749999999999999,1.2174999999999998,231.485,0.1433333237965902,0.23000001907348633,-0.023333104451497277,-0.05843045276463166,-0.34654615988244847,-0.020087590561411503,0.94323631146793,0.03264896073064991,0.3304762319835282,0.004976563628869963,95.00623523351881
1773346738946,-0.5142857142857143,3.9857142857142853,40.857142857142854,0.12857142857142856,0.6285714285714287,9.700000000000001,0.061086523819801536,0.3473205211468716,0.017951958020513102,-1.3125,5.3125,272.4375,0.15000000596046448,0.9599999785423279,9.630000114440918,-0.027270769700407982,-0.04254240170121193,0.3937899172306061,-0.00047596472082522687,-0.0007425049813921851,0.0068729306168300265,0.72113037109375,-0.02557373046875,0.04052734375,-0.691162109375,1.000015277298816,-0.7982142857142857,1.3267857142857147,231.58035714285714,0.02142857738903592,0.3314285499708992,-0.0699998855590831,-0.061562488540626764,-0.3480630261282638,-0.011079027403683075,0.9365863033655925,0.03415304865656476,0.34867851820997897,0.007934516641243308,93.8155971216034
1773346739045,-0.15000000000000005,4.1000000000000005,42.86666666666667,0.08333333333333333,0.6500000000000001,9.75,0.14224433403753786,0.33597588100890846,0.05846852994181004,-1.0625,5.3125,274.75,0.11999999731779099,0.7799999713897705,9.600000381469727,-0.0665406808257103,-0.1079922467470169,0.38724491000175476,-0.0011613539669273038,-0.001884820272361581,0.006758698691119741,0.73468017578125,-0.0277099609375,0.03857421875,-0.6767578125,1.0000059548588118,-0.9125,1.2124999999999995,231.88333333333333,0.036666663984457656,0.12999997138977037,-0.14999961853027344,-0.14340568800446515,-0.33786070128127005,-0.0517098312506903,0.9302639471028745,0.033775769057680975,0.36514061825438077,0.011853904249277772,92.96543453689642
1773346739146,0.45,4.45,44.75,-0.016666666666666666,0.7833333333333335,9.683333333333335,0.14748032179352086,0.3362667692175742,0.06981317007977318,-0.4375,5.6875,276.8125,0.019999999552965164,0.9200000166893005,9.579999923706055,-0.13089969754219055,-0.1287180334329605,0.3283400535583496,-0.002284630711975954,-0.0022465534900973005,0.005730615000767724,0.7467041015625,-0.0345458984375,0.03619384765625,-0.66326904296875,0.9999981261772243,-0.8875,1.2374999999999998,232.0625,0.03666666621963183,0.136666683355967,-0.10333340962728066,-0.14976495250549682,-0.3385133227076715,-0.06408255507900545,0.9239498906186584,0.03440683565949749,0.3805179841196102,0.018407418265950916,92.69356100001404
1773346739245,0.9666666666666668,4.616666666666667,46.9,-0.20000000000000004,0.7166666666666668,9.583333333333334,0.07766715171374766,0.36419203724948346,-0.06835872903644458,0.125,5.9375,278.625,-0.20999999344348907,1.0099999904632568,9.890000343322754,-0.030543262138962746,-0.10908307880163193,0.34688419103622437,-0.0005330804886246258,-0.0019038588833009075,0.006054271256699116,0.7569580078125,-0.04010009765625,0.03302001953125,-0.65142822265625,1.0000212469675005,-0.8416666666666668,1.3208333333333329,231.725,-0.009999993443489036,0.29333332379659005,0.30666700998942,-0.0782002322023723,-0.36609589613278437,0.0744130002931437,0.9164954424623288,0.03359498984340748,0.3979232692124838,0.023760311918208075,92.72985563064903
1773346739346,0.7833333333333333,3.5999999999999996,48.76666666666667,0.08333333333333333,0.7000000000000002,9.65,-0.19867664651868783,0.21351194516063968,-0.2839068916577443,0.125,5.3125,280.3125,-0.009999999776482582,1.0299999713897705,9.640000343322754,0.2923426330089569,0.02508910745382309,0.2563452422618866,0.0051023414899557555,0.0004378875314558641,0.004474068499292438,0.766845703125,-0.03668212890625,0.0286865234375,-0.64013671875,0.999997923148502,-0.6583333333333333,1.7125000000000004,231.54583333333332,-0.09333333310981591,0.32999997138977033,-0.009999656677246449,0.20377898800864358,-0.2130740576291838,0.28838096015703674,0.910244448639981,0.025787666089492116,0.41282171904059073,0.019190317509762717,91.6856454785582
1773346739446,-0.9166666666666666,1.9833333333333336,49.51666666666667,0.20000000000000004,0.3,9.716666666666667,-0.3278310111662683,0.07010405828843892,-0.35546539098951185,0.125,5.3125,280.3125,-0.009999999776482582,1.0299999713897705,9.640000343322754,0.2923426330089569,0.02508910745382309,0.2563452422618866,0.0051023414899557555,0.0004378875314558641,0.004474068499292438,0.766845703125,-0.03668212890625,0.0286865234375,-0.64013671875,0.999997923148502,1.0416666666666665,3.3291666666666666,230.79583333333332,-0.20999999977648262,0.7299999713897705,-0.07666632334391288,0.33293335265622404,-0.06966617075698306,0.3599394594888043,0.9079751921799375,0.019065219344058117,0.4185899754733074,-0.000015179738941516198,89.92083232000628
1773346739546,-2.5333333333333337,0.3333333333333333,49.699999999999996,0.45,0.05000000000000001,9.816666666666668,-0.21700260366462829,0.02007128639793479,-0.2891428794137273,-3.75,1.1875,281.25,0.6200000047683716,0.20999999344348907,9.680000305175781,0.22252947092056274,0.33161255717277527,0.006544984877109528,0.0038838719502847967,0.005787730963622867,0.0001142315355987977,0.77239990234375,0.0142822265625,0.03265380859375,-0.6341552734375,1.0000123865135295,-1.2166666666666663,0.8541666666666667,231.55,0.17000000476837157,0.15999999344348906,-0.13666636149088696,0.2208864756149131,-0.014283555434311923,0.2892571109493261,0.9072125408660131,0.011928655318697214,0.42008129009131323,-0.018836735198497465,86.80179389720932
1773346739648,-3.3800000000000003,-0.6799999999999999,49.68,0.7333333333333334,0.06666666666666667,9.816666666666668,-0.08261225126106493,-0.023561944901923447,-0.1468985453761894,-3.75,1.1875,281.25,0.6200000047683716,0.20999999344348907,9.680000305175781,0.22252947092056274,0.33161255717277527,0.006544984877109528,0.0038838719502847967,0.005787730963622867,0.0001142315355987977,0.77239990234375,0.0142822265625,0.03265380859375,-0.6341552734375,1.0000123865135295,-0.36999999999999966,1.8675,231.57,-0.11333332856496181,0.14333332677682242,-0.13666636149088696,0.08649612321134972,0.029349675865546314,0.1470127769117882,0.90700020053201,0.007006113929959033,0.420054423375885,-0.029254606557720265,85.73392847133955
1773346739762,-3.7571428571428576,-1,49.057142857142864,0.8428571428571431,-0.08571428571428572,10.014285714285714,-0.013463968515384825,-0.18525423346168382,-0.0413892365472941,-4.8125,-0.3125,280.1875,0.8600000143051147,0.17000000178813934,9.899999618530273,0.015271631069481373,0.028361599892377853,-0.1941678822040558,0.0002665402443123129,0.000495003299255263,-0.003388868846085278,0.76617431640625,0.02923583984375,0.03057861328125,-0.6412353515625,0.9999978225654499,-1.0553571428571424,0.6875,231.13035714285712,0.017142871447971664,0.2557142875024251,-0.1142860957554408,0.013730508759697137,0.18574923676093907,0.03800036770120882,0.9091120311975632,0.0056738361325839,0.41516828748882634,-0.033442717876641555,86.08559199912959
1773346739879,-4.042857142857143,-0.9285714285714286,47.52857142857143,0.7714285714285714,-0.15714285714285717,10.057142857142859,-0.037150579792450726,-0.2727700288116853,-0.0027426602531339444,-4.875,-0.3125,279.125,0.8500000238418579,-0.019999999552965164,10.039999961853027,-0.019634954631328583,0.0021816615480929613,-0.21380282938480377,-0.00034269460679639313,0.000038077177178378795,-0.0037315633228445083,0.76025390625,0.02996826171875,0.03045654296875,-0.648193359375,0.9999831652714372,-0.8321428571428573,0.6160714285714286,231.59642857142856,0.07857145241328656,0.137142857589892,-0.017142895289831372,0.03680788518565433,0.2728081059888636,-0.0009889030697105639,0.9144962908361581,0.00680222726324263,0.40297249523025985,-0.035544786383750276,86.09865630250448
1773346739979,-4.28,-0.6000000000000001,46.120000000000005,0.2833333333333334,-0.03333333333333334,10.033333333333333,-0.013089969389957472,-0.1934406587627049,0.1777326954947559,-4.875,-0.3125,279.125,0.8500000238418579,-0.019999999552965164,10.039999961853027,-0.019634954631328583,0.0021816615480929613,-0.21380282938480377,-0.00034269460679639313,0.000038077177178378795,-0.0037315633228445083,0.76025390625,0.02996826171875,0.03045654296875,-0.648193359375,0.9999831652714372,-0.5949999999999998,0.2875000000000001,233.005,0.5666666905085245,0.013333333780368176,0.006666628519694129,0.012747274783161079,0.19347873593988327,-0.18146425881760042,0.9193642853642263,0.009811994323161578,0.39159621369070136,-0.03640660636799389,85.42451028351462
1773346740078,-3.483333333333333,0.43333333333333335,45.6,0,0,9.683333333333335,0.049160107264506946,0.08290313946973066,0.07853981633974483,-4.625,1.1875,277.375,0.05999999865889549,0.3199999928474426,9.739999771118164,-0.16798794269561768,-0.007635815534740686,0.04145156964659691,-0.002931942703690087,-0.00013327012215615645,0.0007234663704528584,0.7501220703125,0.0185546875,0.03741455078125,-0.65997314453125,0.99999589844697,-1.141666666666667,0.7541666666666667,231.775,0.05999999865889549,0.3199999928474426,0.056666437784828716,-0.05209204996819703,-0.08303640959188681,-0.07781634996929197,0.9214752209473416,0.015262179727812242,0.3872278409647175,-0.02655338456407475,87.30916647668795
1773346740180,-2.2333333333333334,0.5666666666666668,46.53333333333334,0.03333333333333333,-0.016666666666666666,9.549999999999999,0.033743032205223705,0.2522000769131807,0.07243116395776468,-3.875,1.4375,278.3125,0.07000000029802322,0.11999999731779099,9.510000228881836,-0.09490227699279785,-0.007635815534740686,0.29016098380088806,-0.0016563572011639854,-0.00013327012215615645,0.005064264528151428,0.75592041015625,0.0125732421875,0.03448486328125,-0.6536865234375,1.0000345142189997,-1.6416666666666666,0.8708333333333332,231.77916666666667,0.03666666696468989,0.13666666398445765,-0.039999771118163,-0.03539938940638769,-0.25233334703533683,-0.06736689942961326,0.9185287121374139,0.012240056084326826,0.39484272417646565,-0.015950209125396464,88.1333349386495
1773346740295,-1.5999999999999999,0.4571428571428572,48.300000000000004,0.3571428571428572,-0.24285714285714288,9.428571428571429,0.032662590287322456,0.33161255787892263,-0.015707963267948967,-3.625,1.75,280.0625,0.3400000035762787,0.03999999910593033,9.430000305175781,-0.05781403183937073,-0.0021816615480929613,0.38069993257522583,-0.0010090452094498527,-0.000038077177178378795,0.006644467285558106,0.765869140625,0.00860595703125,0.0340576171875,-0.64202880859375,0.9999952576942053,-2.0250000000000004,1.2928571428571427,231.7625,-0.01714285356657852,0.2828571419630732,0.0014288766043524248,-0.03367163549677231,-0.331650635056101,0.022352430553507073,0.9124040774818695,0.009352062032653805,0.40903294304728066,-0.01110809759932745,87.90342002817799
1773346740396,-1.5599999999999998,-0.28,50.2,0.5666666666666668,-0.3166666666666667,9.416666666666666,0.0756309342530876,0.3068870601423363,-0.059050306359141484,-3.5,1.3125,282.125,0.6800000071525574,-0.10999999940395355,9.300000190734863,0.06108652427792549,-0.020725784823298454,0.35124751925468445,0.0010661609772492516,-0.0003617331852264292,0.006130425700456423,0.77734375,0.01031494140625,0.03125,-0.62823486328125,1.0000126547310728,-1.9400000000000002,1.5925,231.925,0.11333334048589061,0.20666666726271316,-0.1166664759318028,-0.07456477327583835,-0.3072487933275627,0.0651807320595979,0.9054680728072422,0.003562157383855413,0.42418897093225294,-0.013364022633472226,86.97103507192607
1773346740512,-1.5428571428571427,-1.3428571428571432,52,0.5428571428571429,-0.38571428571428573,9.885714285714284,0.13239569040128413,0.19223555046966115,-0.07280516308319204,-2.875,0.625,284.0625,0.5899999737739563,-0.1899999976158142,9.90999984741211,0.07417649030685425,-0.1330813616514206,0.20725785195827484,0.0012946239834282656,-0.0023227079338546076,0.003617331917282873,0.78802490234375,0.01123046875,0.023681640625,-0.61505126953125,0.9999791269806162,-1.3321428571428573,1.9678571428571432,232.0625,0.04714283091681337,0.19571428809847152,0.02428556169782503,-0.13110106641785585,-0.19455825840351576,0.07642249500047492,0.898581711452111,-0.004629815751924217,0.4384431204986338,-0.017236668393834156,86.3885108567995
1773346740612,-1.416666666666667,-1.95,53.01666666666667,0.39999999999999997,-0.2333333333333333,9.866666666666667,0.1387536755335492,0.17075137848677857,-0.04828744263850977,-2.3125,0.1875,285,0.5299999713897705,-0.07000000029802322,9.8100004196167,0.10362892597913742,-0.16580627858638763,0.17671458423137665,0.0018086659586414365,-0.0028938654818114334,0.0030842513311303754,0.79302978515625,0.010986328125,0.017333984375,-0.60882568359375,0.9999930597600905,-0.895833333333333,2.1375,231.98333333333332,0.12999997138977054,0.16333333303531009,-0.05666624704996792,-0.13694500957490777,-0.17364524396859,0.05137169396964015,0.8945776276341116,-0.009709158158854052,0.4464174928051915,-0.01865536121060092,86.49245328706093
1773346740712,-0.9600000000000002,-1.7200000000000002,53.92,0.30000000000000004,0.03333333333333333,10.100000000000001,0.17540558982543014,0.153588974175501,0.06777695261911315,-1.5625,0,286,0.4099999964237213,0.1899999976158142,9.979999542236328,-0.018544122576713562,-0.1636246144771576,0.1647154539823532,-0.0003236559958570664,-0.00285578825993278,0.0028748270009092696,0.79827880859375,0.00848388671875,0.0113525390625,-0.60211181640625,0.9999942760750747,-0.6024999999999998,1.7200000000000002,232.07999999999998,0.10999999642372127,0.15666666428248088,-0.1200004577636733,-0.1757292458212872,-0.15644476243543376,-0.06490212561820388,0.891134567693866,-0.009579982539762603,0.45341344658666005,-0.014270691994801342,87.05689502880331
1773346740812,-0.44999999999999996,-0.55,54.666666666666664,0.39999999999999997,0.3666666666666667,10.133333333333335,0.12740903539558607,0.08726646259971647,0.12246393584826878,-0.6875,0.625,286.8125,0.36000001430511475,0.550000011920929,10.069999694824219,-0.153807133436203,-0.18107791244983673,0.1330813616514206,-0.0026844408915160023,-0.0031604057748876825,0.0023227079338546076,0.802734375,-0.0006103515625,0.00836181640625,-0.59625244140625,0.9999848714816619,-0.23750000000000004,1.175,232.14583333333334,-0.03999998569488522,0.18333334525426226,-0.06333363850911589,-0.13009347628710208,-0.09042686837460416,-0.12014122791441417,0.8883245144289347,-0.002460608827407422,0.4591743678408207,-0.005692309441584337,87.83757384544086
1773346740912,-0.8600000000000001,0.86,54.760000000000005,0.6000000000000001,0.2833333333333334,9.983333333333333,-0.007272205216643041,-0.0916297857297023,0.1573705208881554,-0.5,1.6875,287.25,0.5199999809265137,0.5600000023841858,10.149999618530273,-0.15271630883216858,-0.023998277261853218,-0.006544984877109528,-0.002665402410613838,-0.00041884895302582805,-0.0001142315355987977,0.80474853515625,-0.009521484375,0.0125732421875,-0.5933837890625,0.9999866354317484,0.3600000000000001,0.8275,232.49,-0.08000001907348642,0.2766666690508524,0.16666628519694093,0.004606802806029203,0.09121093677667648,-0.1574847524237542,0.8879518601059455,0.010115239651249615,0.45981393527376163,-0.003212629646605156,87.53224950265813
1773346741012,-1.666666666666667,2.3000000000000003,54.216666666666676,0.7666666666666667,0.46666666666666673,10.25,-0.07592182246175334,-0.1521345331321724,0.30019663134302466,-0.9375,3,286.5625,0.75,0.9100000262260437,10.289999961853027,-0.2879793345928192,-0.0010908307740464807,-0.1079922467470169,-0.005026187566347099,-0.000019038588589189398,-0.001884820272361581,0.801025390625,-0.01580810546875,0.02264404296875,-0.59796142578125,0.9999810958356967,0.729166666666667,0.6999999999999997,232.34583333333333,-0.01666666666666672,0.44333335955937697,0.039999961853027344,0.07089563489540625,0.15211549454358322,-0.30208145161538624,0.8900061232316764,0.024489243625333862,0.45527458046105057,-0.00379920291580509,87.0437671058414
1773346741113,-2.7500000000000004,3.766666666666667,52.949999999999996,0.7000000000000002,0.11666666666666668,9.916666666666668,-0.13962634015954634,-0.34790229756420304,0.38891753498606974,-1.625,4.8125,285.5,0.8399999737739563,0.05999999865889549,9.949999809265137,-0.3490658402442932,0.1941678822040558,-0.22689279913902283,-0.006092348218503444,0.003388868846085278,-0.003960026394042104,0.795166015625,-0.0247802734375,0.036865234375,-0.60479736328125,1.0000209750270497,1.1250000000000004,1.045833333333333,232.55,0.13999997377395612,-0.05666666800777119,0.03333314259846887,0.1335339919410429,0.35129116641028835,-0.3928775613801118,0.8947393960009642,0.04010125048810601,0.44473225464653915,-0.006820896577860003,86.06057905458579
1773346741229,-3.35,4.783333333333333,50.81666666666666,0.32857142857142857,0.31428571428571433,9.485714285714286,-0.07529849058604109,-0.3700098014227979,0.3665191429188092,-2.0625,7,283.8125,0.5600000023841858,0.3199999928474426,9.789999961853027,-0.41887903213500977,0.1276271939277649,-0.3752457797527313,-0.007310818278323053,0.0022275147491208113,-0.006549274360898635,0.7852783203125,-0.036865234375,0.0523681640625,-0.6158447265625,1.0000141187505616,1.2875,2.216666666666667,232.99583333333334,0.23142857381275722,0.005714278561728292,0.3042856761387416,0.06798767230771803,0.3722373161719187,-0.37306841727970785,0.9026238090210121,0.05020850856646425,0.4274077857423808,-0.008482319418994529,85.45883438370682
1773346741329,-3.3,5.640000000000001,48.260000000000005,0.25,0.7666666666666667,9.033333333333333,-0.10442886691099407,-0.4037528336280216,0.12857258823024895,-2.3125,8.75,281.9375,0.33000001311302185,0.8600000143051147,9.390000343322754,-0.28361600637435913,0.047996554523706436,-0.3948807418346405,-0.004950033122589792,0.0008376979060516561,-0.006891969097732191,0.7740478515625,-0.04656982421875,0.06390380859375,-0.628173828125,1.0000024400621685,0.9874999999999998,3.1099999999999994,233.6775,0.08000001311302185,0.09333334763844803,0.3566670099894207,0.09947883378840428,0.40459053153407326,-0.13546455732798113,0.9117162718719669,0.05663780782834659,0.4068511735116703,-0.006141737576429662,85.73450824052209
1773346741429,-3.2333333333333343,5.5,46.1,0.23333333333333336,0.8666666666666668,9.183333333333332,-0.006690428799311596,-0.4395320832939054,-0.10239264945033401,-2.375,9.375,279.375,0.47999998927116394,1.1799999475479126,9.010000228881836,0.10908307880163193,0.030543262138962746,-0.42215150594711304,0.0019038588833009075,0.0005330804886246258,-0.007367933721029545,0.75970458984375,-0.04913330078125,0.069091796875,-0.644775390625,1.000037062226375,0.8583333333333343,3.875,233.275,0.24666665593783058,0.3133332808812458,-0.17333310445149586,0.008594287682612504,0.44006516378253,0.09502471572930446,0.9192679768053511,0.05516355637353921,0.38968219120833014,-0.007152532662929013,86.69609999385597
1773346741529,-2.5166666666666666,5.083333333333333,43.416666666666664,0.10000000000000002,0.6666666666666666,9.316666666666668,0.08290313946973067,-0.5134176882949987,-0.13002702927357757,-1.375,8.625,275.5,0.25,0.9800000190734863,9.65999984741211,0.11453723162412643,-0.17562375962734222,-0.5868669748306274,0.0019990518079603787,-0.0030652128502282115,-0.010242760982013141,0.73614501953125,-0.04815673828125,0.05902099609375,-0.67254638671875,1.0000153406277816,1.1416666666666666,3.541666666666667,232.08333333333334,0.14999999999999997,0.3133333524068197,0.34333318074544117,-0.08090408766177029,0.5103524754447705,0.11978426829156442,0.9283011667456528,0.0493056271896249,0.36852411975827226,-0.003983980733908193,90.27303689047054
1773346741629,-1.7833333333333334,3.966666666666667,40.53333333333334,0.03333333333333333,0.6166666666666667,9.583333333333334,-0.06283185307179587,-0.4552400465618543,-0.31154127148098787,-0.5625,7.625,272.3125,0.05000000074505806,1,9.710000038146973,0.2781618535518646,0.0054541537538170815,-0.5803219676017761,0.0048548401979303215,0.00009519294091411631,-0.010128529056302855,0.71923828125,-0.0445556640625,0.05010986328125,-0.6915283203125,1.0000056642878568,1.2208333333333334,3.658333333333333,231.77916666666667,0.016666667411724727,0.3833333333333333,0.12666670481363873,0.06768669326972619,0.4553352395027684,0.301412742424685,0.937601668469678,0.037849497644628215,0.3456352861316064,-0.0026030350838879383,92.45567630044158
1773346741728,-1.9400000000000002,2.04,37.540000000000006,0.21666666666666667,0.55,9.883333333333335,-0.17104226669544428,-0.40026217512403295,-0.34179364518222294,-0.875,5.625,269.3125,0.33000001311302185,0.7099999785423279,9.760000228881836,0.41233402490615845,0.13962633907794952,-0.45814892649650574,0.007196586352612768,0.002436939339416243,-0.007996207231841515,0.70166015625,-0.02911376953125,0.04052734375,-0.71075439453125,0.9999944306754951,1.0650000000000002,3.585,231.77249999999998,0.11333334644635518,0.15999997854232784,-0.1233331044514987,0.17823885304805706,0.4026991144634492,0.3337974379503814,0.9466291444659386,0.022298629311042418,0.32138756486176845,-0.010298889782713191,93.70046782140506
1773346741828,-2.4166666666666665,1.0833333333333333,35.25,0.3666666666666667,0.46666666666666673,9.983333333333334,-0.1934406587627049,-0.5029457127830326,-0.34150275697355714,-1.6875,4,266.75,0.550000011920929,0.5099999904632568,9.869999885559082,0.4297873377799988,0.22252947092056274,-0.5170537829399109,0.007501204127641995,0.0038838719502847967,-0.00902429092219353,0.6842041015625,-0.011474609375,0.0347900390625,-0.72833251953125,0.9999727621690331,0.7291666666666665,2.916666666666667,231.5,0.18333334525426226,0.043333323796590106,-0.11333344777425225,0.20094186289034688,0.5068295847333174,0.3324784660513636,0.9528644913852418,0.015392761737120092,0.3025149103060489,-0.0172352251442239,95.11427242005638
1773346741932,-3.1833333333333336,0.5666666666666668,32.333333333333336,0.3666666666666667,0.3333333333333334,10.250000000000002,-0.21293016874330822,-0.5747951003234658,-0.12740903539558607,-2.6875,2.5,263.6875,0.4300000071525574,0.3100000023841858,10.289999961853027,0.142898827791214,0.21380282938480377,-0.5050546526908875,0.0024940550421970603,0.0037315633228445083,-0.008814866591972425,0.66656494140625,0.003173828125,0.0321044921875,-0.7447509765625,1.0000018049015207,0.49583333333333357,1.9333333333333331,231.35416666666666,0.06333334048589068,-0.023333330949147635,0.03999996185302557,0.2154242237855053,0.5785266636463103,0.11859416880361365,0.9601117619605471,0.012481411011882057,0.27818962659792945,-0.025301197154896603,96.20644649860036
1773346742045,-3.866666666666667,0.8333333333333334,27.58333333333334,0.32857142857142857,0.4857142857142857,10.200000000000001,-0.19373154697137057,-0.7086036763096979,-0.06607317882549962,-3.625,2.125,260.0625,0.6200000047683716,1,10.270000457763672,0.09053895622491837,0.13744467496871948,-0.5617778301239014,0.0015802028874438412,0.0023988621175375893,-0.009804872800371463,0.642578125,0.0125732421875,0.03485107421875,-0.76531982421875,0.999996881927159,0.24166666666666714,1.2916666666666665,232.47916666666666,0.291428576196943,0.5142857142857142,0.07000045776367081,0.19531174985881442,0.7110025384272355,0.05626830602512816,0.9706489538328353,0.015100794420252391,0.23801194215948945,-0.031030466006291134,98.01642385323282
1773346742145,-4.55,1.4333333333333333,24.11666666666667,0.43333333333333335,0.5499999999999999,10.05,-0.23561944901923448,-0.39909862228937,-0.0031997702953229365,-4.5625,2.1875,257.625,0.46000000834465027,0.5099999904632568,10.15999984741211,0.04363323003053665,0.1996220350265503,-0.38615408539772034,0.0007615435273129305,0.003484061770744749,-0.006739660210217577,0.62579345703125,0.01904296875,0.04010009765625,-0.77874755859375,1.0000179315240818,-0.012500000000000178,0.7541666666666667,233.50833333333333,0.02666667501131692,-0.0400000095367431,0.10999984741210866,0.2363809925465474,0.4025826840601147,-0.00353988991489464,0.977191903491041,0.020514345948493197,0.20824090111372803,-0.03620597278356414,99.1493039830725
1773346742245,-5.366666666666667,1.8833333333333335,22.8,0.35000000000000003,0.7833333333333335,10.216666666666667,-0.12711814718692035,-0.11460995421429432,0.13031791748224325,-5.5,2.4375,256.0625,0.4699999988079071,0.9200000166893005,10.1899995803833,0.02508910745382309,0.20071285963058472,-0.1941678822040558,0.0004378875314558641,0.003503100251646913,-0.003388868846085278,0.61492919921875,0.02471923828125,0.04681396484375,-0.78680419921875,1.0000006780026045,-0.13333333333333286,0.5541666666666665,233.2625,0.11999999880790707,0.136666683355967,-0.026667086283366004,0.12755603471837623,0.11811305446594123,-0.13370678632832853,0.9792161732045362,0.025344800629194104,0.19665973705313447,-0.04264123635546023,99.58887346237115
1773346742361,-5.314285714285715,3.985714285714286,22.25714285714286,0.4714285714285714,0.9857142857142858,10,0.001745329251994329,-0.04438122955071296,0.3393418731377547,-6,4.375,254.9375,0.6200000047683716,1.2300000190734863,10.119999885559082,-0.5574145317077637,0.06326818466186523,-0.23234695196151733,-0.009728718876762807,0.0011042381341093237,-0.004055219318701574,0.6068115234375,0.01837158203125,0.062255859375,-0.792236328125,1.0000359651684398,-0.685714285714285,0.3892857142857138,232.68035714285713,0.14857143333980016,0.24428573335920056,0.11999988555908203,-0.011474048128757136,0.045485467684822284,-0.3433970924564563,0.979859927954327,0.04302678154031852,0.1911053206972206,-0.03875531009855574,100.71705327141659
1773346742461,-4.466666666666667,5.95,22.316666666666666,0.5333333333333333,0.7666666666666667,10.016666666666666,0.08348491588706211,-0.025307274153917782,0.33423055175691413,-5.5,5.9375,254.75,0.5199999809265137,0.949999988079071,10.15999984741211,-0.34470251202583313,-0.0719948336482048,-0.0359974168241024,-0.0060161937747461374,-0.0012565468915867748,-0.0006282734457933874,0.60540771484375,0.00714111328125,0.07061767578125,-0.79278564453125,1.0000327149642667,-1.0333333333333332,-0.012500000000000178,232.43333333333334,-0.013333352406819654,0.18333332141240433,0.14333318074544366,-0.08950110966180824,0.02405072726233101,-0.33485882520270754,0.9794210750413529,0.05841160794020146,0.19112904450747042,-0.028144807129239183,102.0212763231556
1773346742561,-3.483333333333334,7.116666666666667,22.333333333333332,0.7000000000000001,0.9666666666666668,9.733333333333334,0.19693131726669352,0.004363323129985824,0.34528430368621155,-4.6875,8.5,254.9375,0.8399999737739563,1.2400000095367432,10.079999923706055,-0.4145157039165497,-0.20180369913578033,0.0054541537538170815,-0.007234663834565746,-0.003522138992623402,0.00009519294091411631,0.60589599609375,-0.01226806640625,0.084228515625,-0.79095458984375,0.9999820346261583,-1.2041666666666662,1.3833333333333329,232.60416666666666,0.13999997377395623,0.2733333428700764,0.3466665903727204,-0.20416598110125928,-0.007885462122609226,-0.34518911074529746,0.9790895734566202,0.06673627529693717,0.19135033788353537,-0.01774612351703848,102.99317310893805
1773346742661,-2.816666666666667,8.1,22.683333333333334,0.65,1.3666666666666665,9.566666666666668,0.16464272610479844,0.06428629411512447,0.2926335379177159,-3.6875,10.375,255.25,0.6700000166893005,1.5700000524520874,9.75,-0.34579336643218994,-0.11017391085624695,0.01745329238474369,-0.006035232775796952,-0.0019228974942402343,0.00030461741742703036,0.6072998046875,-0.029296875,0.091796875,-0.78863525390625,1.0000217945733894,-0.8708333333333331,2.2750000000000004,232.56666666666666,0.020000016689300515,0.20333338578542093,0.1833333333333318,-0.1706779588805954,-0.06620919160936471,-0.29232892050028886,0.9780693984812144,0.07404819465946519,0.1944069173846846,-0.010152196572852686,103.70846139627933
1773346742761,-2.3833333333333333,9.366666666666667,23.183333333333334,0.65,1.6333333333333335,9.400000000000002,0.19344065876270486,0.07592182246175334,0.24725497736586335,-2.9375,12,255.625,0.7699999809265137,1.8600000143051147,9.359999656677246,-0.3228859007358551,-0.09272061288356781,0.04472406208515167,-0.0056354220761082536,-0.001618279979285332,0.0007805821382522572,0.6092529296875,-0.0435791015625,0.09893798828125,-0.78558349609375,1.000009212600472,-0.5541666666666667,2.633333333333333,232.44166666666666,0.11999998092651365,0.22666668097178122,-0.04000034332275604,-0.19907608083881312,-0.07754010244103868,-0.2464743952276111,0.9764637965277339,0.08413093456769774,0.19855783085184553,-0.003902272007438687,104.24757382681888
1773346742862,-2.1399999999999997,10.9,23.9,0.6500000000000001,1.8666666666666665,9.166666666666668,0.11664617167495436,0.06457718232379019,0.2399827721492203,-2.0625,13.3125,256.25,0.6700000166893005,2.180000066757202,9.350000381469727,-0.34688419103622437,-0.13526301085948944,0.11126473546028137,-0.006054271256699116,-0.002360784895658936,0.0019419359751423984,0.61279296875,-0.05731201171875,0.10260009765625,-0.781494140625,1.0000298801070735,0.07749999999999968,2.4124999999999996,232.35,0.020000016689300404,0.3133334000905357,0.1833337148030587,-0.12270044293165348,-0.06693796721944913,-0.23804083617407792,0.9741035062400929,0.0967516961034335,0.2043509012002982,0.001475672894731099,104.64852436727041
1773346742961,-2.1750000000000003,11.95,24.225,0.5666666666666667,1.8666666666666671,8.733333333333336,0.05759586531581288,0.013671745807288915,0.1448623279155294,-1.75,14.5,256.9375,0.7400000095367432,2.1700000762939453,8.90999984741211,-0.22798363864421844,-0.08617562800645828,0.10690141469240189,-0.003979065135018593,-0.0015040484436865344,0.0018657816614222542,0.6168212890625,-0.06671142578125,0.1087646484375,-0.7767333984375,1.0000317184812153,0.42500000000000027,2.5500000000000007,232.7125,0.1733333428700765,0.30333340962727817,0.17666651407877332,-0.06157493045083147,-0.01517579425097545,-0.14299654625410713,0.9726652309055568,0.1057196032975534,0.20672269637914517,0.0033824351854330127,104.42063064496821
1773346743065,-2.025,12.05,24.5,0.6166666666666668,1.75,8.466666666666667,0.0255981623625835,0.07214027574909897,-0.12159127122227165,-1.75,14.875,257.375,0.699999988079071,1.9900000095367432,8.359999656677246,0.04254240170121193,-0.04472406208515167,0.05890486016869545,0.0007425049813921851,-0.0007805821382522572,0.001028083755370598,0.619384765625,-0.06878662109375,0.11114501953125,-0.774169921875,1.0000306847454117,0.2749999999999999,2.8249999999999993,232.875,0.08333332141240424,0.24000000953674316,-0.10666700998942069,-0.024855657381191314,-0.07292085788735123,0.12261935497764224,0.9720748655953286,0.1062850858972239,0.20916018605731837,0.0050943853517034544,104.22971446630974
1773346743178,-2.0857142857142854,10.942857142857145,24.942857142857147,0.39999999999999997,1.671428571428572,8.842857142857143,0.008726646259971648,0.10122909661567112,-0.23736477827122887,-2,13.75,257.8125,0.5699999928474426,1.7899999618530273,8.930000305175781,0.257436066865921,-0.008726646192371845,0.08617562800645828,0.004493106980194601,-0.00015230870871351518,0.0015040484436865344,0.62335205078125,-0.06121826171875,0.1046142578125,-0.77252197265625,1.0000248976677628,0.08571428571428541,2.807142857142855,232.86964285714285,0.16999999284744266,0.11857139042445541,0.08714316231863783,-0.004233539279777047,-0.10138140532438462,0.2388688267149154,0.9721689612739807,0.09699656295072653,0.2132387885265987,0.002897685097442749,103.34803524097646
1773346743278,-2.0000000000000004,9.483333333333334,25.600000000000005,0.26666666666666666,1.7333333333333332,9.416666666666668,0.07795803992241339,0.07330382858376185,-0.26878070480712674,-1.9375,12.5625,257.75,0.47999998927116394,1.9299999475479126,9.020000457763672,0.18653206527233124,-0.04581489413976669,-0.05781403183937073,0.0032555986995471534,-0.0007996207491915839,-0.0010090452094498527,0.6234130859375,-0.05517578125,0.09521484375,-0.77410888671875,0.9999993387607534,0.06250000000000044,3.0791666666666657,232.15,0.21333332260449728,0.19666661421457943,-0.396666208902996,-0.07470244122286623,-0.07410344933295343,0.2677716595976769,0.9719835510065234,0.08445007075974088,0.2193498069244512,0.0013506752495653293,103.20297203703386
1773346743378,-1.6500000000000001,8.225,25.8,0.2666666666666667,1.6333333333333335,9.900000000000002,0.015417075059283242,0.01832595714594046,-0.2929244261263817,-1.5,11.0625,257.8125,0.33000001311302185,1.809999942779541,9.770000457763672,0.257436066865921,-0.0719948336482048,0.030543262138962746,0.004493106980194601,-0.0012565468915867748,0.0005330804886246258,0.62493896484375,-0.04962158203125,0.08251953125,-0.77471923828125,1.0000051911785568,0.15000000000000013,2.8375000000000004,232.0125,0.06333334644635513,0.1766666094462075,-0.12999954223633026,-0.010923968079088641,-0.019582504037527235,0.2934575066150063,0.9723810792692544,0.07310398473775073,0.22164567396242346,0.0020098030664019006,103.2531304202492
1773346743478,-1.55,7.7,25.85,0.3166666666666667,1.3833333333333335,9.916666666666666,0.07301294037509612,0.04974188368183839,-0.07883070454841057,-1.5,9.5,258.125,0.5099999904632568,1.2999999523162842,10.140000343322754,0.14071716368198395,-0.021816615015268326,0.06872233748435974,0.0024559778203184068,-0.00038077176365646523,0.0011994310587687947,0.627685546875,-0.04180908203125,0.0728759765625,-0.77392578125,1.000004583959206,0.050000000000000044,1.7999999999999998,232.275,0.19333332379659013,-0.08333338101704935,0.22333367665608783,-0.07055696255477771,-0.05012265544549486,0.08003013560717936,0.9725783011342111,0.06845601877744617,0.2222650398988253,0.0018637850754862318,103.0216728164516
1773346743578,-0.9800000000000001,7.040000000000001,26.32,0.15,1.2666666666666668,9.983333333333334,0.15300719775816954,0.10181087303300254,-0.15766140909682116,-0.75,8.625,258.5,0.27000001072883606,1.25,10.430000305175781,0.2312561273574829,-0.20616701245307922,0.13417218625545502,0.004036180837799411,-0.003598293176306384,0.0023417464147567715,0.63128662109375,-0.04241943359375,0.0616455078125,-0.77197265625,1.0000320779602623,0.2300000000000001,1.584999999999999,232.18,0.12000001072883607,-0.01666666666666683,0.44666697184244697,-0.14897101692037013,-0.10540916620930893,0.16000315551157793,0.9719850583562856,0.06172573510591016,0.22672202214031076,0.005666095160820857,103.28224928594697
1773346743678,-0.32,6.08,26.8,0.13333333333333333,1.0833333333333333,9.983333333333334,0.08464846872172499,0.04014257279586959,-0.17686003086875876,-0.3125,7.875,259.1875,0.27000001072883606,1.0199999809265137,10.1899995803833,0.18216873705387115,-0.05672319978475571,0.16689710319042206,0.0031794442557898464,-0.000990006598510526,0.0029129039627135977,0.63555908203125,-0.0413818359375,0.054931640625,-0.76898193359375,0.9999992512163697,0.007500000000000007,1.795,232.3875,0.13666667739550273,-0.06333335240681959,0.2066662470499665,-0.08146902446593514,-0.041132579394380114,0.17977293483147236,0.9714374766265439,0.052235387818226106,0.23127681042622353,0.009577589676185931,103.28245100186092
1773346743778,-0.16,5.0200000000000005,27.080000000000002,0.10000000000000002,0.85,10.033333333333333,0.005235987755982991,0.061668300237132975,-0.19140444130204484,-0.0625,6.875,259.75,0.1899999976158142,1.059999942779541,10.010000228881836,0.22907446324825287,-0.021816615015268326,0.09490227699279785,0.003998103615920757,-0.00038077176365646523,0.0016563572011639854,0.640380859375,-0.0374755859375,0.04559326171875,-0.76580810546875,1.0000164321204992,0.0975,1.8549999999999995,232.67,0.08999999761581419,0.20999994277954104,-0.023333104451497277,-0.0012378841400622334,-0.06204907200078944,0.19306079850320884,0.9712873356116288,0.04290312466577094,0.2338398528094106,0.008897011433607346,102.74800852504744
1773346743878,-0.20000000000000004,4.5,27.3,0.09999999999999999,0.8166666666666668,10.066666666666668,0,0.023852833110589167,-0.10006554378100824,0,6.0625,260,0.27000001072883606,1.0700000524520874,10,0.009817477315664291,0.006544984877109528,-0.04472406208515167,0.00017134730339819656,0.0001142315355987977,-0.0007805821382522572,0.64166259765625,-0.03411865234375,0.04058837890625,-0.76513671875,0.9999882932067126,0.20000000000000004,1.5625,232.7,0.17000001072883608,0.25333338578542064,-0.0666666666666682,0.00017134730339819656,-0.02373860157499037,0.09928496164275598,0.9710209335083254,0.038562443928652136,0.2357413344630263,0.007570193687183523,102.558061042791
1773346743978,-0.25,3.825,27.400000000000002,0.016666666666666666,0.7166666666666668,10.216666666666667,-0.031125038327232207,0.011926416555294583,-0.10413797870232834,0,5.25,260.1875,0.05000000074505806,0.7799999713897705,10.239999771118164,0.1690787672996521,-0.009817477315664291,0.03163409233093262,0.002950981184592251,-0.00017134730339819656,0.0005521190670546618,0.64306640625,-0.0294189453125,0.03533935546875,-0.764404296875,0.9999813379841145,0.25,1.4249999999999998,232.7875,0.0333333340783914,0.06333330472310372,0.023333104451497277,0.03407601951182446,-0.01209776385869278,0.104690097769383,0.9710228602553875,0.03294006150853975,0.23663491660498726,0.005785624651708695,102.28242815064009
1773346744078,-0.4,3.5,27.400000000000002,0,0.5166666666666667,10.033333333333333,-0.01658062789394613,0.020943951023931952,-0.017453292519943295,-0.3125,4.9375,260.25,0.12999999523162842,0.6499999761581421,9.989999771118164,-0.014180799946188927,0.03490658476948738,-0.004363323096185923,-0.0002475016496276315,0.0006092348348540607,-0.00007615435435675759,0.643798828125,-0.02581787109375,0.03521728515625,-0.763916015625,0.9999757145376524,0.08750000000000002,1.4375,232.85,0.12999999523162842,0.13333330949147537,-0.04333356221516915,0.0163331262443185,-0.02033471618907789,0.017377138165586538,0.9711153111180789,0.030495818697518152,0.23662267389768687,0.0038428832292747533,101.92732605304785
1773346744178,-0.55,3.6750000000000003,27.650000000000002,0.09999999999999999,0.6666666666666666,10.083333333333334,-0.010471975511965978,0.038688131752540975,0.10355620228499689,-0.3125,4.9375,260.25,0.12999999523162842,0.6499999761581421,9.989999771118164,-0.014180799946188927,0.03490658476948738,-0.004363323096185923,-0.0002475016496276315,0.0006092348348540607,-0.00007615435435675759,0.643798828125,-0.02581787109375,0.03521728515625,-0.763916015625,0.9999757145376524,0.23750000000000004,1.2624999999999997,232.6,0.029999995231628426,-0.01666669050852454,-0.09333356221516986,0.010224473862338346,-0.038078896917686914,-0.10363235663935365,0.970556388898064,0.03228196960942429,0.23868210496001988,0.0030038607058883024,101.88195075737436
1773346744278,-0.4166666666666667,4.3500000000000005,27.86666666666667,0.16666666666666666,0.85,10.183333333333334,0.028797932657906443,0.016871516102611853,0.1925679941367077,-0.4375,5.125,260.375,0.10999999940395355,0.8500000238418579,10.1899995803833,-0.19198621809482574,0.05017821490764618,-0.02617993950843811,-0.0033507916242066244,0.0008757750629117282,-0.0004569261423951908,0.64453125,-0.0260009765625,0.0367431640625,-0.76324462890625,0.9999945033190578,-0.020833333333333315,0.7749999999999995,232.50833333333333,-0.056666667262713105,2.384185793236071e-8,0.006666247049967211,-0.032148724282113066,-0.015995741039700126,-0.1930249202791029,0.9699041439525055,0.037709793243565604,0.24048374107464485,0.00561189059305951,102.09057483876288
1773346744378,-0.3666666666666667,5.566666666666667,27.78333333333333,0.016666666666666666,0.9,10.066666666666668,0.025889050571249222,-0.04799655442984406,0.20827595740465663,-0.3125,7.25,260.3125,0.11999999731779099,1.2000000476837158,10.069999694824219,-0.23889194428920746,-0.010908307507634163,-0.03272492438554764,-0.004169450984337535,-0.00019038588182823261,-0.0005711576779939885,0.6431884765625,-0.03900146484375,0.050537109375,-0.7630615234375,1.0000147092005631,0.054166666666666696,1.6833333333333327,232.52916666666667,0.10333333065112432,0.3000000476837158,0.003333028157550544,-0.03005850155558676,0.04780616854801583,-0.2088471150826506,0.9696385609599157,0.04790601183321277,0.23965156452943848,0.008555860471769776,102.28662133383655
1773346744478,-0.3333333333333333,6.633333333333334,27.53333333333333,0.09999999999999999,1.2,9.950000000000001,-0.07592182246175334,-0.016289739685280406,0.23300145514124299,-0.3125,8.4375,260,0.09000000357627869,1.4900000095367432,9.640000343322754,-0.2410736083984375,0.07853981852531433,-0.055632367730140686,-0.0042075282062161885,0.0013707784271855725,-0.0009709679875711992,0.640869140625,-0.04522705078125,0.05841064453125,-0.76409912109375,1.0000090058487439,0.020833333333333315,1.8041666666666663,232.46666666666667,-0.009999996423721305,0.2900000095367432,-0.30999965667724716,0.07171429425553716,0.017660518112465978,-0.2339724231288142,0.9696819811204418,0.05688326367239857,0.23740538209640774,0.010946887958237232,102.7282094496331
1773346744578,-0.9666666666666667,8.15,27.86666666666667,-0.05000000000000001,1.45,9.333333333333334,-0.12566370614359174,0.16231562043547262,0.2958333082130388,-0.3125,8.4375,260,0.09000000357627869,1.4900000095367432,9.640000343322754,-0.2410736083984375,0.07853981852531433,-0.055632367730140686,-0.0042075282062161885,0.0013707784271855725,-0.0009709679875711992,0.640869140625,-0.04522705078125,0.05841064453125,-0.76409912109375,1.0000090058487439,0.6541666666666667,0.28749999999999964,232.13333333333333,0.1400000035762787,0.04000000953674321,0.30666700998942,0.12145617793737555,-0.16094484200828704,-0.29680427620061,0.9682327269988164,0.07099498269498022,0.23959362545378413,0.008943905326363218,102.71481802015069
1773346744678,-1.2000000000000002,9.383333333333335,29.5,-0.13333333333333333,1.6666666666666667,8.883333333333333,0.023271056693257727,0.45407649372719144,0.1308996938995747,-1.25,10.375,260.5625,0.1599999964237213,1.6399999856948853,9.180000305175781,-0.30434179306030273,0.1276271939277649,0.2508910894393921,-0.0053117663403255124,0.0022275147491208113,0.004378875574632966,0.64373779296875,-0.04998779296875,0.07672119140625,-0.759765625,1.0000135357506912,-0.04999999999999982,0.9916666666666654,231.0625,0.2933333297570546,-0.026666680971781487,0.2966669718424484,-0.02858282303358324,-0.45184897897807064,-0.12652081832494175,0.963970878754166,0.0817509891948669,0.25290664018771203,0.010730891321090936,102.2375108494945
1773346744778,-1.2333333333333334,9.883333333333333,32.3,-0.3333333333333333,1.75,8.883333333333335,0.04683300159518118,0.5413429563269079,-0.004072434921320106,-1.625,11.4375,262.4375,-0.05999999865889549,2.059999942779541,8.930000305175781,-0.1330813616514206,-0.0359974168241024,0.40797069668769836,-0.0023227079338546076,-0.0006282734457933874,0.0071204319088554605,0.65545654296875,-0.0546875,0.0848388671875,-0.74847412109375,1.0000125727757199,-0.3916666666666666,1.5541666666666671,230.1375,0.2733333346744378,0.309999942779541,0.046666971842446614,-0.049155709529035786,-0.5419712297727013,0.011192866830175566,0.9571688416323462,0.08571978903978496,0.27621249288719746,0.01365961742536979,101.02580162861938
1773346744878,-0.9333333333333336,9.200000000000001,35.18333333333334,-0.15,1.4000000000000001,9.183333333333335,0.10617419616298837,0.4354596483725853,-0.24434609527920614,-1.625,11.8125,264.9375,-0.18000000715255737,2.009999990463257,9.15999984741211,0.027270769700407982,-0.06872233748435974,0.5410520434379578,0.00047596472082522687,-0.0011994310587687947,0.009443139582635743,0.67144775390625,-0.05902099609375,0.08599853515625,-0.73370361328125,1.0000211519746116,-0.6916666666666664,2.612499999999999,229.75416666666666,-0.03000000715255738,0.6099999904632567,-0.02333348592122597,-0.10569823144216314,-0.43665907943135407,0.2537892348618419,0.9503300529901255,0.07889953452749304,0.300625080174091,0.0164989395250604,99.34011839359285
1773346744978,-0.23333333333333336,7.7,37.66666666666667,0,1.0333333333333334,9.600000000000001,0.16377006147880127,0.41160681526199616,-0.24405520707054043,-1.1875,9.1875,269.8125,0.10999999940395355,1.2899999618530273,9.829999923706055,0.2356194406747818,-0.13635385036468506,0.42215150594711304,0.004112335021482392,-0.002379823636635425,0.007367933721029545,0.7034912109375,-0.0491943359375,0.06475830078125,-0.7060546875,1.0000134128177678,-0.9541666666666666,1.4874999999999998,232.14583333333331,0.10999999940395355,0.2566666285196939,0.22999992370605327,-0.15965772645731888,-0.4139866388986316,0.25142314079156997,0.9443678674772142,0.06420551514807865,0.3219577952828282,0.01975248738081482,96.15896479174879
1773346745078,0.4000000000000001,6.1499999999999995,40.10000000000001,-0.016666666666666666,0.75,9.833333333333334,0.16231562043547265,0.49538261935772393,-0.28885199120506155,-1.1875,9.1875,269.8125,0.10999999940395355,1.2899999618530273,9.829999923706055,0.2356194406747818,-0.13635385036468506,0.42215150594711304,0.004112335021482392,-0.002379823636635425,0.007367933721029545,0.7034912109375,-0.0491943359375,0.06475830078125,-0.7060546875,1.0000134128177678,-1.5875000000000001,3.0375000000000005,229.71249999999998,0.12666666607062022,0.5399999618530273,-0.003333409627279238,-0.15820328541399026,-0.49776244299435934,0.2962199249260911,0.937971316810574,0.04919668940705336,0.34252023390534553,0.021665270768012175,96.7398660711629
1773346745179,0.7333333333333334,4.3500000000000005,43.400000000000006,0.03333333333333333,0.7333333333333334,10,0.11082840750163994,0.7318747330029555,-0.33452143996557987,-0.625,7.1875,273.0625,-0.019999999552965164,0.8799999952316284,9.920000076293945,0.2934334874153137,-0.11890055239200592,0.5770494937896729,0.0051213804910065705,-0.002075206121680523,0.010071413613596363,0.72430419921875,-0.0416259765625,0.04730224609375,-0.6866455078125,1.000034424815114,-1.3583333333333334,2.8374999999999995,229.6625,-0.0533333328862985,0.14666666189829503,-0.07999992370605469,-0.10570702701063336,-0.733949939124636,0.34459285357917624,0.9283543841929617,0.03289703802681513,0.3696984758400491,0.01997396305979219,95.12056187021231
1773346745279,0.43333333333333335,3,48.01666666666667,0.25,0.48333333333333334,10.083333333333334,-0.016289739685280406,0.9919287915501107,-0.20943951023931956,-0.4375,5.1875,277.1875,0.07999999821186066,0.699999988079071,10.020000457763672,0.3272492289543152,-0.07853981852531433,0.849757194519043,0.00571157651986556,-0.0013707784271855725,0.014831060886867213,0.74896240234375,-0.03118896484375,0.03326416015625,-0.6610107421875,0.9999795684366337,-0.8708333333333333,2.1875,229.17083333333332,-0.17000000178813934,0.2166666547457377,-0.06333287556966205,0.022001316205145966,-0.9932995699772963,0.22427057112618679,0.9131264567185496,0.022374047285045807,0.40681760162046643,0.014103725057052947,93.14923950086494
1773346745398,-0.7000000000000001,1.6714285714285715,54.72857142857142,0.6714285714285715,0.2285714285714286,10.042857142857144,-0.13189702490071434,0.8764046172514384,-0.23337545426667036,-1.8125,2.75,287.75,0.6100000143051147,0.5899999737739563,9.9399995803833,0.21816615760326385,0.25416356325149536,0.9032078981399536,0.003807717766601815,0.004435991017339458,0.015763951652559758,0.80731201171875,-0.01025390625,0.0274658203125,-0.58935546875,0.9999760330576577,-1.1124999999999998,1.0785714285714285,233.02142857142857,-0.06142855712345674,0.3614285452025277,-0.1028575624738437,0.13570474266731616,-0.8719686262340989,0.24913940591923012,0.8880319842945985,0.015760628778494316,0.4595096955045558,0.001279526324439952,86.45767526281162
1773346745512,-2.2142857142857144,0.07142857142857142,59.12857142857143,0.742857142857143,0.01428571428571429,9.957142857142857,-0.10172776211624093,0.45627893302137473,-0.14685698991780863,-3.125,1.3125,291,0.9599999785423279,0.03999999910593033,9.800000190734863,0.23343779146671295,0.16798794269561768,0.5486878752708435,0.004074258059678064,0.002931942703690087,0.009576409989248193,0.82525634765625,0.0076904296875,0.02923583984375,-0.56396484375,1.000009130644837,-0.9107142857142856,1.2410714285714286,231.87142857142857,0.2171428356851849,0.025714284820216038,-0.157142666407994,0.105802020175919,-0.45334699031768466,0.15643339990705682,0.8696460413532349,0.010075585551889862,0.493297102679807,-0.016498903664853057,84.28383521840705
1773346745612,-2.6333333333333333,-0.19999999999999998,61.18333333333333,0.3333333333333333,-0.13333333333333333,9.8,0.09977465557234252,0.21583905082996543,0.022107503858594845,-3.125,1.3125,291,0.9599999785423279,0.03999999910593033,9.800000190734863,0.23343779146671295,0.16798794269561768,0.5486878752708435,0.004074258059678064,0.002931942703690087,0.009576409989248193,0.82525634765625,0.0076904296875,0.02923583984375,-0.56396484375,1.000009130644837,-0.4916666666666667,1.5125,229.81666666666666,0.6266666452089946,0.17333333243926366,1.9073486257070726e-7,-0.09570039751266446,-0.21290710812627534,-0.012531093869346652,0.8605670510625442,0.01019192338368485,0.5088155977169361,-0.020667918211924128,85.08119893420968
1773346745712,-1.7833333333333334,0.08333333333333333,62.38333333333333,0.08333333333333336,-0.016666666666666666,9.633333333333335,0.18355045966807035,0.24580053632253476,0.0968657734856853,-3.375,0.875,293.75,0.38999998569488525,0.23000000417232513,9.9399995803833,-0.022907447069883347,-0.11890055239200592,0.17344209551811218,-0.00039981037459579195,-0.002075206121680523,0.003027135628349558,0.83685302734375,0.00970458984375,0.02923583984375,-0.54656982421875,1.0000052377444426,-1.5916666666666666,0.7916666666666666,231.36666666666667,0.3066666523615519,0.2466666708389918,0.30666624704996615,-0.18395027004266615,-0.24787574244421529,-0.09383863785733575,0.8553416417568085,0.00868155945411247,0.5178300636620976,-0.01293567044726497,84.86224841398897
1773346745811,-0.45,0.11666666666666665,64.16666666666667,-0.08333333333333336,0.15,9.666666666666666,0.20216730502267652,0.3100868304376592,-0.12537281793492602,-2.5625,1.375,294.8125,0.05000000074505806,0.46000000834465027,9.390000343322754,-0.1592612862586975,-0.17780540883541107,0.23780110478401184,-0.0027796338161754732,-0.0031032898120325397,0.004150412243361046,0.8427734375,0.00115966796875,0.02496337890625,-0.53765869140625,0.9999842251338079,-2.1125,1.2583333333333333,230.64583333333331,0.13333333407839143,0.31000000834465025,-0.27666632334391217,-0.20494693883885198,-0.3131901202496918,0.12952323017828707,0.8472716145738747,0.002948435895013514,0.5311443809800829,-0.002786470246975903,86.42508474427011
1773346745911,0.5000000000000001,-0.42000000000000004,65.58000000000001,0.11666666666666665,-0.049999999999999996,9.950000000000001,0.13700834628155487,0.16115206760080977,-0.05003277189050412,-0.4375,0.5,298.375,0.14000000059604645,-0.03999999910593033,9.989999771118164,0.07744898647069931,-0.12653636932373047,0.17344209551811218,0.0013517398162462457,-0.0022084762682186474,0.003027135628349558,0.85870361328125,-0.0020751953125,0.00579833984375,-0.51239013671875,0.9999767371541513,-0.9375000000000001,0.92,232.795,0.023333333929379793,0.010000000894069667,0.039999771118163,-0.1356566064653086,-0.16336054386902843,0.05305990751885368,0.8406561484476133,-0.0054441321932917,0.5415392585517328,0.0016831366925448748,87.20141000886878
1773346746011,0.7000000000000001,-0.30000000000000004,66.15,0.16666666666666666,-0.19999999999999998,9.966666666666667,0.05963208277647294,0.01832595714594046,0.0660316233671188,-0.4375,0.5,298.375,0.14000000059604645,-0.03999999910593033,9.989999771118164,0.07744898647069931,-0.12653636932373047,0.17344209551811218,0.0013517398162462457,-0.0022084762682186474,0.003027135628349558,0.85870361328125,-0.0020751953125,0.00579833984375,-0.51239013671875,0.9999767371541513,-1.1375000000000002,0.8,232.225,-0.02666666607062021,0.16000000089406965,0.023333104451497277,-0.05828034296022669,-0.020534433414159108,-0.06300448773876925,0.8379471404019392,-0.005527404359109023,0.545710932048882,0.0036900319245766044,87.75337403428661
1773346746111,0.3999999999999999,-0.03333333333333333,65.76666666666668,0.09999999999999999,-0.13333333333333333,9.833333333333336,0.04014257279586959,-0.1998401993533508,0.15417075059283245,0.0625,0.75,298.875,0.14000000059604645,0.14000000059604645,9.90999984741211,-0.037088245153427124,-0.06108652427792549,0.027270769700407982,-0.0006473119917141328,-0.0010661609772492516,0.00047596472082522687,0.86090087890625,-0.0062255859375,0.002685546875,-0.5086669921875,0.9999692006881586,-0.3374999999999999,0.7833333333333333,233.10833333333332,0.040000000596046456,0.27333333392937975,0.07666651407877367,-0.04078988478758372,0.19877403837610153,-0.15369478587200722,0.8397732315948119,-0.0021394599385409566,0.5429260080670463,0.0027734405274865634,87.39088012292625
1773346746212,0.3333333333333333,0.65,63.88333333333335,0,0.016666666666666666,9.783333333333333,0.019489509980603347,-0.425278561069285,0.18093246579007885,0.3125,1.5,298.25,0.17000000178813934,0.2199999988079071,9.739999771118164,-0.1647154539823532,-0.04145156964659691,-0.22362031042575836,-0.0028748270009092696,-0.0007234663704528584,-0.003902910691261286,0.85748291015625,-0.01385498046875,0.00445556640625,-0.5142822265625,0.9999874810835904,-0.020833333333333315,0.85,234.36666666666665,0.17000000178813934,0.20333333214124044,-0.04333356221516915,-0.022364336981512616,0.4245550946988322,-0.18483537648134013,0.8485612007151011,0.0032744784845476936,0.5290588367511054,0.005469340651962094,86.70803903681029
1773346746311,0.4166666666666667,1.4166666666666667,61.150000000000006,-0.13333333333333333,0.13333333333333333,9.483333333333333,0.019489509980603344,-0.557050919594857,0.18965911205005048,0.5625,2.4375,296.0625,0.03999999910593033,0.11999999731779099,9.75,-0.20398534834384918,-0.01636246219277382,-0.482147216796875,-0.0035602159544277302,-0.00028557883899699426,-0.008415056412432377,0.847900390625,-0.02081298828125,0.0069580078125,-0.5296630859375,0.9999798254868832,0.14583333333333331,1.0208333333333333,234.9125,0.17333333243926366,-0.013333336015542346,0.2666666666666675,-0.023049725935031073,0.5567653407558599,-0.19807416846248285,0.8608697072023395,0.00879412530355186,0.5086622654623881,0.009418613283010241,86.51198335561705
1773346746411,0.65,1.9833333333333336,57.98333333333333,-0.25,0.25000000000000006,9.783333333333333,0.02239839206726056,-0.5515240436302081,0.1399172283682121,0.875,3.5,293.375,-0.05000000074505806,0.41999998688697815,9.350000381469727,-0.1799870729446411,0.010908307507634163,-0.6021385788917542,-0.0031413670339111932,0.00019038588182823261,-0.01050930075494074,0.8333740234375,-0.03045654296875,0.01055908203125,-0.5517578125,0.999994020891196,0.22499999999999998,1.5166666666666664,235.39166666666668,0.19999999925494194,0.1699999868869781,-0.43333295186360665,-0.025539759101171754,0.5517144295120363,-0.15042652912315285,0.8744975511431372,0.012389158980703516,0.4846878848743523,0.013349008968218067,86.86936109460466
1773346746512,1.0499999999999998,2.25,55.1,-0.3166666666666667,0.4166666666666667,9.716666666666669,-0.007853981633974482,-0.48112909713310353,-0.005526875964648711,1.25,4.3125,290.0625,-0.3700000047683716,0.5600000023841858,9.699999809265137,-0.15598879754543304,-0.046905722469091415,-0.5465062260627747,-0.002722518113394656,-0.0008186592951123293,-0.009538333027443864,0.818603515625,-0.037353515625,0.01226806640625,-0.572998046875,0.999992134018598,0.20000000000000018,2.0625,234.9625,-0.053333338101704875,0.1433333357175191,-0.016666857401531843,0.005131463520579826,0.4803104378379912,-0.004011457062795153,0.8863162212602875,0.0131694415546553,0.4625734330385864,0.017202929602833924,87.74773661303793
1773346746611,1.1500000000000001,2.0833333333333335,52.20000000000001,-0.38333333333333336,0.3666666666666667,9.666666666666668,-0.028216156240575,-0.4098614860100017,-0.025598162362583502,1.625,4.4375,287.75,-0.23999999463558197,0.5899999737739563,9.779999732971191,0.014180799946188927,0.023998277261853218,-0.482147216796875,0.0002475016496276315,0.00041884895302582805,-0.008415056412432377,0.8067626953125,-0.0396728515625,0.0113525390625,-0.5894775390625,1.000026315104426,0.47499999999999987,2.3541666666666665,235.54999999999998,0.1433333386977514,0.2233333071072896,0.11333306630452356,0.02846365789020263,0.41028033496302757,0.017183105950151125,0.8977536901508593,0.01191061175061493,0.44000815105718005,0.017008120163116168,88.09379612523885
1773346746712,1.25,1.9000000000000001,50,-0.3666666666666667,0.3166666666666667,9.766666666666667,-0.040724349213201026,-0.3993895104980358,-0.013962634015954638,1.6875,4.1875,284.8125,-0.3400000035762787,0.5099999904632568,9.619999885559082,0.0512690469622612,0.030543262138962746,-0.4156065285205841,0.000894813673851055,0.0005330804886246258,-0.00725370231546791,0.79150390625,-0.03814697265625,0.0107421875,-0.60992431640625,1.0000283453321521,0.4375,2.2874999999999996,234.8125,0.02666666309038801,0.19333332379659013,-0.14666678110758546,0.04161916288705208,0.3999225909866604,0.006708931700486728,0.906052864204481,0.010416244644915479,0.422698940375474,0.01689126756064412,89.36971454664932
1773346746811,1.1666666666666667,1.7166666666666668,47.76666666666667,-0.2833333333333334,0.26666666666666666,9.8,-0.04828744263850977,-0.41655191480931336,-0.00552687596464871,1.6875,4.0625,282.6875,-0.33000001311302185,0.5699999928474426,9.65999984741211,0.05017821490764618,0.07090400159358978,-0.4406956434249878,0.0008757750629117282,0.001237508280647448,-0.007691589976960937,0.78009033203125,-0.03692626953125,0.0106201171875,-0.62451171875,1.0000160744984432,0.5208333333333333,2.345833333333333,234.92083333333332,-0.04666667977968847,0.30333332618077596,-0.14000015258789134,0.0491632177014215,0.4177894230899608,-0.0021647140123122266,0.91416003449276,0.009575205641193005,0.4049486646890348,0.015372889763891664,89.94049352756073
1773346746911,1.1666666666666667,1.7666666666666668,45.38333333333333,-0.30000000000000004,0.26666666666666666,9.716666666666669,-0.016289739685280406,-0.4537856055185257,0.028216156240575004,1.5625,3.75,280.125,-0.20999999344348907,0.4300000071525574,9.699999809265137,-0.01745329238474369,0.03490658476948738,-0.482147216796875,-0.00030461741742703036,0.0006092348348540607,-0.008415056412432377,0.76611328125,-0.03424072265625,0.01043701171875,-0.6417236328125,1.0000100694089802,0.39583333333333326,1.9833333333333332,234.74166666666667,0.09000000655651097,0.1633333404858907,-0.016666857401531843,0.015985122267853376,0.45439484035337974,-0.03663121265300738,0.9223762079239322,0.010295361157661647,0.38585082868261344,0.015338663548074599,91.06957359200382
1773346747011,1.2000000000000002,1.7000000000000002,42.550000000000004,-0.3333333333333333,0.18333333333333338,9.733333333333334,-0.04421500771718969,-0.4505858352232027,-0.013962634015954638,1.6875,3.8125,277.3125,-0.1899999976158142,0.5899999737739563,9.619999885559082,0.014180799946188927,0.02617993950843811,-0.48978301882743835,0.0002475016496276315,0.0004569261423951908,-0.008548326298896175,0.7501220703125,-0.03521728515625,0.01092529296875,-0.6602783203125,1.000005099909414,0.4874999999999998,2.1125,234.7625,0.1433333357175191,0.40666664044062295,-0.11333344777425225,0.044462509366817324,0.4510427613655979,0.005414307717058463,0.9316396405727694,0.010023789682865783,0.3629296077416812,0.015139470872665973,92.34980019990373
1773346747111,1.2333333333333334,1.5166666666666666,39.86666666666667,-0.39999999999999997,0.30000000000000004,9.766666666666667,-0.0189077335632719,-0.4799655442984406,-0.0005817764173314429,1.6875,3.625,274.4375,-0.20000000298023224,0.3700000047683716,9.649999618530273,0.030543262138962746,0.046905722469091415,-0.5475970506668091,0.0005330804886246258,0.0008186592951123293,-0.009557371508346029,0.7333984375,-0.03369140625,0.0106201171875,-0.6788330078125,0.9999677086623276,0.4541666666666666,2.1083333333333334,234.57083333333333,0.19999999701976773,0.07000000476837154,-0.11666704813639406,0.019440814051896526,0.48078420359355295,-0.008975595091014586,0.9399045963149048,0.008772441655815129,0.34101083516860775,0.014628888922953534,93.88687696785104
1773346747211,1.3499999999999999,1.4500000000000002,37.550000000000004,-0.45,0.4166666666666667,9.883333333333333,-0.10559241974565695,-0.34470252726888007,-0.04508767234318685,1.8125,3.4375,271.1875,-0.4000000059604645,0.5299999713897705,9.899999618530273,-0.0054541537538170815,0.004363323096185923,-0.514872133731842,-0.00009519294091411631,0.00007615435435675759,-0.008986213960389202,0.71392822265625,-0.0330810546875,0.00958251953125,-0.6993408203125,0.9999786352319117,0.46250000000000013,1.9874999999999998,233.6375,0.049999994039535534,0.11333330472310382,0.016666285196940578,0.10549722680474283,0.3447786816232368,0.036101458382797644,0.9466003145943045,0.008187837785721347,0.3219456444396233,0.015225168265548993,96.17863965980021
1773346747311,1.2333333333333334,1.4666666666666668,35.75,-0.39999999999999997,0.3666666666666667,9.666666666666668,-0.1375901226988863,-0.32084969415829095,-0.06399540590645875,1.5,3.1875,268.8125,-0.33000001311302185,0.7200000286102295,9.930000305175781,0.010908307507634163,0.13962633907794952,-0.3883357644081116,0.00019038588182823261,0.002436939339416243,-0.006777737692170556,0.69915771484375,-0.029052734375,0.01055908203125,-0.71429443359375,0.9999968018331646,0.2666666666666666,1.7208333333333332,233.0625,0.06999998688697812,0.3533333619435628,0.2633336385091134,0.13778050858071453,0.3232866334977072,0.05721766821428819,0.9515530702122559,0.008876977409309986,0.30702955919945824,0.01417051937970236,97.68246845873884
1773346747411,1.0666666666666667,1.1666666666666667,33.85,-0.3,0.25,9.816666666666668,-0.048287442638509794,-0.2588905057124922,-0.043051454882526805,0.9375,2.875,267.1875,-0.2800000011920929,0.5099999904632568,9.75,0.03490658476948738,0.142898827791214,-0.34143003821372986,0.0006092348348540607,0.0024940550421970603,-0.0059590783320396445,0.68896484375,-0.02349853515625,0.01263427734375,-0.72430419921875,1.0000004675238232,-0.12916666666666665,1.7083333333333333,233.3375,0.019999998807907093,0.25999999046325684,-0.0666666666666682,0.048896677473363855,0.2613845607546893,0.03709237655048716,0.9565680352568462,0.007029834857167591,0.29118261743938295,0.011868388596944019,98.31845692156668
1773346747511,1.02,1.1600000000000001,32.58,-0.18333333333333332,0.18333333333333335,9.866666666666667,-0.033743032205223705,-0.2018764168140108,-0.01250819297262603,0.6875,2.5,265.5625,-0.1899999976158142,0.46000000834465027,9.9399995803833,-0.02508910745382309,0.01745329238474369,-0.2410736083984375,-0.0004378875314558641,0.00030461741742703036,-0.0042075282062161885,0.678955078125,-0.01947021484375,0.0118408203125,-0.73382568359375,0.9999997131526058,-0.3325,1.3399999999999999,232.98250000000002,-0.006666664282480889,0.2766666750113169,0.07333291371663364,0.03330514467376784,0.20218103423143782,0.008300664766409841,0.9597417868907213,0.007219354498737102,0.2805601896826189,0.011382591167209716,99.45100909091151
1773346747611,0.8800000000000001,1.06,31.600000000000005,-0.11666666666666668,0.3166666666666667,9.866666666666667,-0.05701408889848144,-0.16580627893946132,-0.033452143996557986,0.625,2.4375,264.1875,-0.07000000029802322,0.33000001311302185,9.90999984741211,-0.0021816615480929613,0.02508910745382309,-0.19198621809482574,-0.000038077177178378795,0.0004378875314558641,-0.0033507916242066244,0.6697998046875,-0.0185546875,0.0123291015625,-0.7421875,0.9999851732346956,-0.2550000000000001,1.3775,232.5875,0.04666666636864346,0.013333346446355143,0.043333180745442235,0.05697601172130306,0.1662441664709172,0.030101352372351363,0.9621291137704646,0.00680951064963696,0.2723289209051763,0.009907463782168233,100.36983506199184
1773346747711,0.5166666666666667,0.9666666666666668,30.46666666666667,0.10000000000000002,0.18333333333333335,10,-0.06923139366244173,-0.23474678439323735,-0.00756309342530876,0.25,2.3125,262.5,0.07999999821186066,0.33000001311302185,10.0600004196167,0.004363323096185923,0.055632367730140686,-0.22252947092056274,0.00007615435435675759,0.0009709679875711992,-0.0038838719502847967,0.6588134765625,-0.015380859375,0.01373291015625,-0.75201416015625,0.9999928287904624,-0.2666666666666667,1.3458333333333332,232.03333333333333,-0.020000001788139363,0.1466666797796885,0.06000041961669922,0.06930754801679849,0.23571775238080855,0.0036792214750239636,0.9648096645519133,0.006954543325003419,0.26277523648608103,0.006566628057804254,101.27967021437264
1773346747811,-0.18333333333333335,1.0833333333333333,29.100000000000005,0.11666666666666665,0.2333333333333333,9.9,-0.1183915009269487,-0.20536707531799947,0.04508767234318685,-0.125,2.375,261.25,0.15000000596046448,0.4000000059604645,9.850000381469727,-0.04145156964659691,0.12217304855585098,-0.18216873705387115,-0.0007234663704528584,0.002132321954498503,-0.0031794442557898464,0.650634765625,-0.01239013671875,0.01678466796875,-0.75909423828125,0.999992450670714,0.05833333333333335,1.2916666666666667,232.15,0.03333333929379782,0.16666667262713117,-0.04999961853027379,0.11766803455649584,0.20749939727249797,-0.04826711659897669,0.9678880807326248,0.009552434321675901,0.25119858890616154,0.0008265021472390226,101.42497946898041
1773346747911,-0.8333333333333334,1.4333333333333333,27.983333333333334,0.03333333333333333,0.30000000000000004,9.700000000000001,-0.11344640137963143,-0.1829686832507389,0.059050306359141484,-0.75,2.6875,259.875,0.20000000298023224,0.47999998927116394,9.800000190734863,-0.0665406808257103,0.10581058263778687,-0.1941678822040558,-0.0011613539669273038,0.0018467430504829274,-0.003388868846085278,0.6414794921875,-0.0098876953125,0.0225830078125,-0.7667236328125,0.9999844132639181,0.08333333333333337,1.2541666666666667,231.89166666666665,0.1666666696468989,0.1799999892711639,0.10000019073486222,0.11228504741270412,0.18481542630122183,-0.062439175205226766,0.9702513328990187,0.013894575095228555,0.24166720254529375,-0.004031749562273003,101.78051488863736
1773346748012,-1.06,1.6800000000000002,27.080000000000005,-0.03333333333333334,0.35000000000000003,9.716666666666667,-0.03432480862255515,-0.15417075059283245,0.0404334610045353,-1.25,3,258.875,0.10999999940395355,0.5299999713897705,9.720000267028809,-0.038179077208042145,0.08617562800645828,-0.19307704269886017,-0.0006663506026534595,0.0015040484436865344,-0.0033698301051087883,0.634765625,-0.00830078125,0.02764892578125,-0.77215576171875,0.9999926425245943,-0.18999999999999995,1.3199999999999998,231.795,0.14333333273728688,0.17999997138977047,0.0033336003621418087,0.033658458019901694,0.15567479903651898,-0.04380329110964409,0.9720923872642708,0.016417616526093644,0.23395713316188588,-0.005559886071203796,102.24221495265843
1773346748111,-0.8333333333333334,1.9333333333333336,26.3,0.05000000000000001,0.38333333333333336,9.733333333333334,0.00029088820866572185,-0.07766715171374766,0.01774418072860902,-1.3125,3.3125,258,0.14000000059604645,0.6499999761581421,9.59000015258789,-0.04472406208515167,0.0010908307740464807,-0.13526301085948944,-0.0007805821382522572,0.000019038588589189398,-0.002360784895658936,0.62872314453125,-0.00927734375,0.02984619140625,-0.77703857421875,1.0000293008415728,-0.47916666666666663,1.3791666666666664,231.7,0.09000000059604643,0.26666664282480873,-0.14333318074544366,-0.001071470346917979,0.07768619030233685,-0.020104965624267956,0.9736413831053105,0.018082079314124536,0.2273433133472323,-0.0032424356212590716,103.17950324565047
1773346748212,-0.95,2.1,26.150000000000002,0.15,0.4666666666666666,9.799999999999999,-0.029379709075237886,0.0215257274412634,0.00552687596464871,-1.25,3.4375,257.5625,0.20999999344348907,0.6899999976158142,9.739999771118164,0.027270769700407982,0.030543262138962746,-0.011999138630926609,0.00047596472082522687,0.0005330804886246258,-0.00020942447651291403,0.6256103515625,-0.010009765625,0.03057861328125,-0.77947998046875,1.0000062994460532,-0.30000000000000004,1.3375,231.4125,0.05999999344348908,0.2233333309491476,-0.06000022888183487,0.029855673796063114,-0.020992646952638774,-0.005736300441161624,0.9739121072987544,0.019724390650307542,0.2260325697182107,-0.003928498053416528,103.50407715404182
1773346748311,-1.0499999999999998,2.3833333333333333,26.45,0.03333333333333334,0.6000000000000001,9.966666666666667,-0.05817764173314432,0.0986111027376796,0.059050306359141484,-1.5,3.5625,257.6875,0.07000000029802322,0.6899999976158142,9.899999618530273,-0.06108652427792549,0.04254240170121193,0.04145156964659691,-0.0010661609772492516,0.0007425049813921851,0.0007234663704528584,0.62677001953125,-0.00958251953125,0.0328369140625,-0.7784423828125,0.9999916441389504,-0.4500000000000002,1.1791666666666667,231.2375,0.036666666964689884,0.08999999761581412,-0.06666704813639335,0.05711148075589507,-0.09786859775628742,-0.05832683998868862,0.9732713659826102,0.022340387416183775,0.22853106449397,-0.004160265579496781,103.28796287766203
1773346748411,-1.06,2.8400000000000003,27,-0.08333333333333333,0.5666666666666668,9.716666666666667,-0.02617993877991495,0.12246393584826878,0.06748606441044741,-1.6875,3.9375,258.0625,0,0.7799999713897705,9.770000457763672,-0.030543262138962746,0.0512690469622612,0.09926559776067734,-0.0005330804886246258,0.000894813673851055,0.0017325115148841296,0.6290283203125,-0.01025390625,0.03662109375,-0.77642822265625,0.99998182973149,-0.6275,1.0974999999999997,231.0625,0.08333333333333333,0.21333330472310374,0.05333379109700509,0.025646858291290323,-0.12156912217441773,-0.06575355289556328,0.972083229979236,0.02625413543354246,0.23314079367603455,-0.0032069751919314477,103.04217904238146
1773346748512,-0.7166666666666668,3.35,27.766666666666666,-0.08333333333333333,0.5166666666666667,9.666666666666668,0.038979019961206694,0.15853407372281828,0.06544984694978735,-1.75,4.4375,258.75,0,0.7599999904632568,9.630000114440918,-0.07417649030685425,0.011999138630926609,0.14071716368198395,-0.0012946239834282656,0.00020942447651291403,0.0024559778203184068,0.633544921875,-0.01263427734375,0.03997802734375,-0.7725830078125,1.000010769756259,-1.0333333333333332,1.0875,230.98333333333335,0.08333333333333333,0.24333332379659012,-0.03666655222574988,-0.04027364394463496,-0.15832464924630535,-0.06299386912946894,0.9703963983660915,0.029875619579458713,0.2396609790032036,0.0009447412807988935,102.89030244272637
1773346748612,-0.23333333333333336,3.633333333333333,28.76666666666667,0.03333333333333333,0.5,9.533333333333333,0.07621271067041906,0.19896753472735357,0.03665191429188092,-1.4375,4.75,259.6875,0.11999999731779099,0.7900000214576721,9.520000457763672,-0.05999569222331047,-0.08617562800645828,0.18871372938156128,-0.0010471223663099248,-0.0015040484436865344,0.0032936759214258066,0.6397705078125,-0.01690673828125,0.04052734375,-0.76727294921875,0.9999711919151691,-1.2041666666666666,1.1166666666666671,230.92083333333332,0.08666666398445766,0.2900000214576721,-0.01333287556966134,-0.07725983303672898,-0.2004715831710401,-0.033358238370455116,0.9681826244420603,0.031213328167804585,0.24822023009980596,0.005903494081719478,102.72116777009555
1773346748712,0.05000000000000001,3.5666666666666664,30.133333333333336,0.18333333333333332,0.4666666666666666,9.683333333333335,0.07330382858376185,0.25220007691318064,-0.004654211338651545,-1.125,4.875,261.3125,0.3199999928474426,0.699999988079071,9.619999885559082,-0.008726646192371845,-0.04908738657832146,0.23998276889324188,-0.00015230870871351518,-0.0008567365169909828,0.004188489465239699,0.65081787109375,-0.02056884765625,0.0390625,-0.7579345703125,0.9999888352426496,-1.175,1.3083333333333336,231.17916666666667,0.1366666595141093,0.23333332141240443,-0.06333344777425332,-0.07345613729247535,-0.2530568134301716,0.008842700803891244,0.9651527062364559,0.029936862867902023,0.25982996057653907,0.008510550679487484,101.71932129666804
1773346748828,0.1142857142857143,3.2428571428571433,31.75714285714286,0.17142857142857146,0.3714285714285715,9.65714285714286,0.09898510186310697,0.26952870305798154,-0.01072130826225088,-0.9375,4.8125,262.75,0.36000001430511475,0.6100000143051147,9.75,0.03272492438554764,-0.0818123072385788,0.29016098380088806,0.0005711576779939885,-0.00142789412996639,0.005064264528151428,0.66009521484375,-0.0216064453125,0.0369873046875,-0.74993896484375,0.9999845212990148,-1.0517857142857143,1.5696428571428567,230.99285714285713,0.1885714428765433,0.23857144287654325,0.09285714285713986,-0.09841394418511298,-0.27095659718794796,0.015785572790402307,0.9614503838072185,0.026943065435784747,0.27351696774156126,0.008700520635978298,100.76512646204185
1773346748928,0.2833333333333334,2.7833333333333337,33.35,0.09999999999999999,0.30000000000000004,9.75,0.09133889752103658,0.2713986986851183,-0.0753400460444219,-0.5,4.625,264.3125,0.14000000059604645,0.6399999856948853,9.779999732971191,0.03163409233093262,-0.11235556751489639,0.2988876402378082,0.0005521190670546618,-0.001960974586081725,0.005216573415666041,0.67034912109375,-0.02386474609375,0.0330810546875,-0.740966796875,1.0000318097479286,-0.7833333333333334,1.8416666666666663,230.9625,0.040000000596046456,0.3399999856948852,0.029999732971191406,-0.09078677845398192,-0.27335967327120003,0.08055661946008795,0.9576450667912334,0.02255612362002009,0.28691457304473467,0.009336761334102732,99.81980179652746
1773346749045,0.3285714285714287,2.2,35.128571428571426,0.20000000000000004,0.39999999999999997,9.9,0.0947464451082636,0.2642927153019985,-0.043633231299858244,-0.1875,4.0625,265.875,0.25999999046325684,0.6499999761581421,9.720000267028809,0.07090400159358978,-0.07526732236146927,0.2661627233028412,0.001237508280647448,-0.0013136625943675924,0.004645415867709215,0.6806640625,-0.02288818359375,0.02777099609375,-0.731689453125,0.9999840593557608,-0.5160714285714287,1.8624999999999998,230.74642857142857,0.0599999904632568,0.24999997615814212,-0.17999973297119176,-0.09350893682761616,-0.2656063778963661,0.04827864716756746,0.9531827334800683,0.01743723363152728,0.30177130301152855,0.008526438733082358,98.83535778014324
1773346749145,0.5000000000000001,2.2166666666666672,36.766666666666666,0.03333333333333333,0.4166666666666667,9.899999999999999,0.11955505376161155,0.24521875990520334,0.02530727415391778,0,3.8125,267.4375,0.17000000178813934,0.550000011920929,10,-0.021816615015268326,-0.11999138444662094,0.25416356325149536,-0.00038077176365646523,-0.0020942447326198496,0.004435991017339458,0.69036865234375,-0.0230712890625,0.02423095703125,-0.72271728515625,1.000024286735178,-0.5000000000000001,1.5958333333333328,230.67083333333335,0.13666666845480602,0.13333334525426227,0.10000000000000142,-0.119935825525268,-0.24731300463782319,-0.020871283136578322,0.9487545981927044,0.016979763378323125,0.31539109368070534,0.010240022983613263,98.18492029751278
