participant,rep,equipment_code,exercise_code,quality_code,timestamp,timestamp_ms,accelX,accelY,accelZ,accelMag,gyroX,gyroY,gyroZ,roll,pitch,yaw,filteredX,filteredY,filteredZ,filteredMag
1,1,1,3,0,00.000,0,3.9600,9.3400,0.6900,10.1682,-0.0513,0.0316,0.0829,-17.56,86.88,21.75,2.9469,9.5285,0.4987,9.9862
1,1,1,3,0,00.131,131,3.6200,9.2000,0.3400,9.8924,-0.0742,0.0229,-0.0142,-17.94,87.38,22.06,3.0356,9.4852,0.4778,9.9706
1,1,1,3,0,00.308,308,3.2000,9.5100,0.4600,10.0445,-0.0469,0.0251,0.1865,-17.94,88.06,22.06,3.0573,9.4885,0.4755,9.9802
1,1,1,3,0,00.438,438,3.5700,8.6500,0.4400,9.3681,-0.0153,0.0153,0.0818,-18.94,88.38,23.00,3.1248,9.3780,0.4708,9.8961
1,1,1,3,0,00.570,570,3.1900,8.4400,0.2500,9.0262,-0.0109,0.0011,-0.0764,-19.13,88.44,23.25,3.1334,9.2544,0.4417,9.7804
1,1,1,3,0,00.700,700,2.9600,9.4400,0.2100,9.8954,-0.0142,-0.0185,-0.1756,-17.94,88.44,22.19,3.1106,9.2788,0.4112,9.7950
1,1,1,3,0,00.831,831,2.6900,8.4500,0.3200,8.8736,0.0360,-0.0469,-0.4331,-16.19,88.19,20.63,3.0551,9.1696,0.3992,9.6734
1,1,1,3,0,00.961,961,2.2600,9.8900,0.2400,10.1478,0.0393,-0.0262,0.4178,-15.81,87.88,20.44,2.9504,9.2645,0.3782,9.7303
1,1,1,3,0,01.091,1091,3.2000,9.9300,0.3400,10.4384,0.0469,-0.0371,-0.2313,-16.69,87.44,21.44,2.9833,9.3522,0.3732,9.8236
1,1,1,3,0,01.222,1222,3.1600,9.8200,0.6500,10.3364,0.0284,-0.0415,-0.0665,-15.81,87.13,20.69,3.0066,9.4139,0.4096,9.8908
1,1,1,3,0,01.395,1395,2.4900,9.8500,0.4900,10.1717,-0.0109,-0.0425,-0.0796,-14.06,86.94,19.31,2.9385,9.4713,0.4202,9.9256
1,1,1,3,0,01.525,1525,1.5800,9.8200,0.3100,9.9511,-0.0338,-0.0382,-0.1985,-12.44,87.06,18.06,2.7595,9.5173,0.4057,9.9176
1,1,1,3,0,01.656,1656,1.6400,10.2000,0.6000,10.3484,-0.0305,-0.0196,-0.1789,-11.88,87.38,17.75,2.6120,9.6073,0.4313,9.9653
1,1,1,3,0,01.787,1787,2.6900,10.2700,0.3300,10.6216,-0.0415,0.0033,0.1265,-12.75,87.63,18.69,2.6222,9.6946,0.4180,10.0517
1,1,1,3,0,01.917,1917,2.0500,10.7900,0.6500,11.0022,-0.0491,0.0251,0.1811,-12.00,88.00,17.94,2.5468,9.8389,0.4485,10.1731
1,1,1,3,0,02.048,2048,1.5700,11.2300,0.2500,11.3420,-0.0458,0.0218,-0.1233,-11.88,88.44,17.75,2.4181,10.0222,0.4224,10.3185
1,1,1,3,0,02.178,2178,3.0100,10.4700,0.3700,10.9004,0.0011,0.0142,-0.0742,-12.44,88.56,18.19,2.4961,10.0812,0.4155,10.3940
1,1,1,3,0,02.314,2314,2.2700,10.2000,0.3600,10.4557,0.0065,0.0240,0.0502,-12.25,88.63,17.88,2.4663,10.0969,0.4082,10.4018
1,2,1,3,0,02.487,2487,1.9200,8.6100,0.3400,8.8280,0.0273,0.0185,-0.1036,-12.19,88.38,17.50,2.3943,9.9010,0.3992,10.1942
1,2,1,3,0,02.617,2617,2.1800,9.6900,0.3200,9.9373,0.0644,0.0185,0.0927,-12.13,88.19,17.25,2.3661,9.8732,0.3887,10.1602
1,2,1,3,0,02.747,2747,1.6600,9.2300,0.4100,9.3870,0.0338,0.0175,0.1058,-12.75,87.88,17.69,2.2730,9.7884,0.3915,10.0565
1,2,1,3,0,02.878,2878,2.3400,9.7800,0.3500,10.0621,-0.0153,0.0011,-0.3262,-12.25,87.88,17.13,2.2819,9.7873,0.3861,10.0572
1,2,1,3,0,03.008,3008,2.3700,10.3100,0.3400,10.5844,-0.0022,0.0000,0.0218,-11.44,87.88,16.31,2.2935,9.8562,0.3800,10.1266
1,2,1,3,0,03.139,3139,2.5500,9.7100,0.6100,10.0578,0.0000,-0.0098,-0.0131,-11.56,87.88,16.44,2.3273,9.8369,0.4103,10.1168
1,2,1,3,0,03.270,3270,2.4700,9.2700,0.7000,9.6189,-0.0502,-0.0295,-0.4592,-10.56,88.00,15.50,2.3461,9.7622,0.4485,10.0502
1,2,1,3,0,03.400,3400,1.3900,9.5200,0.0100,9.6209,-0.0055,-0.0142,0.5629,-9.06,88.31,14.31,2.2201,9.7303,0.3907,9.9880
1,2,1,3,0,03.573,3573,1.3500,10.2100,0.3000,10.3032,-0.0327,-0.0524,-0.1025,-10.06,88.56,15.69,2.1054,9.7935,0.3787,10.0244
1,2,1,3,0,03.704,3704,1.5200,9.7000,0.1800,9.8200,0.0000,-0.0480,-0.0600,-9.94,88.63,15.94,2.0283,9.7812,0.3526,9.9955
1,2,1,3,0,03.834,3834,1.3500,9.1300,0.3400,9.2355,0.0011,-0.0447,0.0371,-10.13,88.56,16.44,1.9389,9.6954,0.3509,9.8936
1,2,1,3,0,03.969,3969,2.1000,10.0400,0.1700,10.2587,-0.0164,-0.0349,0.0960,-10.81,88.63,17.44,1.9601,9.7408,0.3271,9.9414
1,2,1,3,0,04.100,4100,1.8800,9.5800,0.1400,9.7637,-0.0185,-0.0316,-0.0251,-11.00,88.63,17.88,1.9496,9.7196,0.3024,9.9178
1,2,1,3,0,04.232,4232,1.4900,9.6900,0.1900,9.8057,0.0196,-0.0207,0.0229,-10.38,88.56,17.50,1.8890,9.7157,0.2876,9.9018
1,2,1,3,0,04.363,4363,3.0600,10.5200,0.2900,10.9598,0.0262,-0.0065,0.2585,-12.50,88.44,19.63,2.0433,9.8217,0.2879,10.0361
1,2,1,3,0,04.494,4494,1.8100,8.4500,0.4300,8.6524,0.0229,-0.0076,-0.2629,-12.19,88.13,19.25,2.0126,9.6409,0.3066,9.8535
1,2,1,3,0,04.666,4666,2.4600,9.3700,0.5300,9.7020,0.0502,0.0175,0.1233,-11.44,88.06,18.44,2.0715,9.6052,0.3361,9.8318
1,2,1,3,0,04.797,4797,0.9200,8.9800,0.3200,9.0327,-0.0502,0.0196,-0.3512,-10.13,88.00,17.00,1.9198,9.5228,0.3340,9.7202
1,2,1,3,0,04.927,4927,2.1200,10.0200,0.3100,10.2465,0.0044,0.0491,0.5181,-10.19,88.25,16.81,1.9462,9.5884,0.3308,9.7895
1,2,1,3,0,05.058,5058,1.1200,9.5200,0.2600,9.5892,-0.0589,0.0349,-0.2891,-9.63,88.50,16.06,1.8373,9.5793,0.3215,9.7592
1,2,1,3,0,05.188,5188,2.2000,10.0200,0.1800,10.2603,-0.0262,0.0425,0.0840,-10.56,88.88,16.75,1.8851,9.6374,0.3028,9.8247
1,2,1,3,0,05.319,5319,1.7400,9.5100,0.2000,9.6699,-0.0065,0.0502,0.2280,-11.38,89.00,17.25,1.8660,9.6206,0.2893,9.8042
1,2,1,3,0,05.449,5449,3.0700,9.0900,0.3400,9.6004,0.0131,0.0469,0.2236,-13.63,89.06,19.13,2.0246,9.5507,0.2960,9.7674
1,2,1,3,0,05.580,5580,2.7600,9.1600,0.0500,9.5669,-0.0251,0.0305,-0.1494,-13.56,89.19,18.81,2.1215,9.4992,0.2635,9.7368
1,2,1,3,0,05.753,5753,2.5100,9.7800,-0.0100,10.0970,-0.0120,0.0175,0.0502,-13.06,89.19,18.13,2.1727,9.5362,0.2275,9.7832
1,2,1,3,0,05.888,5888,2.5100,9.5900,0.2900,9.9173,0.0469,-0.0022,-0.0251,-12.81,89.06,17.81,2.2172,9.5433,0.2357,9.8003
1,2,1,3,0,06.019,6019,2.8200,10.4000,0.1100,10.7761,0.0087,-0.0164,-0.1854,-12.31,88.94,17.38,2.2966,9.6562,0.2192,9.9280
1,2,1,3,0,06.150,6150,1.4400,9.4000,0.2700,9.5135,-0.0065,-0.0229,-0.3600,-10.75,88.75,15.94,2.1837,9.6224,0.2259,9.8697
1,2,1,3,0,06.280,6280,2.5400,10.4400,0.2700,10.7479,0.0207,-0.0131,0.1865,-10.38,88.81,15.75,2.2307,9.7302,0.2317,9.9853
1,2,1,3,0,06.410,6410,1.4700,8.4700,0.3500,8.6037,0.0196,-0.0295,-0.0785,-9.13,88.81,14.69,2.1304,9.5641,0.2473,9.8016
1,2,1,3,0,06.541,6541,2.3000,9.1600,0.2800,9.4485,-0.0644,-0.0371,0.0840,-9.69,88.94,15.50,2.1528,9.5109,0.2516,9.7547
1,2,1,3,0,06.671,6671,1.7100,10.6200,0.1100,10.7574,-0.0327,-0.0556,-0.2945,-8.50,89.13,14.69,2.0944,9.6570,0.2329,9.8843
1,2,1,3,0,06.844,6844,2.7400,10.2000,0.3500,10.5674,-0.0055,-0.0458,0.0851,-9.88,89.13,16.56,2.1795,9.7286,0.2484,9.9728
1,2,1,3,0,06.975,6975,1.3400,9.8900,0.2600,9.9838,-0.0185,-0.0447,-0.1974,-8.19,89.25,15.25,2.0689,9.7498,0.2499,9.9701
1,2,1,3,0,07.106,7106,1.3200,9.7000,-0.1300,9.7903,-0.0404,-0.0436,-0.1080,-8.38,89.31,15.75,1.9702,9.7433,0.1998,9.9425
1,2,1,3,0,07.236,7236,1.6000,10.0500,0.3200,10.1816,-0.0022,-0.0229,0.2367,-8.88,89.50,16.44,1.9214,9.7837,0.2157,9.9729
1,2,1,3,0,07.367,7367,1.5700,10.3000,0.0700,10.4192,-0.0458,-0.0033,0.0884,-9.44,89.75,17.13,1.8751,9.8517,0.1965,10.0305
1,2,1,3,0,07.497,7497,2.4500,11.0800,0.0500,11.3477,-0.0251,-0.0120,-0.3382,-10.44,89.94,18.19,1.9509,10.0136,0.1772,10.2034
1,2,1,3,0,07.630,7630,2.1900,10.9200,0.1600,11.1386,0.0502,0.0196,0.3142,-9.50,89.94,17.25,1.9824,10.1330,0.1749,10.3266
1,2,1,3,0,07.761,7761,1.2400,10.5100,0.1000,10.5834,0.0295,0.0153,-0.1963,-9.44,89.69,17.00,1.8845,10.1827,0.1650,10.3569
1,3,1,3,0,07.936,7936,1.6600,9.4300,0.0000,9.5750,0.1178,0.0316,-0.0447,-9.31,88.88,16.50,1.8550,10.0835,0.1433,10.2537
1,3,1,3,0,08.066,8066,1.3400,8.8300,0.2900,8.9358,0.0578,0.0382,-0.0447,-8.75,88.31,15.56,1.7871,9.9183,0.1626,10.0794
1,3,1,3,0,08.197,8197,1.5700,9.4700,0.3300,9.6049,0.0927,0.0415,0.0338,-8.81,87.69,15.19,1.7585,9.8593,0.1847,10.0166
1,3,1,3,0,08.327,8327,1.7200,10.3300,0.6200,10.4906,0.0731,0.0393,-0.0404,-8.44,87.13,14.44,1.7534,9.9213,0.2420,10.0779
1,3,1,3,0,08.458,8458,1.6000,9.2500,0.4600,9.3986,0.0164,0.0251,-0.1680,-8.50,86.81,14.19,1.7332,9.8328,0.2708,9.9881
1,3,1,3,0,08.588,8588,2.3000,9.4000,0.6000,9.6959,-0.0436,0.0371,0.1571,-9.38,86.94,14.88,1.8079,9.7758,0.3141,9.9465
1,3,1,3,0,08.718,8718,2.1200,9.5900,0.5600,9.8375,-0.0644,0.0164,-0.0502,-9.81,87.31,15.13,1.8490,9.7513,0.3465,9.9311
1,3,1,3,0,08.864,8864,1.7800,9.7000,0.4900,9.8741,-0.0556,0.0055,0.0916,-9.63,87.81,15.06,1.8399,9.7445,0.3654,9.9235
1,3,1,3,0,09.039,9039,1.7500,10.0400,0.2600,10.1947,-0.0316,-0.0033,0.0654,-10.13,88.31,15.63,1.8281,9.7835,0.3516,9.9590
1,3,1,3,0,09.170,9170,1.9200,11.1500,0.3100,11.3183,-0.0076,-0.0087,0.1538,-10.81,88.44,16.38,1.8402,9.9636,0.3461,10.1380
1,3,1,3,0,09.301,9301,2.0700,6.8900,0.2200,7.1976,0.0185,-0.0142,-0.2258,-11.38,88.13,16.88,1.8705,9.5585,0.3295,9.7454
1,3,1,3,0,09.431,9431,1.0500,11.3100,0.2800,11.3621,0.0196,-0.0065,-0.0556,-8.38,88.25,14.00,1.7624,9.7893,0.3229,9.9519
1,3,1,3,0,09.562,9562,2.1700,9.1600,0.4800,9.4258,0.0535,-0.0153,-0.3458,-9.81,87.88,15.44,1.8161,9.7064,0.3436,9.8808
1,3,1,3,0,09.692,9692,1.3400,9.8900,0.2600,9.9838,0.0382,0.0044,0.2127,-8.31,87.63,13.94,1.7533,9.7306,0.3326,9.8929
1,3,1,3,0,09.822,9822,1.7500,9.7000,0.4700,9.8678,0.0382,-0.0065,-0.0905,-9.13,87.31,14.69,1.7529,9.7266,0.3507,9.8895
1,3,1,3,0,09.953,9953,1.1300,9.2600,0.6800,9.3534,-0.0022,0.0022,0.0109,-8.69,87.19,14.19,1.6708,9.6651,0.3941,9.8164
1,3,1,3,0,10.126,10126,1.3400,9.3600,0.3900,9.4635,-0.0589,-0.0011,-0.1134,-7.88,87.50,13.50,1.6272,9.6249,0.3936,9.7694
1,3,1,3,0,10.256,10256,1.0100,9.5800,0.3900,9.6410,-0.0753,-0.0065,-0.2029,-6.38,87.94,12.00,1.5459,9.6190,0.3931,9.7503
1,3,1,3,0,10.386,10386,1.0800,8.9800,0.2900,9.0494,-0.0349,-0.0033,-0.0044,-5.75,88.31,11.44,1.4845,9.5348,0.3795,9.6571
1,3,1,3,0,10.516,10516,0.9100,9.5900,-0.0300,9.6331,-0.0480,-0.0098,0.1374,-5.81,88.69,11.56,1.4088,9.5420,0.3256,9.6510
1,3,1,3,0,10.646,10646,1.3300,9.9700,0.0400,10.0584,-0.0404,-0.0109,0.0404,-6.75,88.94,12.56,1.3984,9.5984,0.2879,9.7040
1,3,1,3,0,10.776,10776,1.8200,10.3600,0.4200,10.5270,-0.0393,-0.0262,0.0164,-7.50,88.94,13.44,1.4540,9.6988,0.3053,9.8119
1,3,1,3,0,10.907,10907,1.8300,9.8500,0.0200,10.0186,0.0109,-0.0382,-0.1538,-7.31,88.94,13.44,1.5035,9.7187,0.2677,9.8380
1,3,1,3,0,11.037,11037,1.9000,10.1500,0.1100,10.3269,-0.0251,-0.0305,-0.0709,-6.25,89.00,12.69,1.5558,9.7756,0.2469,9.9017
1,3,1,3,0,11.210,11210,0.6400,10.0200,0.2800,10.0443,0.0044,-0.0404,-0.2858,-3.69,89.00,10.50,1.4351,9.8078,0.2513,9.9154
1,3,1,3,0,11.341,11341,0.0400,10.0000,0.0000,10.0001,0.0033,-0.0240,0.0916,-2.94,88.94,10.00,1.2513,9.8331,0.2182,9.9148
1,3,1,3,0,11.472,11472,0.7900,9.6700,0.1600,9.7035,-0.0109,-0.0153,-0.2825,-3.00,88.88,10.19,1.1905,9.8116,0.2105,9.8858
1,3,1,3,0,11.602,11602,0.1800,10.7400,0.1100,10.7421,-0.0240,0.0229,0.1178,-1.44,89.00,8.56,1.0573,9.9339,0.1973,9.9920
1,3,1,3,0,11.733,11733,0.1500,10.4900,0.0700,10.4913,-0.0513,0.0240,-0.6665,-0.69,89.25,7.69,0.9378,10.0072,0.1805,10.0527
1,3,1,3,0,11.864,11864,1.1200,11.5700,-0.2000,11.6258,-0.0175,0.0578,0.2749,-1.00,89.56,7.69,0.9618,10.2132,0.1304,10.2592
1,3,1,3,0,12.000,12000,-0.4600,10.9500,0.0100,10.9597,0.0033,0.0676,0.2814,-0.38,89.69,6.63,0.7744,10.3102,0.1145,10.3399
1,4,1,3,0,12.130,12130,0.0000,10.0000,-0.0300,10.0000,0.0033,0.0654,-0.1516,-0.44,89.69,6.19,0.6724,10.2694,0.0955,10.2918
1,4,1,3,0,12.303,12303,-0.1400,10.4900,0.0600,10.4911,0.0000,0.0469,-0.0185,0.13,89.75,5.00,0.5653,10.2984,0.0908,10.3143
1,4,1,3,0,12.433,12433,0.4300,10.1100,0.2100,10.1213,0.0393,0.0207,0.1156,-0.06,89.56,5.00,0.5475,10.2736,0.1065,10.2887
1,4,1,3,0,12.563,12563,0.4100,9.6900,0.2100,9.7009,0.0447,-0.0185,-0.0229,-0.56,89.31,5.50,0.5294,10.1967,0.1201,10.2111
1,4,1,3,0,12.693,12693,0.0800,9.8800,0.0600,9.8805,0.0327,-0.0338,0.0065,-0.63,89.00,5.81,0.4702,10.1550,0.1122,10.1665
1,4,1,3,0,12.824,12824,0.2100,9.4300,0.1300,9.4332,0.0545,-0.0415,0.1833,-1.69,88.69,7.13,0.4359,10.0594,0.1146,10.0695
1,4,1,3,0,12.954,12954,0.6800,9.4800,0.1500,9.5055,0.0295,-0.0447,0.2651,-2.81,88.50,8.56,0.4680,9.9831,0.1192,9.9948
1,4,1,3,0,13.084,13084,0.7000,9.7200,0.2800,9.7492,0.0098,-0.0535,0.1494,-3.75,88.31,9.88,0.4986,9.9484,0.1404,9.9619
1,4,1,3,0,13.215,13215,0.7800,9.5100,0.3200,9.5473,0.0262,-0.0665,0.0425,-4.69,88.19,11.19,0.5357,9.8906,0.1641,9.9065
1,4,1,3,0,13.388,13388,0.8100,10.6900,0.4100,10.7285,0.0120,-0.0524,-0.0513,-5.19,88.13,12.31,0.5718,9.9960,0.1965,10.0142
1,4,1,3,0,13.518,13518,1.2900,7.1600,0.1000,7.2760,0.0044,-0.0360,0.1724,-6.69,87.88,14.06,0.6665,9.6223,0.1838,9.6471
1,4,1,3,0,13.648,13648,0.6200,10.5400,-0.1200,10.5589,-0.0633,-0.0196,0.0785,-5.31,88.19,13.00,0.6603,9.7432,0.1437,9.7666
1,4,1,3,0,13.778,13778,0.9400,8.9300,0.8200,9.0167,-0.0622,-0.0142,-0.4538,-5.75,88.44,13.44,0.6972,9.6360,0.2329,9.6640
1,4,1,3,0,13.908,13908,1.1700,10.1900,0.8600,10.2929,-0.0938,0.0153,0.3578,-4.81,89.19,12.56,0.7595,9.7090,0.3155,9.7438
1,4,1,3,0,14.038,14038,1.7500,10.5400,0.7900,10.7135,-0.0415,-0.0055,-0.4287,-5.81,89.63,13.56,0.8900,9.8185,0.3780,9.8660
1,4,1,3,0,14.169,14169,0.6900,9.7100,-0.5700,9.7512,0.0447,0.0109,-0.1004,-3.75,89.69,11.44,0.8637,9.8042,0.2531,9.8455
1,4,1,3,0,14.299,14299,0.7700,10.8000,-0.9500,10.8690,0.0349,0.0436,0.0415,-3.25,89.81,10.81,0.8513,9.9355,0.0946,9.9723
1,4,1,3,0,14.472,14472,0.6700,10.3900,0.3900,10.4189,0.0305,0.0796,0.2062,-3.94,89.44,10.81,0.8274,9.9954,0.1335,10.0304
1,4,1,3,0,14.603,14603,1.0700,9.8900,0.6400,9.9683,0.0404,0.0764,0.2487,-5.63,89.00,11.94,0.8594,9.9815,0.2002,10.0204
1,4,1,3,0,14.733,14733,1.4300,9.3600,0.3900,9.4766,0.0949,0.0676,0.2214,-7.19,88.44,12.88,0.9346,9.8996,0.2252,9.9461
1,4,1,3,0,14.863,14863,1.3400,9.4700,0.2400,9.5673,0.0545,0.0567,0.0731,-7.50,87.88,12.69,0.9880,9.8430,0.2272,9.8950
1,4,1,3,0,14.993,14993,0.9500,9.2400,0.6100,9.3087,0.0916,0.0458,-0.1811,-7.13,87.31,11.88,0.9830,9.7635,0.2776,9.8168
1,4,1,3,0,15.123,15123,1.1400,9.5000,0.5600,9.5845,0.0284,0.0622,-0.0033,-6.69,87.06,11.06,1.0037,9.7288,0.3148,9.7855
1,4,1,3,0,15.253,15253,1.6900,10.6200,0.1700,10.7550,-0.0284,0.0622,0.0633,-6.44,87.13,10.31,1.0941,9.8462,0.2958,9.9112
1,4,1,3,0,15.383,15383,0.3000,8.8400,0.7500,8.8768,-0.0316,0.0382,-0.3054,-5.44,87.25,9.00,0.9895,9.7136,0.3556,9.7704
1,4,1,3,0,15.556,15556,0.8900,9.6000,0.6600,9.6637,0.0011,0.0109,-0.2454,-5.63,87.38,8.88,0.9764,9.6987,0.3957,9.7557
1,4,1,3,0,15.687,15687,2.4500,9.9800,0.3500,10.2823,-0.0196,0.0109,0.1734,-6.63,87.44,9.81,1.1706,9.7357,0.3897,9.8136
1,4,1,3,0,15.817,15817,1.2700,9.6800,0.6700,9.7859,0.0087,-0.0087,-0.0905,-5.50,87.56,8.63,1.1837,9.7284,0.4266,9.8094
1,4,1,3,0,15.948,15948,0.3100,10.2200,0.4500,10.2346,-0.0371,-0.0218,-0.1385,-4.00,87.75,7.31,1.0685,9.7932,0.4297,9.8607
1,4,1,3,0,16.078,16078,0.6000,9.6100,0.2700,9.6325,-0.0371,-0.0316,-0.1265,-4.06,87.88,7.56,1.0068,9.7690,0.4087,9.8293
1,4,1,3,0,16.208,16208,0.2400,9.8800,0.0600,9.8831,-0.0633,-0.0316,0.0436,-4.25,88.25,8.00,0.9058,9.7837,0.3627,9.8322
1,4,1,3,0,16.339,16339,-0.0100,10.1400,0.2000,10.1420,-0.0654,-0.0338,-0.0633,-4.50,88.75,8.50,0.7851,9.8306,0.3413,9.8678
1,4,1,3,0,16.469,16469,1.3100,10.9000,0.3700,10.9847,-0.0676,-0.0207,0.1745,-5.88,89.06,10.00,0.8542,9.9715,0.3451,10.0140
1,4,1,3,0,16.642,16642,0.8000,12.2400,0.0200,12.2661,-0.0229,-0.0175,0.0720,-5.19,89.44,9.56,0.8471,10.2705,0.3022,10.3098
1,4,1,3,0,16.777,16777,0.4500,12.2600,0.0200,12.2683,0.0436,-0.0087,0.3076,-5.81,89.50,10.38,0.7948,10.5326,0.2650,10.5659
1,5,1,3,0,16.908,16908,1.6400,10.2200,0.0700,10.3510,0.0469,-0.0295,0.2673,-7.94,89.19,12.56,0.9062,10.4914,0.2393,10.5332
1,5,1,3,0,17.039,17039,1.2800,9.1600,0.1800,9.2508,0.0644,-0.0589,-0.0545,-6.63,88.81,11.63,0.9554,10.3160,0.2315,10.3627
1,5,1,3,0,17.169,17169,0.8700,9.0400,0.1900,9.0838,0.0600,-0.0731,-0.2825,-5.56,88.31,11.00,0.9442,10.1478,0.2260,10.1942
1,5,1,3,0,17.300,17300,0.5200,9.0500,0.3500,9.0717,0.0502,-0.0545,0.0545,-5.56,87.81,11.38,0.8883,10.0032,0.2424,10.0455
1,5,1,3,0,17.430,17430,1.3400,9.9200,0.5300,10.0241,0.0480,-0.0513,0.0851,-5.94,87.38,12.06,0.9478,9.9922,0.2803,10.0410
1,5,1,3,0,17.561,17561,1.0800,9.3900,0.4800,9.4641,0.0393,-0.0436,0.0578,-5.81,87.06,12.38,0.9652,9.9129,0.3066,9.9645
1,5,1,3,0,17.734,17734,1.0200,9.7900,0.5900,9.8607,-0.0098,-0.0316,0.0218,-6.25,87.00,13.13,0.9724,9.8967,0.3439,9.9503
1,5,1,3,0,17.864,17864,0.9900,9.7500,0.4800,9.8119,-0.0665,-0.0087,0.0055,-6.38,87.13,13.44,0.9747,9.8773,0.3619,9.9319
1,5,1,3,0,17.994,17994,1.3600,11.1700,0.5300,11.2650,-0.0753,0.0076,0.0295,-6.75,87.69,13.81,1.0255,10.0477,0.3840,10.1072
1,5,1,3,0,18.124,18124,0.2300,5.7600,0.3200,5.7735,-0.0458,0.0098,-0.1080,-7.25,87.94,14.31,0.9207,9.4827,0.3756,9.5347
1,5,1,3,0,18.254,18254,0.5200,12.1100,0.3900,12.1274,-0.0447,0.0175,-0.1920,-4.69,88.56,11.69,0.8679,9.8289,0.3775,9.8743
1,5,1,3,0,18.384,18384,0.3100,9.0200,0.5200,9.0403,-0.0087,0.0185,-0.6316,-5.81,88.56,12.56,0.7944,9.7223,0.3963,9.7627
1,5,1,3,0,18.514,18514,1.5800,9.8100,0.1700,9.9379,-0.0295,0.0611,0.5694,-5.44,88.81,11.94,0.8979,9.7339,0.3665,9.7820
1,5,1,3,0,18.645,18645,1.1800,9.8100,0.0400,9.8808,-0.0022,0.0502,0.0436,-5.50,88.88,11.69,0.9351,9.7439,0.3234,9.7940
1,5,1,3,0,18.818,18818,1.3600,9.6000,0.2000,9.6979,0.0338,0.0502,0.1680,-5.56,88.94,11.25,0.9911,9.7249,0.3072,9.7801
1,5,1,3,0,18.949,18949,1.1300,9.7800,0.1900,9.8469,0.0240,0.0425,0.0447,-5.69,88.81,11.13,1.0094,9.7322,0.2917,9.7887
1,5,1,3,0,19.080,19080,1.2900,9.2100,0.2100,9.3023,0.0262,0.0305,-0.0491,-5.94,88.63,11.06,1.0464,9.6634,0.2810,9.7239
1,5,1,3,0,19.211,19211,1.1000,8.7900,0.2700,8.8627,0.0185,0.0240,-0.0611,-5.63,88.44,10.50,1.0534,9.5483,0.2795,9.6103
1,5,1,3,0,19.344,19344,1.2600,9.9200,0.2800,10.0036,-0.0458,0.0229,-0.0022,-5.50,88.63,10.25,1.0806,9.5973,0.2796,9.6620
1,5,1,3,0,19.477,19477,0.8500,9.8600,0.2300,9.8992,-0.0382,0.0218,0.0425,-5.31,88.94,9.94,1.0503,9.6319,0.2730,9.6928
1,5,1,3,0,19.608,19608,1.0100,10.6200,0.3500,10.6737,-0.0578,0.0055,-0.1145,-5.38,89.31,9.94,1.0449,9.7621,0.2832,9.8219
1,5,1,3,0,19.739,19739,1.3600,9.9100,0.1800,10.0045,-0.0415,-0.0131,-0.3000,-4.94,89.63,9.50,1.0865,9.7816,0.2696,9.8454
1,5,1,3,0,19.912,19912,1.1100,10.1200,0.0100,10.1807,0.0327,-0.0175,0.0665,-4.19,89.69,8.88,1.0896,9.8262,0.2354,9.8892
1,5,1,3,0,20.042,20042,1.1300,9.3300,0.0700,9.3984,0.0654,-0.0305,0.0894,-4.50,89.50,9.38,1.0949,9.7608,0.2136,9.8243
1,5,1,3,0,20.173,20173,1.2300,9.8500,0.0200,9.9265,0.0131,-0.0382,-0.3567,-3.88,89.31,8.94,1.1127,9.7726,0.1881,9.8375
1,5,1,3,0,20.304,20304,-0.4100,9.4900,0.2400,9.5019,0.0905,-0.0185,-0.0295,-2.38,89.13,7.63,0.9120,9.7353,0.1949,9.7799
1,5,1,3,0,20.434,20434,1.1600,9.5600,0.3200,9.6354,-0.0142,-0.0120,-0.0022,-3.63,88.81,8.94,0.9447,9.7122,0.2114,9.7603
1,5,1,3,0,20.565,20565,0.1800,10.1100,0.3400,10.1173,0.0404,-0.0120,-0.2203,-2.44,88.56,7.88,0.8439,9.7646,0.2283,9.8037
1,5,1,3,0,20.695,20695,-0.0700,11.6400,0.1700,11.6415,0.0055,0.0033,0.1451,-2.50,88.56,7.94,0.7235,10.0118,0.2207,10.0403
1,5,1,3,0,20.829,20829,0.3500,11.5800,0.3800,11.5915,0.0175,0.0131,0.1865,-3.19,88.50,8.63,0.6743,10.2184,0.2417,10.2435
1,5,1,3,0,21.003,21003,0.9200,10.6000,0.1600,10.6411,-0.0120,0.0284,0.1909,-3.94,88.38,9.25,0.7067,10.2687,0.2309,10.2956
1,6,1,3,0,21.134,21134,0.9700,10.2400,0.2900,10.2899,-0.0644,0.0076,-0.2389,-3.75,88.63,8.88,0.7414,10.2649,0.2387,10.2944
1,6,1,3,0,21.264,21264,0.6700,8.9200,0.3000,8.9502,0.0044,0.0109,0.3949,-3.31,89.06,8.50,0.7320,10.0877,0.2468,10.1172
1,6,1,3,0,21.395,21395,1.1200,9.3200,0.0400,9.3871,-0.0404,-0.0262,-0.1222,-4.25,89.44,9.56,0.7831,9.9865,0.2195,10.0196
1,6,1,3,0,21.525,21525,0.7900,8.5200,0.3000,8.5618,-0.0185,-0.0404,-0.1396,-4.19,89.50,9.75,0.7840,9.7933,0.2301,9.8273
1,6,1,3,0,21.656,21656,0.5200,10.2900,-0.0600,10.3033,-0.0153,-0.0316,0.2694,-3.44,89.44,9.25,0.7492,9.8587,0.1919,9.8890
1,6,1,3,0,21.786,21786,-0.0200,12.2700,-0.1100,12.2705,-0.0545,-0.0360,-0.3545,-2.38,89.44,8.56,0.6479,10.1765,0.1521,10.1982
1,6,1,3,0,21.916,21916,1.8600,9.2000,0.3500,9.3927,0.0589,-0.0524,-0.1636,-3.75,89.13,10.13,0.8076,10.0478,0.1782,10.0818
1,6,1,3,0,22.089,22089,0.7000,8.8500,0.1700,8.8793,0.0447,-0.0327,0.0851,-3.81,88.75,10.63,0.7934,9.8900,0.1771,9.9233
1,6,1,3,0,22.220,22220,-0.5500,10.4600,0.2400,10.4772,0.0785,0.0044,0.4494,-2.50,88.63,9.44,0.6164,9.9651,0.1854,9.9858
1,6,1,3,0,22.350,22350,0.6900,9.7300,0.0400,9.7545,-0.0273,0.0055,-0.0916,-3.56,88.50,10.44,0.6261,9.9341,0.1662,9.9552
1,6,1,3,0,22.481,22481,-0.0500,9.6800,0.3300,9.6858,-0.0011,0.0240,0.3687,-4.19,88.50,10.94,0.5370,9.9006,0.1878,9.9169
1,6,1,3,0,22.612,22612,0.8600,8.6800,0.1700,8.7242,0.0262,0.0251,-0.0436,-5.63,88.38,12.25,0.5796,9.7398,0.1855,9.7588
1,6,1,3,0,22.742,22742,1.5100,10.4800,0.0700,10.5885,0.0033,0.0447,0.0578,-6.06,88.50,12.44,0.7022,9.8373,0.1703,9.8638
1,6,1,3,0,22.873,22873,0.8400,9.1500,0.5100,9.2026,-0.0076,0.0480,-0.0589,-6.38,88.44,12.31,0.7203,9.7467,0.2150,9.7757
1,6,1,3,0,23.003,23003,1.2000,10.1400,0.3600,10.2171,0.0142,0.0644,0.3011,-6.31,88.50,11.88,0.7835,9.7986,0.2341,9.8326
1,6,1,3,0,23.176,23176,1.0500,9.7200,0.2700,9.7803,-0.0065,0.0698,0.2683,-6.69,88.63,11.69,0.8186,9.7882,0.2389,9.8253
1,6,1,3,0,23.311,23311,2.0500,9.6000,0.4900,9.8287,-0.0033,0.0545,-0.0425,-8.00,88.69,12.50,0.9809,9.7634,0.2719,9.8163
1,6,1,3,0,23.442,23442,1.8400,8.7100,0.4400,8.9131,-0.0098,0.0425,0.0960,-8.63,88.69,12.75,1.0941,9.6246,0.2941,9.6911
1,6,1,3,0,23.572,23572,2.3200,9.7700,0.3200,10.0468,0.0185,0.0240,0.0164,-9.06,88.69,13.00,1.2557,9.6438,0.2975,9.7297
1,6,1,3,0,23.703,23703,0.9300,10.7200,-0.0900,10.7606,-0.0415,0.0120,0.1462,-8.13,88.88,12.00,1.2127,9.7856,0.2464,9.8635
1,6,1,3,0,23.833,23833,1.0500,9.3700,0.2700,9.4325,0.0033,-0.0142,-0.2269,-7.94,89.00,11.88,1.1913,9.7308,0.2495,9.8066
1,6,1,3,0,23.964,23964,1.4800,9.4800,0.3100,9.5998,-0.0164,0.0011,0.0589,-8.13,89.13,12.06,1.2293,9.6978,0.2575,9.7788
1,6,1,3,0,24.094,24094,0.2300,8.0000,-0.1700,8.0051,-0.0240,-0.0098,-0.0993,-6.75,89.13,10.75,1.0977,9.4740,0.2012,9.5395
1,6,1,3,0,24.267,24267,1.6200,10.1000,0.2800,10.2329,0.0033,-0.0087,0.1069,-6.50,89.38,10.50,1.1665,9.5565,0.2116,9.6298
1,6,1,3,0,24.397,24397,1.4300,10.4900,0.3100,10.5916,0.0316,-0.0076,0.1418,-6.56,89.38,10.69,1.2012,9.6795,0.2245,9.7564
1,6,1,3,0,24.527,24527,1.6500,9.5100,-0.0800,9.6524,0.0349,-0.0425,-0.1385,-6.19,89.19,10.44,1.2603,9.6572,0.1844,9.7408
1,6,1,3,0,24.657,24657,0.9200,10.2500,0.0500,10.2913,0.0142,-0.0469,-0.0535,-4.63,88.94,9.19,1.2155,9.7353,0.1667,9.8123
1,6,1,3,0,24.787,24787,1.1400,9.8800,0.5800,9.9624,0.0622,-0.0644,-0.2629,-4.38,88.63,9.31,1.2056,9.7544,0.2212,9.8311
1,6,1,3,0,24.917,24917,1.1300,9.9800,0.2300,10.0464,0.0033,-0.0491,0.3251,-4.50,88.31,9.88,1.1956,9.7841,0.2223,9.8594
1,6,1,3,0,25.048,25048,0.3000,9.9500,0.0900,9.9549,0.0033,-0.0578,-0.1080,-4.44,88.19,10.19,1.0776,9.8060,0.2049,9.8671
1,6,1,3,0,25.178,25178,0.6800,9.8100,0.4900,9.8457,0.0000,-0.0425,0.0404,-4.94,88.19,11.06,1.0252,9.8065,0.2425,9.8629
1,6,1,3,0,25.351,25351,1.1300,10.1400,0.4500,10.2127,-0.0098,-0.0284,0.2138,-5.81,88.19,12.31,1.0390,9.8504,0.2698,9.9088
1,6,1,3,0,25.482,25482,1.6000,11.6800,0.1500,11.7900,-0.0404,-0.0164,0.1604,-6.69,88.44,13.38,1.1129,10.0915,0.2540,10.1559
1,6,1,3,0,25.612,25612,1.0200,10.7900,0.5200,10.8506,-0.0098,-0.0011,0.0338,-7.13,88.63,13.94,1.1007,10.1836,0.2891,10.2470
1,6,1,3,0,25.743,25743,0.9800,10.7800,0.2600,10.8276,-0.0305,0.0055,0.0327,-7.06,88.75,13.88,1.0848,10.2622,0.2852,10.3233
1,6,1,3,0,25.874,25874,1.6100,10.5300,0.1100,10.6529,-0.0120,0.0098,0.1124,-8.00,88.88,14.81,1.1540,10.2975,0.2621,10.3652
1,7,1,3,0,26.004,26004,1.8300,9.5700,0.4100,9.7520,0.0382,-0.0022,0.0742,-9.06,88.88,15.81,1.2431,10.2016,0.2816,10.2809
1,7,1,3,0,26.135,26135,2.0500,9.2700,0.3900,9.5020,0.0644,-0.0087,0.1484,-9.44,88.63,16.19,1.3494,10.0788,0.2959,10.1731
1,7,1,3,0,26.265,26265,1.1900,10.0400,-0.0200,10.1103,0.0371,-0.0076,0.0774,-8.81,88.31,15.63,1.3284,10.0737,0.2543,10.1641
1,7,1,3,0,26.438,26438,1.4200,10.4800,0.4000,10.5833,0.0589,-0.0109,0.0142,-8.69,87.81,15.50,1.3405,10.1273,0.2735,10.2192
1,7,1,3,0,26.573,26573,0.8100,8.2800,0.7700,8.3551,0.0993,-0.0109,-0.2040,-8.13,87.19,14.88,1.2706,9.8838,0.3389,9.9709
1,7,1,3,0,26.704,26704,1.7600,9.8400,0.3300,10.0016,0.0360,0.0055,0.1102,-8.38,86.81,15.13,1.3351,9.8781,0.3377,9.9736
1,7,1,3,0,26.834,26834,1.5100,9.4700,0.8900,9.6308,0.0055,-0.0065,-0.2793,-8.19,86.56,14.88,1.3581,9.8243,0.4105,9.9262
1,7,1,3,0,26.964,26964,2.0600,9.3500,0.5900,9.5924,0.0393,-0.0011,0.0611,-9.31,86.31,15.94,1.4506,9.7618,0.4342,9.8785
1,7,1,3,0,27.095,27095,1.8800,11.2800,0.5900,11.4508,0.0295,0.0033,0.2858,-10.06,86.31,16.69,1.5072,9.9619,0.4547,10.0855
1,7,1,3,0,27.226,27226,1.3100,6.8900,0.5800,7.0374,-0.0469,0.0011,-0.4058,-11.44,86.00,18.00,1.4812,9.5571,0.4712,9.6826
1,7,1,3,0,27.356,27356,2.2700,10.5200,0.6500,10.7817,-0.0327,0.0425,0.3720,-9.69,86.44,16.13,1.5851,9.6840,0.4948,9.8253
1,7,1,3,0,27.529,27529,0.7800,9.0300,0.8200,9.1006,-0.0851,0.0284,-0.3000,-8.50,87.19,14.81,1.4790,9.5978,0.5376,9.7259
1,7,1,3,0,27.659,27659,1.9200,10.1300,0.3300,10.3156,-0.1265,0.0447,0.0654,-8.50,88.00,14.63,1.5372,9.6679,0.5103,9.8026
1,7,1,3,0,27.790,27790,1.5100,9.9900,0.4100,10.1118,-0.0469,0.0229,-0.1014,-8.50,88.56,14.44,1.5336,9.7104,0.4971,9.8433
1,7,1,3,0,27.920,27920,1.4600,10.2300,0.2700,10.3372,0.0153,0.0142,-0.0229,-8.25,88.69,14.06,1.5239,9.7788,0.4671,9.9079
1,7,1,3,0,28.050,28050,1.3600,9.7300,0.1500,9.8257,0.0207,0.0109,-0.0611,-8.13,88.50,13.81,1.5023,9.7724,0.4253,9.8963
1,7,1,3,0,28.180,28180,1.3300,9.2400,0.2400,9.3383,-0.0044,0.0305,0.1265,-8.38,88.44,13.94,1.4796,9.7022,0.4009,9.8226
1,7,1,3,0,28.310,28310,1.7000,9.0700,0.2900,9.2325,-0.0033,0.0327,-0.0654,-8.94,88.56,14.25,1.5086,9.6189,0.3863,9.7442
1,7,1,3,0,28.440,28440,1.0000,8.2900,0.3000,8.3555,-0.0295,0.0327,-0.3938,-8.25,88.75,13.31,1.4416,9.4438,0.3749,9.5606
1,7,1,3,0,28.613,28613,3.0600,9.8400,0.1500,10.3059,-0.0491,0.0338,-0.0349,-8.69,89.06,13.44,1.6549,9.4960,0.3453,9.6453
1,7,1,3,0,28.744,28744,2.2600,9.8100,0.1000,10.0675,-0.0065,0.0371,0.3971,-7.50,89.25,12.13,1.7346,9.5374,0.3130,9.6989
1,7,1,3,0,28.874,28874,0.8800,9.7000,0.4500,9.7502,0.0175,0.0098,-0.0556,-6.56,89.38,11.06,1.6220,9.5588,0.3310,9.7011
1,7,1,3,0,29.005,29005,0.9200,10.1700,-0.0400,10.2116,-0.0185,-0.0164,-0.2945,-6.06,89.38,10.56,1.5295,9.6394,0.2821,9.7640
1,7,1,3,0,29.136,29136,1.2500,9.7700,0.3200,9.8548,0.0382,-0.0196,-0.1222,-5.50,89.13,10.13,1.4927,9.6566,0.2871,9.7755
1,7,1,3,0,29.269,29269,0.9000,10.0800,0.1800,10.1217,0.0382,-0.0185,-0.0185,-5.25,88.94,9.94,1.4146,9.7124,0.2730,9.8186
1,7,1,3,0,29.400,29400,0.4800,9.9700,0.1600,9.9828,-0.0087,-0.0131,-0.0502,-5.00,88.81,9.88,1.2914,9.7463,0.2581,9.8349
1,7,1,3,0,29.534,29534,1.1600,9.9900,0.4500,10.0672,0.0098,-0.0055,0.1669,-5.81,88.75,10.69,1.2741,9.7784,0.2834,9.8652
1,7,1,3,0,29.706,29706,0.7500,9.9700,0.2700,10.0018,-0.0349,-0.0185,-0.3752,-6.06,88.81,11.00,1.2050,9.8037,0.2816,9.8815
1,7,1,3,0,29.836,29836,2.0200,10.6100,0.3500,10.8062,-0.0120,-0.0076,-0.0567,-5.94,89.00,11.00,1.3124,9.9099,0.2906,10.0007
1,7,1,3,0,29.966,29966,2.2500,11.5200,0.1100,11.7382,-0.0142,0.0022,0.2116,-5.88,89.19,10.94,1.4360,10.1221,0.2668,10.2269
1,7,1,3,0,30.096,30096,0.5500,10.8400,0.0800,10.8542,0.0011,0.0065,-0.0371,-5.25,89.19,10.25,1.3192,10.2167,0.2422,10.3044
1,7,1,3,0,30.226,30226,0.7400,11.1500,0.2600,11.1776,0.0240,0.0142,-0.0982,-5.00,89.19,10.00,1.2429,10.3397,0.2446,10.4170
1,8,1,3,0,30.357,30357,1.1300,9.3900,0.0000,9.4577,0.0262,0.0229,-0.0109,-4.88,89.00,9.75,1.2280,10.2145,0.2123,10.2903
1,8,1,3,0,30.488,30488,0.3700,8.3300,0.1700,8.3399,0.0502,0.0196,0.0087,-4.31,88.75,9.06,1.1150,9.9662,0.2068,10.0305
1,8,1,3,0,30.618,30618,0.7800,10.2400,-0.0200,10.2697,0.0109,0.0229,0.0229,-4.06,88.69,8.69,1.0708,10.0023,0.1769,10.0610
1,8,1,3,0,30.791,30791,0.9900,9.8000,0.5400,9.8647,-0.0011,0.0295,-0.0295,-4.19,88.56,8.50,1.0602,9.9756,0.2247,10.0343
1,8,1,3,0,30.921,30921,1.1400,8.6000,0.2400,8.6785,0.0076,0.0262,0.1473,-4.13,88.50,8.25,1.0707,9.7944,0.2267,9.8553
1,8,1,3,0,31.051,31051,0.4200,9.6500,0.0800,9.6595,-0.0382,0.0076,0.2302,-3.69,88.75,7.81,0.9849,9.7753,0.2074,9.8270
1,8,1,3,0,31.181,31181,0.1400,10.7600,0.4300,10.7695,-0.0535,-0.0011,-0.0011,-4.25,89.00,8.38,0.8736,9.9051,0.2367,9.9464
1,8,1,3,0,31.311,31311,1.6900,9.1100,0.4600,9.2768,0.0545,-0.0153,-0.0425,-5.56,89.00,9.69,0.9812,9.8003,0.2662,9.8529
1,8,1,3,0,31.441,31441,1.2700,9.9200,0.1100,10.0016,0.0022,-0.0240,0.0851,-6.13,88.94,10.44,1.0192,9.8161,0.2456,9.8719
1,8,1,3,0,31.572,31572,0.7700,10.3900,0.4200,10.4270,-0.0360,-0.0251,-0.0142,-6.63,88.81,11.06,0.9864,9.8917,0.2686,9.9444
1,8,1,3,0,31.702,31702,2.1200,9.6500,0.1300,9.8810,0.0305,-0.0196,0.2509,-8.00,88.50,12.56,1.1358,9.8599,0.2503,9.9282
1,8,1,3,0,31.875,31875,1.9800,10.2300,0.3300,10.4251,0.0240,-0.0131,0.2814,-8.25,88.13,13.00,1.2470,9.9086,0.2608,9.9902
1,8,1,3,0,32.006,32006,2.1700,9.6900,0.3200,9.9352,0.0153,-0.0033,0.1713,-8.44,88.00,13.19,1.3686,9.8798,0.2686,9.9778
1,8,1,3,0,32.136,32136,1.0600,10.0000,0.5400,10.0705,0.0022,0.0011,-0.1145,-7.75,88.00,12.50,1.3280,9.8957,0.3044,9.9890
1,8,1,3,0,32.267,32267,1.7200,8.3400,0.4500,8.5274,0.0338,0.0065,0.0065,-8.75,87.88,13.50,1.3796,9.6907,0.3236,9.7937
1,8,1,3,0,32.398,32398,0.8700,8.9000,0.1100,8.9431,-0.0567,-0.0011,-0.2105,-8.00,88.00,12.75,1.3125,9.5865,0.2954,9.6804
1,8,1,3,0,32.528,32528,1.5200,10.1700,0.4500,10.2928,-0.0131,0.0065,-0.0993,-8.38,88.25,13.06,1.3398,9.6634,0.3158,9.7609
1,8,1,3,0,32.659,32659,0.9400,9.2500,0.3400,9.3039,-0.0109,0.0240,0.1353,-7.81,88.38,12.44,1.2871,9.6089,0.3190,9.7000
1,8,1,3,0,32.789,32789,1.9100,10.2700,0.2300,10.4486,-0.0284,0.0305,0.0229,-8.69,88.56,13.13,1.3692,9.6960,0.3073,9.7970
1,8,1,3,0,32.962,32962,1.6300,9.4100,0.3700,9.5573,-0.0185,0.0338,-0.1276,-8.31,88.75,12.44,1.4036,9.6583,0.3155,9.7649
1,8,1,3,0,33.097,33097,1.0200,7.2900,0.0500,7.3612,0.0175,0.0185,-0.2280,-8.13,88.94,12.06,1.3530,9.3462,0.2805,9.4478
1,8,1,3,0,33.228,33228,1.4400,10.2400,0.5300,10.3543,-0.0142,0.0545,0.0033,-8.00,89.13,11.56,1.3645,9.4640,0.3134,9.5670
1,8,1,3,0,33.358,33358,2.5100,10.1300,0.2400,10.4391,-0.0087,0.0338,-0.0796,-8.50,89.06,11.75,1.5154,9.5518,0.3037,9.6760
1,8,1,3,0,33.489,33489,2.0400,9.5200,0.0700,9.7364,0.0469,0.0185,-0.1167,-6.81,88.88,9.88,1.5846,9.5476,0.2729,9.6820
1,8,1,3,0,33.619,33619,0.5300,9.6600,-0.0100,9.6745,0.0316,0.0360,0.1963,-5.81,88.75,8.69,1.4456,9.5624,0.2356,9.6739
1,8,1,3,0,33.750,33750,0.0200,10.6500,0.3200,10.6548,0.0436,0.0556,0.1167,-4.88,88.50,7.44,1.2577,9.7057,0.2468,9.7900
1,8,1,3,0,33.880,33880,2.2800,9.9200,0.4900,10.1904,0.0545,0.0218,-0.2847,-7.44,88.06,9.56,1.3925,9.7340,0.2788,9.8370
1,8,1,3,0,34.053,34053,2.4600,9.6000,0.5600,9.9260,0.0229,0.0087,-0.0993,-7.19,87.63,9.13,1.5331,9.7163,0.3159,9.8416
1,8,1,3,0,34.183,34183,1.4600,9.5600,0.6400,9.6920,0.0556,-0.0098,-0.0011,-5.56,87.44,7.56,1.5235,9.6957,0.3586,9.8212
1,8,1,3,0,34.313,34313,1.6100,9.7500,0.0600,9.8822,-0.0578,-0.0338,-0.0905,-5.19,87.50,7.38,1.5349,9.7029,0.3192,9.8287
1,8,1,3,0,34.443,34443,0.5500,10.2600,0.4600,10.2850,-0.0709,-0.0327,0.1102,-3.31,88.00,5.75,1.4051,9.7763,0.3378,9.8825
1,8,1,3,0,34.573,34573,0.0000,9.2900,0.6300,9.3113,-0.0131,-0.0513,-0.2193,-3.44,88.25,6.19,1.2199,9.7122,0.3763,9.7957
1,8,1,3,0,34.703,34703,0.8500,9.4400,0.0400,9.4783,-0.0785,-0.0382,0.1713,-4.31,88.63,7.38,1.1712,9.6763,0.3320,9.7526
1,8,1,3,0,34.834,34834,1.0800,12.4600,0.1400,12.5075,-0.1549,-0.0393,0.2476,-4.56,89.44,7.94,1.1592,10.0431,0.3067,10.1145
1,8,1,3,0,34.964,34964,0.4600,11.9500,0.1200,11.9595,-0.0425,-0.0589,-0.0305,-4.44,90.06,8.25,1.0670,10.2944,0.2821,10.3534
1,9,1,3,0,35.137,35137,0.8100,10.2400,-0.1300,10.2728,-0.0207,-0.0622,-0.2585,-4.06,90.25,8.50,1.0332,10.2872,0.2278,10.3415
1,9,1,3,0,35.268,35268,1.6400,9.1800,0.1300,9.3262,-0.0164,-0.0240,0.3327,-3.88,90.25,8.63,1.1131,10.1413,0.2149,10.2045
1,9,1,3,0,35.398,35398,0.8600,9.0200,0.0500,9.0610,-0.0109,-0.0207,0.4091,-3.44,90.31,8.44,1.0798,9.9936,0.1932,10.0536
1,9,1,3,0,35.529,35529,0.7200,10.7900,-0.2900,10.8179,-0.0731,-0.0458,-0.1473,-3.88,90.56,9.19,1.0324,10.0985,0.1295,10.1520
1,9,1,3,0,35.660,35660,1.0800,10.8000,-0.3300,10.8589,0.0240,-0.0305,-0.0458,-3.69,90.56,9.31,1.0386,10.1910,0.0689,10.2440
1,9,1,3,0,35.790,35790,0.1100,8.3400,0.2700,8.3451,0.0873,-0.0273,-0.0589,-2.69,90.25,8.50,0.9163,9.9471,0.0954,9.9896
1,9,1,3,0,35.921,35921,0.6400,9.7900,0.1900,9.8127,-0.0098,-0.0131,-0.0720,-2.63,90.00,8.56,0.8799,9.9264,0.1079,9.9659
1,9,1,3,0,36.051,36051,0.4500,10.3500,-0.2300,10.3623,0.0076,0.0022,-0.1898,-2.56,89.94,8.50,0.8232,9.9822,0.0634,10.0163
1,9,1,3,0,36.224,36224,0.5200,10.8200,0.2000,10.8343,-0.0404,0.0087,0.0884,-2.75,89.94,8.63,0.7833,10.0926,0.0814,10.1233
1,9,1,3,0,36.358,36358,0.6000,10.5000,-0.0200,10.5171,-0.0284,0.0327,0.0011,-3.00,90.13,8.75,0.7591,10.1463,0.0680,10.1749
1,9,1,3,0,36.490,36490,1.7900,9.8700,0.0100,10.0310,-0.0436,0.0284,-0.0055,-4.63,90.19,10.13,0.8950,10.1099,0.0604,10.1496
1,9,1,3,0,36.620,36620,1.0300,10.4700,0.0200,10.5206,-0.0022,0.0491,0.4374,-5.06,90.25,10.25,0.9128,10.1573,0.0551,10.1984
1,9,1,3,0,36.750,36750,-0.1800,6.5300,0.1200,6.5336,0.0327,0.0535,-0.0164,-4.63,90.00,9.56,0.7688,9.6793,0.0636,9.7100
1,9,1,3,0,36.881,36881,1.4200,10.6500,-0.2500,10.7472,0.0404,0.0644,0.1156,-3.88,90.06,8.31,0.8546,9.8072,0.0223,9.8444
1,9,1,3,0,37.012,37012,-0.2800,9.5000,0.2500,9.5074,0.0011,0.0393,-0.6654,-2.44,89.88,6.56,0.7051,9.7668,0.0523,9.7923
1,9,1,3,0,37.142,37142,1.2900,10.0600,0.1600,10.1436,0.0524,0.0535,0.0491,-3.25,89.56,6.94,0.7821,9.8054,0.0665,9.8368
1,9,1,3,0,37.315,37315,1.0100,9.9900,0.0800,10.0412,0.0731,0.0338,-0.0611,-3.13,89.06,6.38,0.8122,9.8297,0.0683,9.8635
1,9,1,3,0,37.445,37445,1.2600,9.9200,0.2600,10.0031,0.0502,0.0262,0.3556,-3.81,88.56,6.81,0.8712,9.8416,0.0935,9.8805
1,9,1,3,0,37.575,37575,1.1100,9.5300,0.2500,9.5977,0.0458,0.0065,0.1713,-5.63,88.19,8.50,0.9027,9.8006,0.1142,9.8427
1,9,1,3,0,37.705,37705,1.1900,9.3900,0.2400,9.4681,0.0000,-0.0185,-0.0938,-6.50,88.06,9.44,0.9405,9.7465,0.1307,9.7926
1,9,1,3,0,37.835,37835,1.0100,9.2100,0.2300,9.2681,-0.0207,-0.0316,-0.0764,-6.25,88.19,9.38,0.9497,9.6758,0.1438,9.7233
1,9,1,3,0,37.965,37965,0.9300,9.2200,0.2800,9.2710,-0.0513,-0.0360,0.0120,-6.50,88.44,9.88,0.9471,9.6157,0.1618,9.6636
1,9,1,3,0,38.096,38096,2.0200,9.7600,0.5900,9.9843,-0.0327,-0.0316,0.2989,-7.63,88.69,11.25,1.0885,9.6347,0.2182,9.6985
1,9,1,3,0,38.226,38226,1.1900,9.8500,0.2300,9.9243,-0.0458,-0.0524,-0.2149,-7.06,88.81,11.06,1.1018,9.6631,0.2197,9.7282
1,9,1,3,0,38.399,38399,1.1500,9.3300,0.3100,9.4057,-0.0305,-0.0600,-0.1407,-6.44,89.13,11.00,1.1082,9.6192,0.2316,9.6856
1,9,1,3,0,38.529,38529,0.8800,8.8000,0.0400,8.8440,-0.0218,-0.0578,0.1614,-6.19,89.25,11.25,1.0781,9.5112,0.2064,9.5744
1,9,1,3,0,38.659,38659,0.6500,10.5300,0.0500,10.5502,-0.0371,-0.0589,-0.1713,-5.88,89.50,11.31,1.0217,9.6455,0.1858,9.7012
1,9,1,3,0,38.789,38789,1.0600,10.6200,0.0800,10.6731,-0.0098,-0.0469,-0.1953,-5.94,89.63,11.75,1.0268,9.7739,0.1718,9.8292
1,9,1,3,0,38.919,38919,1.2500,10.2200,0.1200,10.2969,0.0153,-0.0284,0.0851,-5.69,89.56,11.75,1.0562,9.8327,0.1650,9.8906
1,9,1,3,0,39.049,39049,1.4700,10.6700,0.1500,10.7718,0.0600,-0.0164,-0.0447,-5.75,89.31,12.00,1.1107,9.9430,0.1630,10.0062
1,9,1,3,0,39.179,39179,-0.0200,9.9600,0.0000,9.9600,0.0393,0.0131,-0.1353,-4.94,89.00,11.19,0.9617,9.9453,0.1415,9.9927
1,9,1,3,0,39.310,39310,1.2000,10.1600,0.2000,10.2326,0.0153,0.0382,0.1200,-5.75,88.81,11.75,0.9931,9.9736,0.1493,10.0240
1,9,1,3,0,39.483,39483,1.1700,10.1800,0.5500,10.2618,0.0142,0.0491,0.0415,-6.00,88.69,11.56,1.0164,10.0008,0.2021,10.0543
1,9,1,3,0,39.613,39613,1.5700,10.4200,0.2400,10.5403,0.0295,0.0458,0.0556,-6.44,88.63,11.63,1.0894,10.0560,0.2071,10.1170
1,9,1,3,0,39.743,39743,1.6500,10.2700,0.2500,10.4047,-0.0098,0.0545,0.0796,-6.44,88.56,11.25,1.1632,10.0842,0.2127,10.1533
1,9,1,3,0,39.873,39873,1.1200,11.0200,0.1100,11.0773,-0.0218,0.0447,-0.2913,-5.75,88.75,10.25,1.1575,10.2075,0.1992,10.2749
1,10,1,3,0,40.003,40003,0.6200,10.1600,0.4200,10.1876,-0.0109,0.0633,0.1276,-4.63,88.94,8.75,1.0867,10.2013,0.2283,10.2615
1,10,1,3,0,40.133,40133,0.5900,9.1600,0.2500,9.1824,-0.0382,0.0447,-0.2913,-3.63,89.06,7.38,1.0213,10.0640,0.2311,10.1184
1,10,1,3,0,40.264,40264,0.8400,9.6500,-0.0500,9.6866,-0.0284,0.0382,0.0240,-3.63,89.25,7.06,0.9974,10.0095,0.1941,10.0609
1,10,1,3,0,40.394,40394,0.7100,9.9900,0.3500,10.0213,0.0284,0.0207,0.0622,-3.06,89.31,6.31,0.9595,10.0069,0.2146,10.0551
1,10,1,3,0,40.567,40567,0.3800,10.2700,0.2500,10.2801,0.0731,-0.0175,-0.2105,-2.19,89.06,5.38,0.8831,10.0416,0.2193,10.0827
1,10,1,3,0,40.698,40698,0.1600,10.0700,0.3200,10.0764,0.0218,-0.0131,-0.1385,-1.94,88.63,5.19,0.7878,10.0453,0.2326,10.0789
1,10,1,3,0,40.829,40829,0.8500,9.8700,0.2100,9.9088,0.0207,0.0000,-0.0524,-1.94,88.38,5.31,0.7960,10.0222,0.2296,10.0564
1,10,1,3,0,40.959,40959,1.2600,11.3600,0.1900,11.4312,0.0338,-0.0098,-0.1549,-2.00,88.25,5.38,0.8572,10.1985,0.2244,10.2369
1,10,1,3,0,41.090,41090,0.2900,8.8100,0.3900,8.8234,0.0164,-0.0251,-0.2225,-2.63,88.00,6.06,0.7824,10.0155,0.2462,10.0491
1,10,1,3,0,41.220,41220,2.0500,9.3700,0.4500,9.6022,0.0207,0.0022,0.7963,-3.69,87.81,7.25,0.9495,9.9305,0.2731,9.9795
1,10,1,3,0,41.351,41351,-0.3600,11.0600,0.2600,11.0689,0.0327,-0.0044,0.0480,-2.19,87.81,5.75,0.7769,10.0793,0.2713,10.1129
1,10,1,3,0,41.482,41482,-0.1100,10.0200,0.1100,10.0212,0.0022,-0.0033,-0.3098,-3.25,87.56,6.81,0.6600,10.0715,0.2501,10.0962
1,10,1,3,0,41.659,41659,0.5800,10.1300,0.3300,10.1520,0.0404,-0.0131,-0.1091,-5.31,87.50,8.88,0.6495,10.0792,0.2606,10.1035
1,10,1,3,0,41.789,41789,1.2900,9.8100,0.7300,9.9213,0.0022,-0.0011,0.0338,-6.75,87.38,10.31,0.7339,10.0437,0.3225,10.0757
1,10,1,3,0,41.920,41920,2.0100,8.0900,0.5900,8.3568,0.0153,0.0164,0.1789,-7.81,87.25,11.25,0.9021,9.7863,0.3577,9.8343
1,10,1,3,0,42.051,42051,-0.1100,9.9200,0.2900,9.9248,-0.0447,0.0175,-0.1691,-6.00,87.50,9.38,0.7687,9.8039,0.3488,9.8402
1,10,1,3,0,42.181,42181,1.5600,9.6500,0.4700,9.7866,-0.0458,0.0120,-0.1374,-6.88,87.69,10.13,0.8730,9.7836,0.3648,9.8293
1,10,1,3,0,42.311,42311,0.9300,9.7100,0.4900,9.7667,-0.0589,0.0273,0.3709,-7.00,88.13,10.13,0.8805,9.7739,0.3813,9.8209
1,10,1,3,0,42.442,42442,1.6300,9.7300,0.4700,9.8768,-0.0305,0.0000,0.0076,-8.25,88.50,11.38,0.9792,9.7681,0.3930,9.8250
1,10,1,3,0,42.572,42572,1.2000,9.8000,0.2500,9.8764,-0.0327,-0.0055,0.2542,-8.38,88.75,11.56,1.0083,9.7723,0.3741,9.8313
1,10,1,3,0,42.745,42745,1.8900,9.1700,0.3400,9.3689,0.0218,-0.0109,0.2563,-10.00,88.75,13.25,1.1245,9.6930,0.3696,9.7650
1,10,1,3,0,42.875,42875,0.9200,8.0300,0.1400,8.0837,0.0175,-0.0185,-0.1658,-9.38,88.69,12.75,1.0976,9.4738,0.3394,9.5432
1,10,1,3,0,43.005,43005,1.6200,10.2300,0.1600,10.3587,-0.0447,0.0011,0.1494,-8.63,88.75,12.06,1.1664,9.5735,0.3157,9.6494
1,10,1,3,0,43.135,43135,0.0700,9.9200,0.3700,9.9271,0.0218,-0.0218,-0.5061,-7.38,88.69,10.81,1.0219,9.6191,0.3229,9.6787
1,10,1,3,0,43.265,43265,1.8200,11.2800,-0.0600,11.4260,0.0600,-0.0076,-0.0262,-7.50,88.50,10.94,1.1271,9.8380,0.2724,9.9061
1,10,1,3,0,43.395,43395,1.2000,10.0700,0.4300,10.1504,0.0644,-0.0022,-0.2334,-6.19,88.19,9.63,1.1367,9.8686,0.2932,9.9381
1,10,1,3,0,43.526,43526,0.1200,9.9400,0.5200,9.9543,0.0120,0.0164,-0.3076,-5.50,87.88,8.88,1.0027,9.8780,0.3231,9.9340
1,10,1,3,0,43.656,43656,2.1000,10.3100,0.4900,10.5331,0.0851,0.0338,0.6000,-6.88,87.56,10.00,1.1473,9.9349,0.3451,10.0069
1,10,1,3,0,43.829,43829,1.7500,9.9800,0.1800,10.1339,-0.0142,0.0185,0.2411,-6.00,87.38,9.00,1.2267,9.9409,0.3233,10.0215
1,10,1,3,0,43.959,43959,-0.1100,10.2500,0.9600,10.2954,0.0164,0.0142,-0.0644,-4.38,87.31,7.31,1.0506,9.9816,0.4072,10.0450
1,10,1,3,0,44.089,44089,0.9300,9.9400,0.5500,9.9985,0.0251,-0.0044,-0.0993,-5.31,87.25,8.19,1.0347,9.9761,0.4260,10.0387
1,10,1,3,0,44.219,44219,0.3400,9.7000,0.6600,9.7284,0.0087,-0.0360,-0.7352,-3.94,87.19,6.94,0.9432,9.9397,0.4569,9.9948
1,10,1,3,0,44.349,44349,0.9900,10.3400,0.4800,10.3984,0.0044,-0.0044,0.3076,-3.06,87.13,6.13,0.9493,9.9925,0.4599,10.0480
1,10,1,3,0,44.480,44480,0.4200,10.2100,0.3000,10.2230,-0.0524,-0.0055,0.4069,-4.00,87.25,7.13,0.8796,10.0211,0.4388,10.0692
1,10,1,3,0,44.611,44611,1.4200,11.2400,0.7000,11.3509,-0.0033,-0.0327,-0.3480,-5.69,87.56,8.88,0.9508,10.1818,0.4733,10.2370
1,10,1,3,0,44.741,44741,0.1100,11.9200,0.3800,11.9266,0.0055,-0.0218,-0.1069,-4.38,87.63,7.81,0.8400,10.4108,0.4610,10.4548
1,10,1,3,0,44.914,44914,0.1300,10.0100,0.3700,10.0177,0.0087,-0.0098,0.0076,-4.56,87.31,8.13,0.7464,10.3580,0.4490,10.3946
1,10,1,3,0,45.045,45045,1.1800,10.1700,0.6500,10.2588,-0.0087,-0.0109,-0.0316,-4.50,87.31,8.06,0.8036,10.3332,0.4755,10.3753
1,10,1,3,0,45.175,45175,0.9900,10.2000,0.7000,10.2718,0.0022,-0.0305,-0.1931,-3.06,87.44,6.81,0.8281,10.3157,0.5051,10.3612
1,10,1,3,0,45.306,45306,-0.7700,9.2100,0.2600,9.2458,0.0098,-0.0567,-0.2400,-1.56,87.56,5.56,0.6175,10.1700,0.4728,10.1997
1,10,1,3,0,45.436,45436,0.8900,9.9500,0.6700,10.0122,-0.0622,-0.0469,0.0774,-2.44,87.69,6.81,0.6534,10.1410,0.4988,10.1742
1,10,1,3,0,45.569,45569,0.4800,10.3800,0.5600,10.4062,-0.0065,-0.0458,-0.0153,-2.50,87.75,7.31,0.6306,10.1725,0.5068,10.2046
1,10,1,3,0,45.700,45700,0.3900,9.0000,0.5200,9.0234,0.0262,-0.0556,0.2825,-3.13,87.69,8.31,0.5989,10.0180,0.5086,10.0487
