participant,rep,equipment_code,exercise_code,quality_code,timestamp,timestamp_ms,accelX,accelY,accelZ,accelMag,gyroX,gyroY,gyroZ,roll,pitch,yaw,filteredX,filteredY,filteredZ,filteredMag
1,1,1,3,0,00.000,0,-0.8900,9.6400,0.0700,9.6813,-0.0600,0.0022,0.1745,6.50,90.38,282.38,-0.9237,9.6464,0.0696,9.6908
1,1,1,3,0,00.173,173,-0.6500,10.0400,-0.2300,10.0636,-0.0393,-0.0218,0.1931,4.69,90.81,284.25,-0.8876,9.6983,0.0302,9.7389
1,1,1,3,0,00.303,303,-0.4100,9.7300,-0.3300,9.7442,-0.0360,-0.0349,0.1080,3.38,91.00,285.75,-0.8247,9.7025,-0.0173,9.7375
1,1,1,3,0,00.433,433,-0.5100,9.7900,-0.1100,9.8039,-0.0284,-0.0556,-0.1222,3.38,91.31,286.06,-0.7832,9.7140,-0.0295,9.7456
1,1,1,3,0,00.563,563,-0.8100,9.5700,0.0600,9.6044,-0.0207,-0.0709,-0.2400,4.81,91.38,285.13,-0.7867,9.6950,-0.0177,9.7269
1,1,1,3,0,00.693,693,-1.3100,9.5700,-0.3200,9.6645,-0.0055,-0.0709,-0.1909,6.50,91.50,283.94,-0.8557,9.6786,-0.0576,9.7165
1,1,1,3,0,00.823,823,-1.3200,10.0700,-0.3000,10.1606,0.0196,-0.0665,0.1069,6.88,91.56,284.06,-0.9169,9.7301,-0.0895,9.7737
1,1,1,3,0,00.953,953,-0.6800,9.2400,-0.4200,9.2745,0.0295,-0.0654,0.0796,5.81,91.50,285.63,-0.8857,9.6656,-0.1331,9.7070
1,1,1,3,0,01.083,1083,-0.5900,8.6000,-0.1900,8.6223,0.0087,-0.0687,-0.1462,6.00,91.38,285.94,-0.8467,9.5251,-0.1406,9.5637
1,1,1,3,0,01.256,1256,-1.0300,9.2500,-0.3600,9.3141,0.0371,-0.0436,0.0578,7.31,91.13,285.25,-0.8709,9.4889,-0.1695,9.5303
1,1,1,3,0,01.387,1387,-0.9000,9.4700,-0.0400,9.5128,0.0644,-0.0316,0.4189,5.38,90.75,287.50,-0.8747,9.4864,-0.1524,9.5279
1,1,1,3,0,01.518,1518,-0.3700,10.7900,-0.1600,10.7975,0.0654,-0.0240,0.2760,2.69,90.38,290.44,-0.8082,9.6582,-0.1534,9.6931
1,1,1,3,0,01.651,1651,-0.5700,9.8200,0.1500,9.8377,0.0589,-0.0262,-0.1582,2.56,89.94,290.75,-0.7768,9.6795,-0.1134,9.7113
1,1,1,3,0,01.782,1782,-0.6600,9.1600,0.1100,9.1844,0.0829,-0.0087,0.1364,2.75,89.44,290.69,-0.7614,9.6110,-0.0840,9.6415
1,1,1,3,0,01.915,1915,0.0600,9.4300,0.2100,9.4325,0.0545,0.0000,0.1004,1.25,88.94,292.19,-0.6532,9.5872,-0.0452,9.6095
1,1,1,3,0,02.045,2045,-0.2700,9.7900,0.0900,9.7941,0.0316,0.0000,-0.3022,1.94,88.69,291.50,-0.6027,9.6139,-0.0274,9.6328
1,1,1,3,0,02.176,2176,-1.2700,9.7400,0.2400,9.8254,0.0044,0.0120,-0.3883,4.81,88.63,288.63,-0.6906,9.6305,0.0078,9.6553
1,1,1,3,0,02.349,2349,-1.1900,10.0600,0.1800,10.1317,-0.0731,0.0513,0.2923,5.25,88.88,287.88,-0.7564,9.6871,0.0305,9.7167
1,1,1,3,0,02.480,2480,-0.6500,9.3900,0.1800,9.4142,-0.1014,0.0491,0.1669,3.13,89.44,289.50,-0.7424,9.6480,0.0502,9.6766
1,1,1,3,0,02.610,2610,-0.4100,9.8000,-0.0300,9.8086,-0.1527,0.0524,-0.1985,3.31,90.38,288.94,-0.6986,9.6680,0.0396,9.6933
1,1,1,3,0,02.745,2745,-0.6500,10.5700,-0.2400,10.5927,-0.1353,0.0545,0.0033,4.44,91.44,287.31,-0.6922,9.7869,0.0028,9.8113
1,1,1,3,0,02.875,2875,-0.3400,10.0500,-0.4500,10.0658,-0.0818,0.0567,0.1494,3.88,92.19,287.44,-0.6458,9.8215,-0.0569,9.8429
1,1,1,3,0,03.007,3007,-0.3400,10.0300,-0.5900,10.0531,-0.0153,0.0513,0.0600,3.00,92.38,287.81,-0.6055,9.8490,-0.1271,9.8684
1,1,1,3,0,03.138,3138,-0.0800,10.0600,-0.3600,10.0668,0.0884,0.0349,-0.0774,3.13,92.06,287.38,-0.5362,9.8768,-0.1578,9.8926
1,1,1,3,0,03.269,3269,-0.6200,11.0300,-0.0600,11.0476,0.1407,0.0185,0.0011,3.63,91.31,286.75,-0.5473,10.0288,-0.1449,10.0447
1,1,1,3,0,03.441,3441,0.1100,10.8600,-0.1400,10.8615,0.0742,-0.0164,0.1025,2.81,90.19,287.69,-0.4607,10.1383,-0.1443,10.1498
1,1,1,3,0,03.572,3572,0.2200,10.3800,0.2100,10.3845,0.0349,-0.0305,0.2454,1.44,89.81,289.25,-0.3710,10.1702,-0.0976,10.1774
1,1,1,3,0,03.702,3702,0.1200,10.3400,-0.2200,10.3430,0.0218,-0.0436,0.0382,0.75,89.69,290.25,-0.3063,10.1925,-0.1137,10.1978
1,2,1,3,0,03.833,3833,-0.2600,9.5600,0.0300,9.5636,0.0284,-0.0556,0.0164,0.81,89.56,290.50,-0.3002,10.1092,-0.0948,10.1141
1,2,1,3,0,03.963,3963,-0.0200,9.0400,0.1300,9.0410,-0.0033,-0.0491,0.1025,0.06,89.44,291.69,-0.2633,9.9683,-0.0652,9.9720
1,2,1,3,0,04.094,4094,0.3000,8.8700,0.1400,8.8762,-0.0458,-0.0349,-0.0196,-0.38,89.63,292.44,-0.1890,9.8236,-0.0381,9.8255
1,2,1,3,0,04.225,4225,-0.0800,9.3900,0.1000,9.3909,-0.0938,-0.0207,-0.2029,0.50,90.19,291.75,-0.1747,9.7664,-0.0199,9.7680
1,2,1,3,0,04.360,4360,-0.4000,9.5300,0.0300,9.5384,-0.0502,0.0022,-0.0120,1.25,90.63,291.06,-0.2044,9.7353,-0.0133,9.7374
1,2,1,3,0,04.533,4533,-0.1900,10.6100,0.0100,10.6117,0.0153,0.0240,-0.0524,1.06,90.69,291.13,-0.2025,9.8505,-0.0103,9.8526
1,2,1,3,0,04.663,4663,-0.7000,7.5000,0.0000,7.5326,0.1167,0.0251,-0.3109,2.50,90.25,289.50,-0.2680,9.5408,-0.0089,9.5446
1,2,1,3,0,04.793,4793,-1.5900,10.7900,-0.7200,10.9303,0.0600,0.0295,0.0371,2.63,89.81,289.13,-0.4422,9.7054,-0.1026,9.7160
1,2,1,3,0,04.923,4923,-0.2200,8.5500,0.0300,8.5529,0.0055,0.0513,0.0764,1.25,89.56,290.13,-0.4129,9.5532,-0.0851,9.5625
1,2,1,3,0,05.053,5053,-0.2000,9.8100,0.1500,9.8132,-0.0622,0.0567,-0.0295,0.88,89.75,290.06,-0.3849,9.5870,-0.0542,9.5949
1,2,1,3,0,05.183,5183,0.3000,9.9200,0.0200,9.9246,-0.0360,0.0480,-0.2269,1.94,90.00,288.63,-0.2946,9.6309,-0.0444,9.6355
1,2,1,3,0,05.313,5313,-0.8100,9.6300,-0.0700,9.6643,-0.0513,0.0535,-0.0480,3.13,90.31,287.13,-0.3625,9.6308,-0.0478,9.6377
1,2,1,3,0,05.443,5443,-0.7600,9.8600,-0.1500,9.8904,-0.0207,0.0524,0.0818,2.81,90.50,287.00,-0.4149,9.6610,-0.0612,9.6701
1,2,1,3,0,05.616,5616,-0.3100,9.3100,0.0100,9.3152,-0.0262,0.0480,0.0229,1.88,90.69,287.44,-0.4011,9.6147,-0.0518,9.6232
1,2,1,3,0,05.746,5746,-0.4900,9.6000,-0.2400,9.6155,-0.0415,0.0425,0.0000,1.94,90.88,287.00,-0.4128,9.6128,-0.0766,9.6220
1,2,1,3,0,05.877,5877,-0.2700,8.9400,-0.1600,8.9455,-0.0120,0.0469,0.1156,1.50,91.06,287.13,-0.3940,9.5241,-0.0876,9.5327
1,2,1,3,0,06.007,6007,0.2000,10.2900,-0.4300,10.3009,-0.0447,0.0327,0.1625,0.25,91.25,288.13,-0.3157,9.6251,-0.1327,9.6311
1,2,1,3,0,06.138,6138,0.7000,10.1100,-0.4700,10.1451,-0.0131,0.0175,-0.0764,-0.06,91.44,288.31,-0.1819,9.6890,-0.1772,9.6923
1,2,1,3,0,06.268,6268,0.0000,9.8700,-0.2200,9.8725,-0.0164,0.0098,-0.2171,0.94,91.50,287.13,-0.1579,9.7128,-0.1828,9.7158
1,2,1,3,0,06.399,6399,-0.3700,9.4900,0.0000,9.4972,0.0491,0.0076,-0.0698,2.00,91.38,286.06,-0.1859,9.6835,-0.1587,9.6865
1,2,1,3,0,06.530,6530,-0.7400,9.8500,-0.0900,9.8782,0.0415,-0.0022,-0.0175,2.13,91.00,286.00,-0.2589,9.7054,-0.1497,9.7100
1,2,1,3,0,06.706,6706,-0.3500,9.8100,-0.1000,9.8168,0.0556,-0.0164,0.0742,1.56,90.44,286.56,-0.2709,9.7192,-0.1431,9.7240
1,2,1,3,0,06.836,6836,0.0800,9.5900,-0.0200,9.5904,0.0371,-0.0295,0.0044,1.19,90.13,287.13,-0.2246,9.7022,-0.1269,9.7056
1,2,1,3,0,06.967,6967,-0.1400,10.0100,-0.1400,10.0120,0.0109,-0.0415,-0.1647,1.69,89.94,286.94,-0.2135,9.7427,-0.1286,9.7459
1,2,1,3,0,07.097,7097,-0.6000,9.6900,-0.1400,9.7096,0.0000,-0.0513,-0.0153,2.63,89.94,286.38,-0.2644,9.7358,-0.1301,9.7402
1,2,1,3,0,07.228,7228,-0.5600,10.0200,0.0300,10.0357,-0.0098,-0.0491,0.1276,1.94,89.94,287.44,-0.3034,9.7732,-0.1090,9.7785
1,2,1,3,0,07.358,7358,-0.1100,9.7900,0.2200,9.7931,0.0087,-0.0567,0.0491,1.00,89.94,288.75,-0.2779,9.7754,-0.0657,9.7796
1,2,1,3,0,07.488,7488,-0.5600,11.0300,0.3900,11.0511,0.0218,-0.0665,-0.2280,1.88,89.94,288.38,-0.3151,9.9408,-0.0056,9.9458
1,2,1,3,0,07.618,7618,-0.8200,12.1600,-0.0100,12.1876,0.0218,-0.0458,0.0022,3.31,89.75,287.38,-0.3816,10.2332,-0.0062,10.2403
1,2,1,3,0,07.791,7791,0.4800,11.1400,0.1000,11.1508,0.0044,-0.0447,0.2116,1.56,89.75,289.38,-0.2681,10.3527,0.0078,10.3562
1,3,1,3,0,07.921,7921,-0.2100,9.7500,-0.0100,9.7523,-0.0316,-0.0535,-0.1811,1.50,89.81,289.81,-0.2604,10.2733,0.0054,10.2766
1,3,1,3,0,08.052,8052,-1.0000,9.4000,-0.0100,9.4530,-0.0524,-0.0371,0.0131,2.44,90.13,289.19,-0.3579,10.1582,0.0034,10.1645
1,3,1,3,0,08.182,8182,-0.5000,9.3200,0.0200,9.3334,-0.0338,0.0033,0.3447,1.31,90.44,290.44,-0.3766,10.0477,0.0056,10.0548
1,3,1,3,0,08.312,8312,-0.1400,9.5800,-0.2100,9.5833,-0.0185,-0.0011,-0.2094,1.00,90.69,290.69,-0.3454,9.9861,-0.0228,9.9921
1,3,1,3,0,08.443,8443,-0.9000,9.6800,-0.4900,9.7341,-0.0022,-0.0011,-0.3927,4.00,90.75,287.69,-0.4185,9.9458,-0.0844,9.9549
1,3,1,3,0,08.573,8573,-0.7800,10.5900,-0.2700,10.6221,0.0229,0.0284,0.0633,5.25,90.69,286.44,-0.4661,10.0307,-0.1088,10.0421
1,3,1,3,0,08.705,8705,-0.4600,9.0500,-0.1100,9.0624,0.0545,0.0305,-0.0022,4.63,90.31,286.88,-0.4653,9.9014,-0.1090,9.9130
1,3,1,3,0,08.881,8881,-0.1000,9.0700,0.1200,9.0713,-0.0153,0.0316,-0.0033,5.38,89.81,285.88,-0.4172,9.7919,-0.0788,9.8011
1,3,1,3,0,09.011,9011,-0.1700,9.7100,-0.0500,9.7116,0.0491,0.0404,0.1451,4.88,89.56,286.19,-0.3846,9.7811,-0.0750,9.7889
1,3,1,3,0,09.142,9142,-0.6600,9.3000,0.2500,9.3267,0.0098,0.0207,-0.2945,6.06,89.50,284.75,-0.4209,9.7177,-0.0322,9.7269
1,3,1,3,0,09.272,9272,-1.7200,9.6700,-0.0900,9.8222,0.0098,0.0349,-0.0175,8.13,89.50,282.56,-0.5921,9.7114,-0.0398,9.7295
1,3,1,3,0,09.402,9402,-2.0100,9.6400,0.0000,9.8473,-0.0120,0.0447,0.2596,6.63,89.38,283.75,-0.7789,9.7020,-0.0346,9.7333
1,3,1,3,0,09.533,9533,-1.1400,9.2300,0.1800,9.3019,-0.0098,0.0338,-0.1124,5.88,89.44,284.19,-0.8265,9.6398,-0.0063,9.6752
1,3,1,3,0,09.663,9663,-1.3700,8.9600,0.0600,9.0643,-0.0295,0.0284,-0.2662,7.56,89.56,282.25,-0.8981,9.5502,0.0024,9.5924
1,3,1,3,0,09.793,9793,-1.5100,9.3000,-0.3500,9.4283,-0.0753,0.0327,0.1113,8.50,89.81,281.13,-0.9788,9.5172,-0.0440,9.5675
1,3,1,3,0,09.966,9966,-0.2600,9.1100,0.0200,9.1137,-0.0665,0.0371,0.4647,4.75,90.13,284.50,-0.8840,9.4636,-0.0356,9.5049
1,3,1,3,0,10.097,10097,0.0700,9.9400,-0.5200,9.9538,-0.0251,0.0175,0.0818,2.38,90.25,286.63,-0.7583,9.5264,-0.0994,9.5570
1,3,1,3,0,10.227,10227,-0.4100,8.8300,0.0300,8.8396,-0.0229,-0.0044,-0.5138,4.19,90.44,284.75,-0.7124,9.4346,-0.0823,9.4618
1,3,1,3,0,10.363,10363,-1.9900,10.8100,-0.3000,10.9957,-0.0284,0.0087,-0.0240,6.38,90.56,282.56,-0.8808,9.6158,-0.1110,9.6567
1,3,1,3,0,10.493,10493,-0.5300,9.8100,-0.2700,9.8280,0.0229,0.0033,0.4265,4.25,90.44,284.63,-0.8346,9.6414,-0.1320,9.6784
1,3,1,3,0,10.625,10625,-0.0600,9.6600,-0.1300,9.6611,0.0131,-0.0218,-0.0098,1.94,90.31,287.00,-0.7325,9.6439,-0.1317,9.6725
1,3,1,3,0,10.755,10755,-0.7000,9.9200,-0.0700,9.9449,-0.0022,-0.0535,-0.5083,3.81,90.31,285.38,-0.7282,9.6803,-0.1236,9.7084
1,3,1,3,0,10.886,10886,-1.0500,9.9000,-0.1200,9.9562,0.0316,-0.0371,0.0829,5.44,90.25,284.06,-0.7706,9.7092,-0.1231,9.7405
1,3,1,3,0,11.059,11059,0.0800,9.6700,0.0300,9.6704,0.0284,-0.0480,0.3338,2.38,90.00,287.63,-0.6585,9.7040,-0.1029,9.7269
1,3,1,3,0,11.190,11190,0.3900,9.8600,0.2200,9.8702,0.0425,-0.0753,-0.1931,1.69,89.81,288.69,-0.5204,9.7246,-0.0604,9.7387
1,3,1,3,0,11.323,11323,-1.1100,9.9100,0.3200,9.9771,0.0513,-0.0731,-0.3785,4.56,89.50,286.38,-0.5981,9.7490,-0.0103,9.7674
1,3,1,3,0,11.454,11454,-0.8800,10.8800,0.2400,10.9182,0.0502,-0.0458,0.1222,5.19,89.25,286.25,-0.6352,9.8981,0.0227,9.9185
1,3,1,3,0,11.587,11587,-0.6000,11.7900,0.2400,11.8077,0.0207,-0.0229,0.1942,3.63,89.00,288.06,-0.6306,10.1474,0.0514,10.1671
1,3,1,3,0,11.717,11717,0.0400,10.9100,0.0500,10.9102,0.0055,-0.0207,-0.0142,2.81,88.94,289.06,-0.5422,10.2479,0.0512,10.2623
1,4,1,3,0,11.848,11848,-0.6800,9.9000,0.2200,9.9258,-0.0382,-0.0240,-0.2193,4.06,89.06,288.00,-0.5604,10.2020,0.0734,10.2177
1,4,1,3,0,11.978,11978,-1.1900,10.1900,0.1600,10.2605,-0.0742,0.0044,0.0513,4.63,89.50,287.50,-0.6433,10.2004,0.0848,10.2211
1,4,1,3,0,12.151,12151,-0.7500,9.8400,-0.1700,9.8700,-0.0960,0.0436,0.1549,3.19,90.31,288.63,-0.6574,10.1529,0.0513,10.1743
1,4,1,3,0,12.281,12281,-0.3900,9.7400,-0.0100,9.7478,-0.0764,0.0480,-0.1364,2.94,90.81,288.50,-0.6222,10.0985,0.0432,10.1178
1,4,1,3,0,12.411,12411,-0.8600,9.3900,-0.2700,9.4332,-0.0600,0.0447,-0.3774,5.13,91.25,285.88,-0.6535,10.0052,0.0019,10.0265
1,4,1,3,0,12.541,12541,-1.0600,9.4200,-0.3600,9.4863,-0.0382,0.0611,-0.0676,6.56,91.56,284.06,-0.7071,9.9281,-0.0458,9.9533
1,4,1,3,0,12.671,12671,-0.8300,9.9500,-0.1200,9.9853,-0.0044,0.0567,0.0044,6.44,91.69,283.69,-0.7233,9.9309,-0.0556,9.9574
1,4,1,3,0,12.801,12801,-1.1300,7.9400,-0.2200,8.0230,0.0818,0.0567,-0.1036,7.13,91.44,282.63,-0.7769,9.6686,-0.0772,9.7001
1,4,1,3,0,12.931,12931,-0.3200,8.4800,-0.3100,8.4917,-0.0120,0.0796,0.2116,6.44,91.00,282.88,-0.7167,9.5120,-0.1079,9.5395
1,4,1,3,0,13.061,13061,-0.9800,11.1200,-0.4800,11.1734,0.0785,0.0502,0.0404,5.50,90.63,283.44,-0.7514,9.7239,-0.1569,9.7541
1,4,1,3,0,13.234,13234,-1.0400,9.1700,0.0900,9.2292,0.0382,0.0371,-0.0993,5.94,89.88,282.69,-0.7894,9.6509,-0.1244,9.6839
1,4,1,3,0,13.368,13368,-1.3000,9.8000,0.0100,9.8859,0.0502,0.0305,-0.1658,6.63,89.50,281.81,-0.8567,9.6705,-0.1067,9.7090
1,4,1,3,0,13.499,13499,-0.8200,9.4400,0.1100,9.4762,0.0273,0.0262,-0.0175,7.38,89.19,280.88,-0.8518,9.6402,-0.0781,9.6780
1,4,1,3,0,13.632,13632,-1.1000,9.5100,0.1500,9.5746,0.0011,0.0098,-0.0371,7.56,89.06,280.63,-0.8845,9.6230,-0.0481,9.6637
1,4,1,3,0,13.762,13762,-1.3800,9.4500,0.1500,9.5514,-0.0371,-0.0207,-0.1702,8.69,89.31,279.50,-0.9498,9.6002,-0.0220,9.6471
1,4,1,3,0,13.893,13893,-1.5100,9.4700,0.1900,9.5915,-0.0207,-0.0295,-0.0033,9.19,89.56,279.19,-1.0237,9.5830,0.0060,9.6376
1,4,1,3,0,14.023,14023,-1.1400,9.7300,-0.0300,9.7966,-0.0207,-0.0415,-0.0742,9.88,89.88,278.69,-1.0390,9.6024,0.0012,9.6585
1,4,1,3,0,14.153,14153,-1.8100,9.8400,-0.1200,10.0058,-0.0153,-0.0578,-0.0316,10.88,90.06,278.13,-1.1406,9.6337,-0.0148,9.7010
1,4,1,3,0,14.326,14326,-1.9600,9.7200,0.0100,9.9156,0.0109,-0.0622,-0.0044,11.19,90.19,278.31,-1.2486,9.6451,-0.0115,9.7256
1,4,1,3,0,14.456,14456,-1.2100,9.5400,0.0100,9.6164,0.0273,-0.0545,0.0731,10.63,90.19,279.31,-1.2435,9.6312,-0.0087,9.7112
1,4,1,3,0,14.586,14586,-2.0500,9.1000,-0.0100,9.3281,0.0371,-0.0731,-0.2869,11.31,90.00,279.13,-1.3498,9.5612,-0.0088,9.6560
1,4,1,3,0,14.716,14716,-2.2500,7.7900,-0.0500,8.1086,0.0022,-0.0556,-0.0142,12.56,89.88,278.38,-1.4684,9.3278,-0.0143,9.4427
1,4,1,3,0,14.846,14846,-1.8300,9.2700,0.1600,9.4503,0.0567,-0.0327,0.5094,10.50,89.69,280.81,-1.5160,9.3202,0.0087,9.4427
1,4,1,3,0,14.976,14976,-0.8600,8.6700,0.2500,8.7161,0.0425,-0.0284,0.2793,7.31,89.44,284.19,-1.4296,9.2345,0.0405,9.3446
1,4,1,3,0,15.106,15106,-0.6400,10.2700,0.2000,10.2919,0.0153,-0.0458,-0.3883,8.19,89.44,283.63,-1.3255,9.3710,0.0615,9.4645
1,4,1,3,0,15.236,15236,-2.2600,9.0100,0.1900,9.2911,0.0153,-0.0316,-0.4429,12.06,89.44,280.06,-1.4487,9.3234,0.0784,9.4356
1,4,1,3,0,15.409,15409,-2.2900,9.3600,-0.1400,9.6371,-0.0185,0.0065,0.4647,11.81,89.69,280.38,-1.5595,9.3282,0.0497,9.4578
1,4,1,3,0,15.539,15539,-0.7800,9.0700,0.1400,9.1046,-0.0262,0.0098,0.3523,8.25,89.88,283.88,-1.4568,9.2942,0.0616,9.4079
1,4,1,3,0,15.670,15670,-1.1800,9.8300,-0.1200,9.9013,-0.0687,-0.0022,-0.2694,8.50,90.31,283.50,-1.4203,9.3648,0.0376,9.4720
1,4,1,3,0,15.801,15801,-2.0500,10.1000,-0.0900,10.3063,-0.0698,0.0087,-0.0273,10.19,90.75,281.81,-1.5033,9.4617,0.0208,9.5804
1,4,1,3,0,15.933,15933,-1.2200,10.0000,-0.0900,10.0745,-0.0316,0.0502,0.5127,8.38,91.00,283.31,-1.4660,9.5326,0.0062,9.6447
1,4,1,3,0,16.063,16063,-0.2800,9.9900,-0.1100,9.9945,-0.0142,0.0545,0.0840,5.69,91.13,285.56,-1.3097,9.5929,-0.0091,9.6819
1,4,1,3,0,16.198,16198,-0.7300,10.5600,-0.1500,10.5863,0.0371,0.0415,-0.4189,7.94,91.00,283.00,-1.2333,9.7203,-0.0277,9.7983
1,4,1,3,0,16.329,16329,-2.0700,9.7300,0.2700,9.9514,0.0665,0.0556,0.0731,10.06,90.50,280.63,-1.3436,9.7216,0.0116,9.8140
1,4,1,3,0,16.501,16501,-0.7100,11.2700,-0.0400,11.2924,0.0436,0.0305,0.3687,6.56,89.75,283.75,-1.2601,9.9256,0.0048,10.0053
1,4,1,3,0,16.631,16631,-0.6300,11.1400,0.1200,11.1584,0.0055,0.0098,-0.1833,5.63,89.56,284.56,-1.1770,10.0857,0.0200,10.1541
1,4,1,3,0,16.761,16761,-1.1700,10.4700,0.1200,10.5359,-0.0164,0.0109,-0.1156,7.38,89.63,282.81,-1.1761,10.1363,0.0331,10.2044
1,5,1,3,0,16.891,16891,-1.1400,9.8500,0.1000,9.9163,-0.0131,0.0087,0.2389,6.88,89.69,283.19,-1.1714,10.0986,0.0419,10.1664
1,5,1,3,0,17.021,17021,-0.4000,9.3400,-0.0500,9.3487,-0.0393,-0.0076,0.2018,5.13,89.81,285.00,-1.0697,9.9986,0.0298,10.0557
1,5,1,3,0,17.151,17151,-0.9300,9.3000,-0.0200,9.3464,-0.0731,-0.0284,-0.2771,5.13,90.25,285.06,-1.0513,9.9066,0.0233,9.9622
1,5,1,3,0,17.282,17282,-1.6000,9.5600,-0.3800,9.7004,-0.1036,-0.0382,-0.3720,7.56,90.81,282.81,-1.1236,9.8609,-0.0299,9.9247
1,5,1,3,0,17.412,17412,-1.4800,10.0000,-0.0200,10.1089,-0.0393,-0.0185,0.1549,8.13,91.13,282.38,-1.1706,9.8792,-0.0286,9.9484
1,5,1,3,0,17.588,17588,-0.8300,6.4900,-0.1400,6.5444,0.0513,-0.0076,0.1505,5.94,91.06,284.69,-1.1257,9.4326,-0.0433,9.4996
1,5,1,3,0,17.719,17719,-1.3200,10.0800,-0.6100,10.1843,-0.0251,-0.0033,-0.1222,5.56,91.06,285.00,-1.1513,9.5179,-0.1179,9.5880
1,5,1,3,0,17.852,17852,-1.2200,9.8400,-0.1700,9.9168,0.0633,-0.0011,-0.1516,7.13,90.69,283.56,-1.1604,9.5604,-0.1248,9.6313
1,5,1,3,0,17.982,17982,-1.3600,9.4400,0.0200,9.5375,0.0611,0.0076,0.0589,7.25,90.19,283.44,-1.1867,9.5445,-0.1057,9.6186
1,5,1,3,0,18.113,18113,-1.3800,9.5200,0.0000,9.6195,0.0447,-0.0011,-0.1473,7.00,89.81,283.75,-1.2121,9.5413,-0.0918,9.6184
1,5,1,3,0,18.243,18243,-1.5200,9.5700,-0.0200,9.6900,0.0185,-0.0098,-0.2323,8.38,89.63,282.44,-1.2527,9.5451,-0.0823,9.6273
1,5,1,3,0,18.373,18373,-1.7100,9.6300,0.0900,9.7811,0.0065,-0.0033,-0.0458,9.31,89.63,281.50,-1.3130,9.5563,-0.0596,9.6462
1,5,1,3,0,18.504,18504,-1.6500,9.0200,-0.1700,9.1712,-0.0142,-0.0065,-0.0185,9.31,89.69,281.56,-1.3574,9.4856,-0.0742,9.5825
1,5,1,3,0,18.676,18676,-1.7800,8.8600,-0.0600,9.0372,-0.0305,-0.0120,-0.0916,10.38,89.81,280.50,-1.4131,9.4032,-0.0723,9.5090
1,5,1,3,0,18.806,18806,-1.6500,9.0900,-0.0200,9.2386,0.0469,0.0218,0.3142,9.38,89.75,281.50,-1.4443,9.3619,-0.0654,9.4729
1,5,1,3,0,18.936,18936,-0.9300,9.9800,-0.2600,10.0266,0.0240,0.0120,0.2007,7.00,89.56,283.75,-1.3765,9.4433,-0.0910,9.5436
1,5,1,3,0,19.066,19066,-1.0100,9.0700,0.0700,9.1263,0.0807,-0.0098,-0.2378,6.81,89.25,284.00,-1.3282,9.3941,-0.0698,9.4878
1,5,1,3,0,19.196,19196,-2.3500,9.2600,0.4200,9.5628,0.0142,-0.0240,-0.3240,8.88,88.81,282.06,-1.4629,9.3765,-0.0053,9.4899
1,5,1,3,0,19.326,19326,-2.0400,10.0700,0.4200,10.2831,0.0371,-0.0087,0.2771,8.88,88.56,282.19,-1.5389,9.4679,0.0508,9.5922
1,5,1,3,0,19.456,19456,-1.0100,9.0700,0.2800,9.1304,0.0513,-0.0131,0.3185,6.06,88.31,285.06,-1.4692,9.4154,0.0810,9.5297
1,5,1,3,0,19.586,19586,-1.1100,9.6100,0.3400,9.6799,-0.0371,-0.0404,-0.4832,6.50,88.31,284.75,-1.4219,9.4411,0.1151,9.5482
1,5,1,3,0,19.759,19759,-2.0900,9.4300,0.3600,9.6655,-0.0251,-0.0284,-0.0960,10.81,88.44,280.81,-1.5099,9.4396,0.1474,9.5607
1,5,1,3,0,19.889,19889,-2.2200,9.7300,0.2300,9.9827,-0.0349,-0.0044,0.5563,8.69,88.69,283.00,-1.6035,9.4779,0.1583,9.6139
1,5,1,3,0,20.020,20020,-0.7900,10.4200,0.2300,10.4524,-0.0218,-0.0142,0.2182,5.31,88.81,286.38,-1.4963,9.6020,0.1677,9.7194
1,5,1,3,0,20.150,20150,-0.6800,10.5800,0.2500,10.6048,-0.0153,-0.0142,-0.3774,6.44,88.94,285.38,-1.3887,9.7309,0.1786,9.8311
1,5,1,3,0,20.280,20280,-1.9200,10.6100,0.1300,10.7831,0.0273,0.0098,-0.1833,8.63,88.88,283.25,-1.4587,9.8467,0.1722,9.9557
1,5,1,3,0,20.410,20410,-1.6400,10.9200,0.1000,11.0429,0.0600,0.0305,0.2716,8.13,88.63,283.63,-1.4826,9.9882,0.1627,10.0989
1,5,1,3,0,20.540,20540,-0.7100,10.7600,0.3300,10.7884,0.0600,0.0251,0.1789,6.06,88.13,285.56,-1.3808,10.0899,0.1847,10.1856
1,5,1,3,0,20.670,20670,-0.8400,10.3300,0.5000,10.3762,0.0153,-0.0033,-0.2225,6.44,87.81,285.13,-1.3095,10.1215,0.2263,10.2084
1,6,1,3,0,20.845,20845,-1.7000,10.0100,0.4300,10.1624,-0.0633,0.0251,0.0720,7.88,88.06,283.63,-1.3610,10.1068,0.2531,10.2012
1,6,1,3,0,20.976,20976,-1.0500,10.1200,0.4800,10.1856,-0.0404,0.0393,0.2236,6.56,88.44,284.63,-1.3200,10.1086,0.2830,10.1983
1,6,1,3,0,21.109,21109,-0.9300,9.4300,0.2600,9.4793,-0.0185,0.0284,-0.0720,6.38,88.56,284.56,-1.2686,10.0191,0.2800,10.1030
1,6,1,3,0,21.240,21240,-1.0700,8.9800,0.3100,9.0488,-0.0273,0.0164,-0.1462,7.31,88.63,283.44,-1.2424,9.8822,0.2839,9.9641
1,6,1,3,0,21.370,21370,-1.4000,9.1600,0.1800,9.2681,-0.0218,0.0175,-0.0371,7.94,88.81,282.69,-1.2632,9.7870,0.2702,9.8719
1,6,1,3,0,21.500,21500,-1.3500,9.8000,0.2200,9.8950,-0.0611,0.0338,0.0894,7.75,89.06,282.63,-1.2746,9.7887,0.2636,9.8749
1,6,1,3,0,21.630,21630,-1.1400,7.6900,0.2200,7.7772,0.0011,0.0415,0.0142,7.25,89.13,282.81,-1.2569,9.5122,0.2579,9.5983
1,6,1,3,0,21.761,21761,-0.8000,8.9600,0.0300,8.9957,-0.0862,0.0382,0.0316,6.81,89.25,283.00,-1.1967,9.4394,0.2278,9.5177
1,6,1,3,0,21.935,21935,-0.7700,9.4900,-0.0800,9.5215,-0.0164,0.0240,0.0295,6.31,89.31,283.25,-1.1405,9.4461,0.1873,9.5165
1,6,1,3,0,22.066,22066,-0.5600,9.9800,-0.0100,9.9957,-0.0393,0.0087,0.1265,5.63,89.44,283.81,-1.0640,9.5164,0.1613,9.5771
1,6,1,3,0,22.201,22201,-0.7300,9.7100,0.1700,9.7389,0.0044,0.0011,-0.0120,5.00,89.44,284.38,-1.0200,9.5419,0.1624,9.5977
1,6,1,3,0,22.332,22332,-1.0700,9.5600,0.0400,9.6198,0.0076,-0.0120,-0.2476,6.06,89.44,283.44,-1.0266,9.5443,0.1463,9.6005
1,6,1,3,0,22.462,22462,-1.6200,9.8300,0.1400,9.9636,0.0262,0.0022,-0.0884,7.56,89.31,281.94,-1.1048,9.5820,0.1455,9.6465
1,6,1,3,0,22.593,22593,-1.4200,9.6500,0.0700,9.7542,0.0218,0.0109,0.0982,7.38,89.06,282.19,-1.1463,9.5909,0.1355,9.6601
1,6,1,3,0,22.723,22723,-1.1800,9.4400,0.2300,9.5162,0.0316,0.0022,-0.0578,7.56,88.88,282.00,-1.1507,9.5710,0.1480,9.6411
1,6,1,3,0,22.853,22853,-1.3500,8.5100,0.2100,8.6190,0.0305,0.0000,-0.1233,8.63,88.69,280.94,-1.1770,9.4312,0.1561,9.5057
1,6,1,3,0,23.026,23026,-1.2100,8.1000,0.1900,8.1921,0.0393,0.0044,0.2073,8.63,88.69,280.94,-1.1813,9.2558,0.1606,9.3323
1,6,1,3,0,23.156,23156,-1.0500,10.1000,-0.0400,10.1545,-0.0665,0.0055,0.2236,6.94,88.75,282.63,-1.1640,9.3670,0.1342,9.4401
1,6,1,3,0,23.289,23289,-0.7800,9.1200,-0.0400,9.1534,0.0207,-0.0120,-0.0829,6.75,88.75,282.88,-1.1134,9.3345,0.1112,9.4013
1,6,1,3,0,23.420,23420,-1.3600,9.2700,0.2500,9.3726,-0.0229,-0.0251,-0.2051,8.44,88.75,281.31,-1.1459,9.3260,0.1295,9.3970
1,6,1,3,0,23.554,23554,-1.5800,9.8600,0.2400,9.9887,-0.0284,-0.0218,-0.0055,9.38,88.81,280.50,-1.2031,9.3964,0.1441,9.4742
1,6,1,3,0,23.685,23685,-1.5000,9.5000,0.3100,9.6227,-0.0229,-0.0262,0.0742,8.75,88.94,281.25,-1.2422,9.4100,0.1659,9.4931
1,6,1,3,0,23.815,23815,-1.2200,9.6100,0.4300,9.6967,-0.0327,-0.0382,-0.2443,9.44,89.19,280.81,-1.2393,9.4364,0.2007,9.5195
1,6,1,3,0,23.946,23946,-1.6200,9.9500,0.1600,10.0823,-0.0360,-0.0218,0.0654,10.31,89.56,280.06,-1.2895,9.5041,0.1954,9.5931
1,6,1,3,0,24.119,24119,-1.7400,10.4000,-0.0400,10.5446,0.0033,-0.0011,0.0229,8.75,89.63,281.69,-1.3488,9.6221,0.1643,9.7176
1,6,1,3,0,24.249,24249,-2.2200,10.9300,-0.0400,11.1532,0.0284,0.0076,-0.1418,9.25,89.56,281.19,-1.4636,9.7945,0.1374,9.9042
1,6,1,3,0,24.380,24380,-2.9400,11.0500,-0.0200,11.4344,0.0338,0.0240,-0.2116,10.38,89.31,280.00,-1.6582,9.9599,0.1167,10.0977
1,6,1,3,0,24.512,24512,-2.1600,11.0200,0.1300,11.2304,0.0578,0.0469,0.1014,10.94,88.88,279.25,-1.7243,10.0996,0.1184,10.2464
1,6,1,3,0,24.646,24646,-1.3500,10.2600,0.1800,10.3500,0.0436,0.0349,0.2127,9.75,88.44,280.19,-1.6750,10.1207,0.1265,10.2592
1,7,1,3,0,24.777,24777,-1.3400,9.8000,0.3500,9.8974,-0.0262,0.0076,0.1636,8.56,88.38,281.31,-1.6308,10.0785,0.1560,10.2108
1,7,1,3,0,24.908,24908,-1.4400,9.7400,0.4000,9.8540,-0.1036,-0.0022,0.0916,7.38,88.81,282.38,-1.6057,10.0339,0.1881,10.1633
1,7,1,3,0,25.038,25038,-1.5900,9.7400,0.0000,9.8689,-0.0862,0.0076,-0.0491,7.25,89.44,282.44,-1.6036,9.9951,0.1634,10.1243
1,7,1,3,0,25.211,25211,-1.3300,9.6100,-0.0200,9.7016,-0.0218,0.0164,-0.1178,8.00,90.00,281.50,-1.5676,9.9444,0.1392,10.0681
1,7,1,3,0,25.341,25341,-1.4000,9.1200,-0.0500,9.2270,0.0055,0.0153,-0.0960,8.63,90.00,280.75,-1.5455,9.8358,0.1143,9.9571
1,7,1,3,0,25.472,25472,-1.5400,9.3900,-0.1900,9.5173,-0.0033,0.0098,-0.1331,9.06,89.94,280.25,-1.5448,9.7770,0.0742,9.8986
1,7,1,3,0,25.603,25603,-1.5200,10.4400,0.0400,10.5501,0.0425,0.0131,0.0327,9.31,89.75,279.94,-1.5415,9.8644,0.0697,9.9843
1,7,1,3,0,25.734,25734,-1.0800,5.4800,0.2500,5.5910,0.1156,0.0327,0.1178,9.25,89.00,279.94,-1.4807,9.2866,0.0934,9.4044
1,7,1,3,0,25.869,25869,-2.3500,11.1000,0.3100,11.3503,0.0873,0.0185,0.2476,7.94,88.56,281.19,-1.5952,9.5256,0.1220,9.6590
1,7,1,3,0,26.000,26000,-0.6800,8.5200,0.2600,8.5510,0.0295,0.0055,0.1854,6.00,87.94,283.06,-1.4746,9.3931,0.1402,9.5092
1,7,1,3,0,26.130,26130,-0.7300,9.6400,0.4900,9.6800,-0.0513,-0.0229,-0.1909,5.63,88.00,283.50,-1.3765,9.4256,0.1863,9.5274
1,7,1,3,0,26.303,26303,-1.0700,8.9400,0.3400,9.0102,-0.0382,-0.0305,-0.1156,7.94,88.31,281.38,-1.3361,9.3616,0.2065,9.4587
1,7,1,3,0,26.433,26433,-1.6200,9.7800,0.2500,9.9164,-0.0436,-0.0207,0.1854,7.81,88.69,281.63,-1.3735,9.4168,0.2122,9.5188
1,7,1,3,0,26.563,26563,-0.8300,9.7300,0.1600,9.7666,-0.0229,-0.0142,0.0698,6.56,88.94,283.00,-1.3019,9.4580,0.2054,9.5494
1,7,1,3,0,26.693,26693,-0.9300,9.6100,0.0400,9.6550,-0.0131,-0.0229,-0.3578,7.44,89.06,282.19,-1.2529,9.4781,0.1836,9.5623
1,7,1,3,0,26.823,26823,-1.9300,9.0500,0.0500,9.2536,-0.0033,-0.0393,-0.5629,10.63,89.06,279.31,-1.3421,9.4217,0.1660,9.5182
1,7,1,3,0,26.953,26953,-3.0900,8.8200,-0.1000,9.3461,0.0044,-0.0349,-0.1200,13.56,89.19,276.63,-1.5724,9.3424,0.1309,9.4747
1,7,1,3,0,27.083,27083,-1.9200,8.5800,0.3500,8.7992,0.0098,-0.0055,0.4625,11.56,89.13,278.75,-1.6182,9.2419,0.1598,9.3839
1,7,1,3,0,27.213,27213,-1.0900,9.0300,0.3100,9.1008,0.0611,-0.0305,0.1658,9.06,89.00,281.38,-1.5486,9.2140,0.1796,9.3449
1,7,1,3,0,27.386,27386,-2.5400,9.4400,0.5100,9.7890,0.0284,-0.0415,-0.3087,10.94,88.81,279.94,-1.6793,9.2438,0.2231,9.3977
1,7,1,3,0,27.516,27516,-2.3200,8.9900,-0.2200,9.2871,0.0458,-0.0284,0.0371,12.19,88.56,279.00,-1.7637,9.2103,0.1647,9.3791
1,7,1,3,0,27.647,27647,-1.8800,9.1500,0.1300,9.3420,-0.0262,-0.0185,0.2934,10.63,88.44,280.75,-1.7790,9.2024,0.1602,9.3741
1,7,1,3,0,27.778,27778,-1.8600,9.8900,0.6100,10.0819,-0.0164,-0.0338,0.0404,9.00,88.50,282.56,-1.7897,9.2930,0.2194,9.4663
1,7,1,3,0,27.910,27910,-1.8900,9.6800,0.2800,9.8668,-0.0022,-0.0305,-0.1833,10.19,88.75,281.63,-1.8029,9.3440,0.2274,9.5191
1,7,1,3,0,28.041,28041,-2.2200,9.8100,0.1400,10.0590,-0.0295,-0.0065,0.0665,10.88,88.94,281.00,-1.8579,9.4054,0.2159,9.5896
1,7,1,3,0,28.175,28175,-1.4500,9.8500,0.4200,9.9650,-0.0262,0.0207,0.4232,8.44,89.00,283.38,-1.8041,9.4640,0.2428,9.6375
1,7,1,3,0,28.306,28306,-1.1400,10.4300,-0.0200,10.4921,-0.0131,0.0185,0.0044,6.94,89.06,284.69,-1.7166,9.5913,0.2082,9.7459
1,7,1,3,0,28.478,28478,-1.7800,11.7400,0.1700,11.8754,0.0044,0.0262,-0.1145,8.19,89.06,283.25,-1.7250,9.8744,0.2031,10.0260
1,7,1,3,0,28.608,28608,-1.4400,11.2800,-0.0500,11.3717,-0.0033,0.0382,0.2443,7.38,89.00,283.81,-1.6874,10.0596,0.1698,10.2016
1,7,1,3,0,28.738,28738,-0.7500,10.3400,0.3100,10.3718,-0.0055,0.0360,0.0524,5.94,89.00,284.94,-1.5639,10.0966,0.1883,10.2187
1,8,1,3,0,28.868,28868,-1.2600,9.8900,0.1800,9.9716,0.0055,0.0284,-0.0884,6.63,89.00,284.06,-1.5238,10.0694,0.1872,10.1857
1,8,1,3,0,28.998,28998,-1.2400,9.5000,0.2100,9.5829,0.0175,0.0316,0.0927,6.63,88.94,283.81,-1.4864,9.9943,0.1902,10.1061
1,8,1,3,0,29.128,29128,-0.7400,9.4800,0.3000,9.5136,-0.0044,0.0229,0.0513,5.56,88.88,284.69,-1.3881,9.9266,0.2046,10.0252
1,8,1,3,0,29.258,29258,-0.9900,9.5200,0.1200,9.5721,-0.0295,0.0131,-0.2673,6.31,88.88,283.88,-1.3356,9.8730,0.1935,9.9648
1,8,1,3,0,29.388,29388,-1.4600,9.9300,0.1700,10.0382,-0.0284,0.0098,-0.2247,8.44,89.06,281.69,-1.3520,9.8805,0.1904,9.9744
1,8,1,3,0,29.561,29561,-0.8100,7.7500,0.1000,7.7929,0.0185,0.0273,0.0774,8.81,89.06,281.19,-1.2806,9.5998,0.1785,9.6864
1,8,1,3,0,29.692,29692,-1.2500,7.4700,0.2600,7.5783,0.0000,0.0240,-0.0404,9.69,88.94,280.19,-1.2766,9.3191,0.1892,9.4080
1,8,1,3,0,29.822,29822,-1.6600,10.6200,0.2300,10.7514,0.0611,0.0382,0.2334,10.00,88.75,279.69,-1.3271,9.4905,0.1946,9.5848
1,8,1,3,0,29.957,29957,-0.3500,8.6500,0.0800,8.6574,0.0207,0.0295,0.1898,8.56,88.31,280.88,-1.1983,9.3798,0.1795,9.4577
1,8,1,3,0,30.088,30088,-1.2100,10.0600,0.3300,10.1379,0.0153,0.0273,0.0011,8.25,88.13,281.06,-1.1999,9.4694,0.1993,9.5472
1,8,1,3,0,30.220,30220,-1.2700,9.0600,0.1500,9.1498,-0.0011,0.0109,0.1440,8.06,88.06,281.13,-1.2091,9.4155,0.1928,9.4947
1,8,1,3,0,30.350,30350,-1.2400,10.4900,0.0000,10.5630,-0.0175,0.0305,0.5541,5.25,88.06,283.69,-1.2132,9.5571,0.1674,9.6352
1,8,1,3,0,30.481,30481,-0.2200,9.5100,0.4500,9.5232,-0.0185,0.0284,0.4331,1.31,88.06,287.44,-1.0823,9.5509,0.2047,9.6142
1,8,1,3,0,30.653,30653,-0.3900,9.7800,0.5600,9.8038,-0.0218,-0.0087,-0.4985,2.00,88.13,286.69,-0.9911,9.5811,0.2515,9.6355
1,8,1,3,0,30.783,30783,-0.8900,9.6600,0.4300,9.7104,-0.0055,-0.0164,-0.3971,5.63,88.25,283.19,-0.9778,9.5915,0.2750,9.6451
1,8,1,3,0,30.913,30913,-1.3100,9.6800,0.3000,9.7728,0.0022,-0.0022,0.1178,6.56,88.25,282.31,-1.0215,9.6031,0.2783,9.6613
1,8,1,3,0,31.043,31043,-0.9100,8.3500,0.2200,8.4023,0.0011,0.0033,0.1898,5.19,88.19,283.69,-1.0068,9.4380,0.2706,9.4954
1,8,1,3,0,31.173,31173,-1.0200,8.8300,0.1900,8.8907,-0.0240,-0.0207,-0.2160,5.88,88.31,283.00,-1.0086,9.3579,0.2600,9.4157
1,8,1,3,0,31.303,31303,-1.2700,8.1400,0.5700,8.2582,0.0371,0.0000,-0.1189,7.75,88.44,281.19,-1.0430,9.1974,0.3008,9.2612
1,8,1,3,0,31.433,31433,-1.1600,9.8500,0.3800,9.9253,-0.0218,0.0109,0.2825,7.25,88.56,281.63,-1.0584,9.2834,0.3113,9.3487
1,8,1,3,0,31.563,31563,-0.6100,9.6400,0.1000,9.6598,0.0076,0.0033,0.3098,4.94,88.63,283.88,-0.9993,9.3304,0.2834,9.3880
1,8,1,3,0,31.736,31736,-0.8700,9.9200,0.2300,9.9607,-0.0458,-0.0251,-0.3829,5.75,89.00,283.19,-0.9823,9.4081,0.2764,9.4633
1,8,1,3,0,31.866,31866,-1.9000,9.1400,0.1800,9.3371,-0.0545,-0.0349,-0.4647,8.94,89.38,280.19,-1.1032,9.3728,0.2637,9.4411
1,8,1,3,0,31.997,31997,-2.3100,9.6800,0.1000,9.9523,-0.0458,-0.0218,0.0011,10.69,89.88,278.50,-1.2623,9.4132,0.2421,9.5006
1,8,1,3,0,32.127,32127,-1.6800,10.0900,-0.1000,10.2294,0.0000,0.0098,0.3796,9.19,90.06,280.00,-1.3173,9.5024,0.1970,9.5953
1,8,1,3,0,32.261,32261,-1.0800,10.6200,-0.0400,10.6748,0.0676,0.0076,0.1145,7.44,89.75,281.81,-1.2860,9.6497,0.1658,9.7364
1,8,1,3,0,32.392,32392,-1.0200,10.0000,0.1700,10.0533,0.1233,-0.0011,-0.0491,7.50,88.94,281.81,-1.2510,9.6958,0.1664,9.7776
1,8,1,3,0,32.525,32525,-1.3400,9.5800,0.2500,9.6765,0.1036,-0.0120,-0.0305,8.19,88.06,281.31,-1.2627,9.6806,0.1774,9.7642
1,8,1,3,0,32.655,32655,-1.3900,10.5800,0.1500,10.6720,0.0502,-0.0240,0.1440,7.50,87.63,282.13,-1.2795,9.7991,0.1738,9.8838
1,8,1,3,0,32.828,32828,-1.3400,11.6800,0.5100,11.7677,0.0164,-0.0535,-0.1353,7.50,87.50,282.56,-1.2875,10.0470,0.2181,10.1315
1,8,1,3,0,32.959,32959,-1.6200,10.4000,0.7400,10.5514,-0.0185,-0.0491,-0.1484,8.69,87.50,281.75,-1.3313,10.0935,0.2869,10.1849
1,9,1,3,0,33.090,33090,-2.0800,9.9400,0.4700,10.1662,-0.0829,-0.0295,0.1233,8.69,87.94,282.00,-1.4299,10.0733,0.3110,10.1790
1,9,1,3,0,33.220,33220,-0.9600,9.8100,0.6000,9.8751,-0.1025,-0.0065,0.1200,7.19,88.75,283.44,-1.3680,10.0386,0.3491,10.1374
1,9,1,3,0,33.351,33351,-1.3900,10.1600,0.1900,10.2564,-0.0764,-0.0055,-0.1745,7.56,89.38,282.94,-1.3709,10.0546,0.3281,10.1529
1,9,1,3,0,33.481,33481,-1.3800,9.8200,-0.0100,9.9165,-0.0076,0.0011,-0.0087,8.00,89.75,282.50,-1.3721,10.0237,0.2836,10.1211
1,9,1,3,0,33.617,33617,-1.3800,9.6700,0.1600,9.7693,0.0251,-0.0022,0.0044,7.81,89.63,282.63,-1.3731,9.9771,0.2673,10.0747
1,9,1,3,0,33.747,33747,-1.4300,9.6500,0.0700,9.7556,0.0098,-0.0120,-0.0720,8.13,89.44,282.38,-1.3806,9.9340,0.2413,10.0323
1,9,1,3,0,33.920,33920,-0.8500,5.4300,0.0100,5.4961,0.0207,0.0218,0.0545,9.63,89.25,280.88,-1.3107,9.3404,0.2108,9.4343
1,9,1,3,0,34.050,34050,-2.0800,9.5100,0.2700,9.7386,0.0415,0.0273,0.2400,9.06,89.19,281.38,-1.4121,9.3628,0.2186,9.4712
1,9,1,3,0,34.180,34180,-0.8000,9.5300,0.2800,9.5676,0.0916,0.0207,0.2029,7.75,88.75,282.56,-1.3314,9.3848,0.2267,9.4815
1,9,1,3,0,34.310,34310,-0.7800,9.6100,0.0800,9.6419,0.0382,0.0120,0.2269,6.31,88.31,284.00,-1.2588,9.4145,0.2074,9.5005
1,9,1,3,0,34.440,34440,-0.7800,9.7300,0.4300,9.7707,0.0120,-0.0055,-0.0764,5.63,88.00,284.69,-1.1957,9.4561,0.2367,9.5343
1,9,1,3,0,34.570,34570,-1.1400,8.9800,0.5300,9.0676,-0.0033,-0.0109,-0.2149,6.81,87.88,283.56,-1.1883,9.3933,0.2754,9.4722
1,9,1,3,0,34.700,34700,-1.6900,9.8000,0.3200,9.9498,-0.0120,-0.0076,-0.0676,8.00,88.00,282.38,-1.2544,9.4469,0.2812,9.5340
1,9,1,3,0,34.830,34830,-1.3200,9.2900,0.2700,9.3872,-0.0262,0.0153,0.1844,7.44,88.13,282.94,-1.2631,9.4262,0.2798,9.5146
1,9,1,3,0,35.003,35003,-1.0700,8.6800,0.1700,8.7474,-0.0011,0.0044,-0.1309,7.00,88.19,283.25,-1.2376,9.3279,0.2653,9.4134
1,9,1,3,0,35.133,35133,-1.3800,8.3500,0.4200,8.4737,0.0011,0.0098,-0.2531,8.88,88.19,281.38,-1.2564,9.1990,0.2857,9.2888
1,9,1,3,0,35.263,35263,-2.0100,9.6300,0.1900,9.8394,0.0404,0.0098,-0.0851,10.25,88.13,280.00,-1.3557,9.2558,0.2731,9.3586
1,9,1,3,0,35.393,35393,-1.6200,8.4200,0.4400,8.5857,0.0229,0.0164,-0.0262,10.56,88.00,279.63,-1.3905,9.1457,0.2951,9.2555
1,9,1,3,0,35.523,35523,-1.8100,9.6600,0.4400,9.8380,-0.0589,0.0120,0.0393,10.44,88.13,279.56,-1.4458,9.2135,0.3142,9.3315
1,9,1,3,0,35.653,35653,-1.4800,9.6800,0.3200,9.7977,-0.0251,0.0142,0.1233,9.50,88.38,280.38,-1.4503,9.2749,0.3149,9.3929
1,9,1,3,0,35.783,35783,-1.5600,9.6800,0.1900,9.8067,-0.0327,0.0142,-0.2825,9.94,88.63,279.81,-1.4648,9.3283,0.2985,9.4473
1,9,1,3,0,35.913,35913,-2.3900,9.7800,0.2700,10.0714,-0.0654,0.0055,-0.3632,12.31,88.88,277.38,-1.5867,9.3878,0.2947,9.5255
1,9,1,3,0,36.086,36086,-2.2100,9.7300,0.3200,9.9830,0.0000,0.0338,0.3982,11.75,88.88,277.75,-1.6688,9.4329,0.2981,9.5840
1,9,1,3,0,36.222,36222,-1.3900,10.8200,0.0500,10.9090,0.0153,0.0098,0.2760,8.44,88.75,280.94,-1.6321,9.6157,0.2654,9.7568
1,9,1,3,0,36.353,36353,-1.8600,10.9600,0.1100,11.1173,0.0164,-0.0098,-0.3458,9.31,88.56,280.06,-1.6621,9.7929,0.2449,9.9359
1,9,1,3,0,36.484,36484,-2.3100,11.0600,0.4200,11.3065,0.0284,-0.0055,0.0513,11.00,88.44,278.56,-1.7475,9.9598,0.2680,10.1155
1,9,1,3,0,36.614,36614,-1.2300,10.5200,0.3800,10.5985,-0.0022,0.0065,0.6109,8.19,88.38,281.31,-1.6793,10.0336,0.2827,10.1771
1,10,1,3,0,36.745,36745,-0.3200,10.0300,0.4600,10.0456,-0.0273,-0.0087,0.1429,4.88,88.50,284.56,-1.5002,10.0332,0.3061,10.1493
1,10,1,3,0,36.875,36875,-1.1200,10.1700,0.2200,10.2339,-0.0316,-0.0164,-0.5029,6.25,88.69,283.25,-1.4501,10.0512,0.2947,10.1595
1,10,1,3,0,37.005,37005,-1.4500,9.9900,0.0500,10.0948,0.0033,-0.0011,-0.0207,8.31,88.75,281.25,-1.4501,10.0431,0.2625,10.1507
1,10,1,3,0,37.178,37178,-1.1500,9.6100,0.1200,9.6793,0.0033,-0.0098,0.1800,6.56,88.56,283.06,-1.4105,9.9861,0.2437,10.0881
1,10,1,3,0,37.309,37309,-0.8000,9.5800,0.2500,9.6166,0.0229,-0.0436,-0.2662,6.81,88.44,283.00,-1.3301,9.9325,0.2445,10.0242
1,10,1,3,0,37.439,37439,-2.5200,11.3900,0.4800,11.6753,-0.0098,-0.0556,-0.4320,9.88,88.50,280.31,-1.4869,10.1246,0.2756,10.2369
1,10,1,3,0,37.574,37574,-1.0000,4.8700,0.2200,4.9765,0.0753,-0.0349,-0.0894,11.63,88.25,278.88,-1.4227,9.4322,0.2682,9.5426
1,10,1,3,0,37.705,37705,-2.7400,9.9600,0.2000,10.3320,-0.0524,-0.0371,0.1200,11.31,88.31,279.44,-1.5963,9.5017,0.2593,9.6384
1,10,1,3,0,37.837,37837,-1.5600,9.5800,0.5100,9.7196,0.0774,-0.0240,0.0742,10.19,88.06,280.81,-1.5915,9.5120,0.2923,9.6487
1,10,1,3,0,37.967,37967,-1.9900,8.7700,0.2800,8.9973,0.0338,-0.0196,0.1538,9.69,87.75,281.63,-1.6440,9.4143,0.2907,9.5612
1,10,1,3,0,38.098,38098,-1.8200,9.7300,0.3500,9.9049,0.0622,-0.0251,-0.1025,9.50,87.50,282.00,-1.6672,9.4559,0.2985,9.6064
1,10,1,3,0,38.270,38270,-1.8300,9.6900,0.2700,9.8650,0.0262,-0.0207,-0.0142,10.81,87.25,281.00,-1.6887,9.4867,0.2947,9.6404
1,10,1,3,0,38.401,38401,-1.6000,9.3600,0.6500,9.5180,0.0436,-0.0076,0.1014,10.63,87.06,281.25,-1.6770,9.4700,0.3416,9.6234
1,10,1,3,0,38.531,38531,-1.6400,9.3700,0.4800,9.5245,-0.0207,0.0076,0.0600,9.94,87.00,282.00,-1.6721,9.4568,0.3598,9.6103
1,10,1,3,0,38.662,38662,-1.6100,9.9000,0.3500,10.0362,-0.0447,0.0229,0.0196,9.50,87.13,282.31,-1.6639,9.5152,0.3585,9.6663
1,10,1,3,0,38.792,38792,-1.6900,9.1500,0.5300,9.3198,-0.0011,0.0360,0.0600,9.00,87.31,282.56,-1.6674,9.4671,0.3811,9.6204
1,10,1,3,0,38.923,38923,-1.2500,8.7300,0.5300,8.8349,-0.0218,0.0382,0.0076,8.44,87.44,282.75,-1.6124,9.3700,0.4007,9.5161
1,10,1,3,0,39.054,39054,-0.8800,8.1100,0.1900,8.1598,-0.0654,0.0404,-0.0425,9.06,87.69,281.81,-1.5159,9.2039,0.3730,9.3354
1,10,1,3,0,39.185,39185,-1.6200,8.7900,0.3700,8.9457,-0.0622,0.0524,0.0862,9.13,88.19,281.38,-1.5296,9.1494,0.3726,9.2839
1,10,1,3,0,39.358,39358,-0.9500,9.1900,0.1700,9.2405,-0.0251,0.0567,0.1789,7.44,88.69,282.50,-1.4532,9.1547,0.3459,9.2758
1,10,1,3,0,39.490,39490,-1.1400,9.6900,0.1400,9.7578,0.0033,0.0502,-0.0316,7.00,88.94,282.44,-1.4119,9.2253,0.3187,9.3381
1,10,1,3,0,39.621,39621,-1.4700,9.7300,0.3000,9.8450,-0.0349,0.0447,0.0873,6.94,89.00,282.19,-1.4196,9.2918,0.3163,9.4049
1,10,1,3,0,39.751,39751,-0.9700,9.8900,0.2800,9.9414,-0.0164,0.0404,0.1767,5.75,89.06,283.06,-1.3603,9.3706,0.3115,9.4740
1,10,1,3,0,39.882,39882,-0.8500,9.9500,0.0600,9.9864,-0.0513,0.0175,-0.0851,5.63,89.31,282.94,-1.2931,9.4470,0.2784,9.5391
1,10,1,3,0,40.012,40012,-1.1400,9.9000,0.0100,9.9654,-0.0327,0.0153,0.0109,6.38,89.63,282.13,-1.2729,9.5067,0.2430,9.5946
1,10,1,3,0,40.142,40142,-0.8100,10.2200,0.0400,10.2521,-0.0175,0.0262,0.1811,5.31,89.81,283.00,-1.2119,9.6007,0.2162,9.6793
1,10,1,3,0,40.272,40272,-0.9100,10.6300,0.1600,10.6701,0.0055,0.0076,0.0000,4.56,89.88,283.69,-1.1721,9.7363,0.2088,9.8088
1,10,1,3,0,40.445,40445,-1.5200,11.0700,0.1600,11.1750,0.0022,-0.0033,-0.0774,5.19,89.63,283.06,-1.2180,9.9121,0.2024,9.9887
1,10,1,3,0,40.576,40576,-0.6000,11.4700,0.2100,11.4876,0.0196,-0.0087,0.2029,4.38,89.56,283.81,-1.1365,10.1173,0.2034,10.1830
1,10,1,3,0,40.707,40707,-0.4000,10.3600,0.0800,10.3680,-0.0022,-0.0229,-0.0338,3.69,89.50,284.63,-1.0395,10.1493,0.1871,10.2041
1,10,1,3,0,40.837,40837,-0.4400,10.0700,-0.1300,10.0804,-0.0164,-0.0273,0.1298,3.56,89.63,284.88,-0.9605,10.1389,0.1453,10.1853
1,10,1,3,0,40.968,40968,-0.2400,9.9800,-0.0400,9.9830,-0.0284,-0.0415,0.0884,2.56,89.81,286.19,-0.8655,10.1179,0.1209,10.1556
1,10,1,3,0,41.098,41098,-0.4800,9.7200,-0.2100,9.7341,-0.0371,-0.0502,-0.2182,3.06,90.13,286.00,-0.8147,10.0655,0.0773,10.0987
1,10,1,3,0,41.234,41234,-0.9500,9.6100,0.1200,9.6576,-0.0305,-0.0644,-0.2618,4.56,90.44,284.88,-0.8326,10.0055,0.0829,10.0404
1,10,1,3,0,41.364,41364,-1.1800,9.5400,0.0100,9.6127,-0.0305,-0.0600,-0.1080,5.81,90.69,284.00,-0.8783,9.9441,0.0733,9.9831
1,10,1,3,0,41.537,41537,-1.1300,8.4700,-0.1600,8.5465,0.0502,-0.0284,-0.0229,5.94,90.81,284.38,-0.9115,9.7499,0.0426,9.7925
1,10,1,3,0,41.667,41667,-0.0500,5.3900,0.4000,5.4051,0.0338,-0.0251,-0.1080,6.31,90.38,284.25,-0.7980,9.1754,0.0897,9.2104
1,10,1,3,0,41.797,41797,-2.3900,11.1400,0.0800,11.3938,0.0796,-0.0164,-0.2651,7.50,90.13,283.25,-1.0078,9.4343,0.0884,9.4883
1,10,1,3,0,41.927,41927,-0.8600,8.7200,0.1600,8.7638,0.0764,-0.0164,-0.0153,8.69,89.44,282.31,-0.9883,9.3401,0.0978,9.3928
1,10,1,3,0,42.057,42057,-1.6200,10.1000,0.7500,10.2566,0.0764,-0.0131,-0.0022,8.44,88.94,282.75,-1.0715,9.4403,0.1838,9.5027
1,10,1,3,0,42.187,42187,-1.3100,8.9800,0.4000,9.0839,0.0884,-0.0098,-0.2596,9.81,88.25,281.56,-1.1030,9.3796,0.2123,9.4466
1,10,1,3,0,42.317,42317,-2.1600,9.9000,-0.0400,10.1330,0.0567,-0.0022,-0.2018,11.75,87.69,279.75,-1.2423,9.4482,0.1790,9.5312
1,10,1,3,0,42.447,42447,-2.4000,9.0300,0.2700,9.3474,0.1069,0.0240,0.0960,12.31,87.00,279.25,-1.3948,9.3931,0.1910,9.4980
