participant,rep,equipment_code,exercise_code,quality_code,timestamp,timestamp_ms,accelX,accelY,accelZ,accelMag,gyroX,gyroY,gyroZ,roll,pitch,yaw,filteredX,filteredY,filteredZ,filteredMag
1,1,1,3,0,00.000,0,3.2300,9.5100,0.0400,10.0436,0.0153,-0.0425,0.1516,-27.56,90.13,29.75,5.1801,8.2370,0.2984,9.7350
1,1,1,3,0,00.130,130,4.4700,10.0700,0.0600,11.0177,0.0524,-0.0785,-0.1625,-27.56,89.56,29.94,5.0866,8.4785,0.2670,9.8909
1,1,1,3,0,00.261,261,4.5400,8.8900,-0.8600,10.0191,0.0709,-0.0491,0.2443,-28.06,88.81,30.63,5.0145,8.5327,0.1185,9.8978
1,1,1,3,0,00.391,391,3.5300,8.2100,0.0700,8.9370,-0.0665,-0.0011,-0.1549,-26.69,88.69,29.44,4.8189,8.4902,0.1121,9.7631
1,1,1,3,0,00.564,564,2.9000,8.8200,1.7100,9.4407,-0.1014,0.0229,-0.2673,-24.69,89.50,27.63,4.5661,8.5337,0.3226,9.6838
1,1,1,3,0,00.694,694,4.9700,9.6300,1.2000,10.9031,-0.0065,0.0120,0.5694,-27.19,90.06,30.13,4.6193,8.6781,0.4382,9.8407
1,1,1,3,0,00.824,824,4.8700,8.8200,-0.6900,10.0988,0.0600,-0.0404,-0.0949,-29.00,89.75,32.00,4.6523,8.6968,0.2896,9.8673
1,1,1,3,0,00.954,954,4.0100,8.8100,-0.2400,9.6827,0.0971,-0.0327,-0.2716,-27.25,88.88,30.13,4.5677,8.7117,0.2198,9.8390
1,1,1,3,0,01.084,1084,4.9500,8.9400,0.6800,10.2415,0.0676,0.0098,0.3709,-29.06,88.19,31.69,4.6181,8.7418,0.2804,9.8906
1,1,1,3,0,01.214,1214,4.0300,8.8500,0.7500,9.7533,0.0055,0.0185,0.2411,-29.25,88.00,31.75,4.5406,8.7561,0.3423,9.8693
1,1,1,3,0,01.345,1345,5.5000,8.4500,0.7200,10.1080,0.0436,0.0044,0.2945,-31.13,87.69,33.50,4.6670,8.7157,0.3921,9.8944
1,1,1,3,0,01.476,1476,5.5500,7.6300,0.5400,9.4504,0.0055,-0.0087,-0.2487,-32.38,87.44,34.69,4.7834,8.5727,0.4116,9.8255
1,1,1,3,0,01.648,1648,5.7200,8.1400,0.7600,9.9778,0.0044,-0.0207,-0.4571,-31.38,87.44,33.69,4.9068,8.5157,0.4575,9.8388
1,1,1,3,0,01.778,1778,3.2900,6.2400,0.5500,7.0756,-0.0262,-0.0185,-0.4767,-28.19,87.44,30.63,4.6937,8.2158,0.4697,9.4737
1,1,1,3,0,01.908,1908,5.1000,8.1100,0.5400,9.5955,0.0000,-0.0109,0.3153,-28.25,87.63,30.75,4.7473,8.2018,0.4789,9.4887
1,1,1,3,0,02.038,2038,4.2200,9.3600,0.6100,10.2854,-0.0458,-0.0382,-0.3022,-26.88,87.75,29.69,4.6778,8.3545,0.4962,9.5877
1,1,1,3,0,02.168,2168,4.2000,9.1500,0.6100,10.0864,0.0033,-0.0229,0.0818,-26.69,87.75,29.75,4.6148,8.4593,0.5112,9.6497
1,1,1,3,0,02.299,2299,4.3700,8.8000,0.6100,9.8442,-0.0142,-0.0142,0.0862,-27.38,87.75,30.63,4.5826,8.5042,0.5242,9.6745
1,1,1,3,0,02.429,2429,4.3200,9.1900,0.5500,10.1696,-0.0545,-0.0098,-0.0764,-27.63,87.94,31.06,4.5480,8.5946,0.5276,9.7380
1,1,1,3,0,02.560,2560,4.4700,9.2800,0.5200,10.3136,-0.0535,-0.0065,0.0502,-27.44,88.19,31.13,4.5377,8.6849,0.5266,9.8130
1,1,1,3,0,02.732,2732,5.0300,8.7300,0.4300,10.0846,-0.0600,-0.0218,-0.1233,-27.69,88.63,31.69,4.6026,8.6908,0.5139,9.8477
1,1,1,3,0,02.862,2862,4.5700,9.6000,0.2200,10.6345,-0.0524,-0.0033,0.3785,-27.25,89.00,31.56,4.5983,8.8106,0.4752,9.9497
1,1,1,3,0,02.992,2992,6.7700,10.5200,0.6900,12.5291,-0.0425,-0.0196,-0.3000,-29.13,89.25,33.63,4.8845,9.0359,0.5035,10.2839
1,1,1,3,0,03.122,3122,6.1500,10.6300,0.4900,12.2906,0.0338,-0.0175,0.1113,-28.75,89.19,33.31,5.0512,9.2459,0.5017,10.5477
1,1,1,3,0,03.252,3252,4.3700,10.2300,0.4200,11.1322,0.0829,-0.0316,-0.2847,-26.25,88.69,30.81,4.9615,9.3756,0.4909,10.6188
1,2,1,3,0,03.383,3383,3.8800,9.5100,0.5000,10.2832,0.1113,-0.0185,-0.0862,-25.13,87.81,29.63,4.8189,9.3933,0.4921,10.5688
1,2,1,3,0,03.513,3513,4.3200,8.3400,0.8300,9.4290,0.0731,-0.0011,-0.1265,-24.31,87.00,28.50,4.7532,9.2545,0.5366,10.4176
1,2,1,3,0,03.644,3644,3.0400,7.8100,0.6100,8.4030,0.0098,0.0305,-0.2782,-22.06,86.81,26.13,4.5274,9.0642,0.5463,10.1467
1,2,1,3,0,03.817,3817,3.6400,8.9700,0.5600,9.6966,-0.0796,0.0709,0.0676,-21.50,87.50,25.25,4.4105,9.0518,0.5481,10.0840
1,2,1,3,0,03.948,3948,4.0000,9.8400,0.3100,10.6265,-0.1145,0.0676,0.0742,-22.13,88.38,25.63,4.3564,9.1556,0.5167,10.1524
1,2,1,3,0,04.078,4078,3.9800,5.7300,0.4200,6.9893,0.0109,0.0295,-0.1364,-23.63,88.63,26.81,4.3068,8.7042,0.5040,9.7245
1,2,1,3,0,04.210,4210,3.7900,8.9000,0.1500,9.6745,-0.0164,0.0371,-0.4200,-20.88,88.88,23.94,4.2387,8.7300,0.4573,9.7154
1,2,1,3,0,04.340,4340,4.9500,9.4000,0.5200,10.6364,0.0284,0.0480,0.3807,-22.63,88.81,25.25,4.3324,8.8183,0.4656,9.8361
1,2,1,3,0,04.470,4470,3.2900,9.2500,0.4200,9.8266,0.0196,0.0393,-0.0022,-21.69,88.81,24.00,4.1951,8.8752,0.4596,9.8275
1,2,1,3,0,04.601,4601,4.0200,9.2400,0.5500,10.0916,0.0436,0.0164,-0.1494,-21.88,88.56,23.88,4.1720,8.9233,0.4715,9.8617
1,2,1,3,0,04.732,4732,3.7200,9.2200,0.4700,9.9533,0.0316,0.0000,-0.0993,-21.06,88.31,23.00,4.1124,8.9624,0.4713,9.8721
1,2,1,3,0,04.905,4905,3.9200,9.4000,0.5900,10.2017,0.0262,-0.0120,-0.1265,-20.69,87.88,22.44,4.0871,9.0200,0.4869,9.9148
1,2,1,3,0,05.039,5039,3.7200,9.3700,0.5200,10.0948,0.0185,-0.0240,-0.5847,-17.88,87.69,19.69,4.0387,9.0662,0.4913,9.9372
1,2,1,3,0,05.170,5170,2.1200,9.6700,0.4700,9.9108,0.0044,-0.0393,-1.1181,-10.56,87.63,12.63,3.7859,9.1457,0.4885,9.9104
1,2,1,3,0,05.300,5300,0.0700,9.7900,0.6000,9.8086,0.0349,-0.0175,0.2171,-8.94,87.44,11.13,3.2962,9.2306,0.5032,9.8144
1,2,1,3,0,05.431,5431,4.2300,9.7200,1.0200,10.6495,0.0327,-0.0327,-0.4014,-11.00,87.13,13.25,3.4193,9.2951,0.5713,9.9205
1,2,1,3,0,05.561,5561,0.1100,9.0000,0.6500,9.0241,0.0665,-0.0055,0.7592,-7.50,86.88,10.00,2.9832,9.2562,0.5817,9.7425
1,2,1,3,0,05.692,5692,4.1900,9.7700,1.0400,10.6813,-0.0284,-0.0360,-0.7614,-9.00,86.75,11.50,3.1422,9.3239,0.6421,9.8601
1,2,1,3,0,05.822,5822,2.1100,9.1100,1.1700,9.4241,-0.0240,-0.0120,-0.0458,-5.75,86.94,8.44,3.0062,9.2957,0.7116,9.7956
1,2,1,3,0,05.995,5995,-0.8000,8.4600,0.2500,8.5014,-0.0589,-0.0207,0.0000,-1.75,87.63,4.69,2.5046,9.1856,0.6508,9.5432
1,2,1,3,0,06.125,6125,2.0100,8.5900,0.3400,8.8286,-0.1331,-0.0393,-0.1920,-4.44,88.31,7.56,2.4395,9.1071,0.6098,9.4479
1,2,1,3,0,06.255,6255,0.2400,9.8500,0.3500,9.8591,-0.1014,-0.0305,0.2902,-3.94,89.13,7.38,2.1496,9.2050,0.5756,9.4702
1,2,1,3,0,06.385,6385,1.8100,9.7300,0.4200,9.9058,-0.0240,-0.0480,0.1440,-5.56,89.56,9.31,2.1049,9.2742,0.5551,9.5262
1,2,1,3,0,06.515,6515,0.2200,10.7600,-0.0800,10.7625,-0.0491,-0.0578,-0.0131,-5.63,89.88,9.88,1.8565,9.4700,0.4714,9.6617
1,2,1,3,0,06.645,6645,1.4400,10.1600,0.2500,10.2646,-0.0098,-0.0458,-0.0142,-6.94,89.88,11.50,1.8016,9.5609,0.4422,9.7392
1,2,1,3,0,06.776,6776,0.9100,10.5300,0.0600,10.5694,0.0131,-0.0502,-0.1582,-7.00,89.88,11.88,1.6841,9.6886,0.3919,9.8417
1,2,1,3,0,06.906,6906,1.5800,10.1900,0.3600,10.3180,0.0305,-0.0382,-0.0425,-6.63,89.69,11.81,1.6704,9.7547,0.3877,9.9043
1,2,1,3,0,07.079,7079,1.2300,10.5700,0.0000,10.6413,-0.0142,-0.0207,-0.0851,-5.88,89.63,11.38,1.6124,9.8621,0.3366,9.9987
1,2,1,3,0,07.210,7210,1.4500,11.2700,0.5800,11.3777,0.0033,0.0044,-0.0284,-5.75,89.56,11.25,1.5910,10.0476,0.3687,10.1795
1,2,1,3,0,07.340,7340,2.0000,11.8700,0.3400,12.0421,0.0273,0.0087,0.0796,-5.88,89.50,11.38,1.6449,10.2878,0.3649,10.4248
1,2,1,3,0,07.471,7471,1.0700,11.1100,0.3100,11.1657,0.0164,0.0087,0.1036,-5.19,89.38,10.63,1.5691,10.3961,0.3576,10.5200
1,2,1,3,0,07.602,7602,1.1100,10.4900,0.2800,10.5523,0.0022,-0.0044,-0.0207,-5.31,89.31,10.75,1.5086,10.4085,0.3474,10.5230
1,3,1,3,0,07.732,7732,0.8800,9.9800,0.3000,10.0232,0.0076,-0.0131,0.0240,-5.00,89.25,10.50,1.4258,10.3520,0.3412,10.4553
1,3,1,3,0,07.863,7863,0.8400,9.7800,0.3300,9.8216,0.0131,-0.0196,0.0764,-5.25,89.06,10.88,1.3486,10.2767,0.3397,10.3703
1,3,1,3,0,07.993,7993,1.0600,10.8900,0.3000,10.9456,0.0120,-0.0218,0.0938,-6.19,88.88,11.94,1.3106,10.3575,0.3345,10.4454
1,3,1,3,0,08.166,8166,1.8700,6.6500,0.3400,6.9163,0.0316,-0.0196,-0.4276,-7.19,88.63,13.00,1.3843,9.8689,0.3352,9.9712
1,3,1,3,0,08.301,8301,-0.8900,7.3300,0.1600,7.3856,-0.0535,-0.0120,-0.5672,-1.94,88.75,7.94,1.0846,9.5344,0.3121,9.6009
1,3,1,3,0,08.432,8432,-0.1400,10.2100,0.4100,10.2192,-0.0327,0.0218,0.3447,-1.69,89.06,7.56,0.9232,9.6234,0.3250,9.6730
1,3,1,3,0,08.562,8562,0.8300,9.6000,0.2700,9.6396,-0.0175,0.0382,0.3611,-5.06,89.19,10.69,0.9109,9.6203,0.3178,9.6686
1,3,1,3,0,08.693,8693,1.6000,10.0800,0.2100,10.2084,0.0109,0.0480,0.5792,-8.63,89.25,13.94,1.0017,9.6809,0.3036,9.7373
1,3,1,3,0,08.823,8823,2.0300,10.0900,0.7400,10.3188,0.0065,0.0316,-0.0284,-10.44,89.13,15.44,1.1372,9.7348,0.3611,9.8076
1,3,1,3,0,08.954,8954,1.8500,9.4400,0.3800,9.6271,0.0393,0.0240,-0.0665,-9.88,89.00,14.69,1.2312,9.6960,0.3636,9.7806
1,3,1,3,0,09.084,9084,2.4100,9.1300,0.1100,9.4434,0.0338,0.0207,-0.2313,-9.69,88.81,14.25,1.3865,9.6214,0.3302,9.7264
1,3,1,3,0,09.257,9257,1.8200,9.2200,0.2200,9.4005,0.0087,0.0316,0.0753,-9.38,88.69,13.63,1.4436,9.5685,0.3156,9.6819
1,3,1,3,0,09.387,9387,0.8700,8.7400,0.4300,8.7937,0.0164,0.0175,0.0076,-8.44,88.56,12.50,1.3680,9.4593,0.3307,9.5634
1,3,1,3,0,09.517,9517,2.1800,8.6000,0.5500,8.8890,0.0305,0.0120,0.1909,-9.13,88.50,13.06,1.4750,9.3461,0.3596,9.4686
1,3,1,3,0,09.647,9647,2.0800,9.4500,0.4700,9.6876,-0.0196,-0.0175,-0.4102,-9.13,88.50,13.06,1.5548,9.3598,0.3742,9.4954
1,3,1,3,0,09.777,9777,1.8200,9.6200,0.6000,9.8090,-0.0164,-0.0153,-0.1833,-6.63,88.56,10.75,1.5897,9.3941,0.4039,9.5362
1,3,1,3,0,09.908,9908,0.1200,10.3600,0.3000,10.3650,-0.0295,-0.0164,-0.2160,-3.44,88.81,7.81,1.3960,9.5213,0.3902,9.6311
1,3,1,3,0,10.038,10038,0.7400,10.3700,0.4000,10.4041,-0.0567,-0.0076,0.0415,-3.56,89.06,7.94,1.3096,9.6332,0.3915,9.7297
1,3,1,3,0,10.168,10168,0.4800,10.1700,0.2700,10.1849,-0.0894,-0.0207,0.0753,-3.50,89.44,8.00,1.2003,9.7039,0.3755,9.7851
1,3,1,3,0,10.341,10341,0.4700,10.6500,0.0200,10.6604,-0.0698,-0.0305,0.1353,-3.81,90.13,8.56,1.1040,9.8286,0.3287,9.8959
1,3,1,3,0,10.471,10471,0.8800,11.3800,0.1600,11.4151,-0.0262,-0.0338,0.0807,-4.75,90.44,9.75,1.0745,10.0330,0.3064,10.0951
1,3,1,3,0,10.601,10601,1.5700,12.1600,0.0000,12.2609,0.0098,-0.0240,-0.0753,-5.19,90.50,10.44,1.1398,10.3133,0.2660,10.3795
1,3,1,3,0,10.731,10731,-0.4400,11.7300,0.3500,11.7435,0.0720,-0.0065,0.0022,-2.69,90.25,8.13,0.9316,10.5000,0.2771,10.5449
1,4,1,3,0,10.861,10861,0.5000,10.3000,0.0700,10.3124,0.0818,-0.0055,-0.1145,-4.13,89.63,9.44,0.8748,10.4736,0.2498,10.5131
1,4,1,3,0,10.992,10992,0.6500,10.0700,0.3300,10.0964,0.0720,0.0022,-0.0764,-3.56,89.06,8.88,0.8451,10.4204,0.2604,10.4579
1,4,1,3,0,11.122,11122,-0.6600,9.6600,0.0700,9.6828,0.0567,0.0098,-0.0753,-2.81,88.63,8.06,0.6468,10.3202,0.2353,10.3432
1,4,1,3,0,11.253,11253,0.2400,9.6600,0.2200,9.6655,0.0076,0.0273,0.2302,-4.25,88.38,9.38,0.5932,10.2332,0.2333,10.2531
1,4,1,3,0,11.425,11425,2.6900,9.1800,0.4700,9.5775,0.0589,0.0371,0.4887,-8.38,88.00,13.13,0.8695,10.0944,0.2645,10.1353
1,4,1,3,0,11.555,11555,0.6100,6.3700,0.4400,6.4142,-0.0065,0.0109,-0.5760,-6.50,87.81,11.13,0.8353,9.6037,0.2876,9.6442
1,4,1,3,0,11.685,11685,0.5300,10.3200,0.5200,10.3467,-0.0033,0.0491,0.5716,-5.50,88.00,9.94,0.7951,9.6981,0.3182,9.7358
1,4,1,3,0,11.815,11815,0.8600,9.7000,0.5800,9.7553,-0.0087,0.0164,-0.2487,-6.31,88.00,10.50,0.8036,9.6983,0.3527,9.7379
1,4,1,3,0,11.945,11945,1.1900,9.7700,0.5000,9.8549,0.0207,0.0251,0.1440,-6.69,87.94,10.69,0.8545,9.7078,0.3721,9.7524
1,4,1,3,0,12.076,12076,1.5100,9.9200,0.4600,10.0448,-0.0087,0.0055,-0.1287,-7.44,87.81,11.31,0.9409,9.7357,0.3837,9.7886
1,4,1,3,0,12.206,12206,1.1900,9.7100,0.6200,9.8023,0.0120,0.0076,0.0240,-6.88,87.75,10.75,0.9737,9.7323,0.4148,9.7897
1,4,1,3,0,12.337,12337,1.2700,9.5500,0.5300,9.6486,0.0055,0.0044,0.0491,-7.06,87.69,10.94,1.0128,9.7083,0.4300,9.7705
1,4,1,3,0,12.510,12510,1.7400,8.5900,0.5800,8.7836,-0.0251,-0.0044,-0.0687,-7.31,87.63,11.19,1.1086,9.5609,0.4498,9.6355
1,4,1,3,0,12.641,12641,0.7200,8.7100,0.3900,8.7484,-0.0633,-0.0131,-0.1800,-5.94,87.94,9.88,1.0574,9.4488,0.4419,9.5181
1,4,1,3,0,12.772,12772,1.0600,9.2200,0.4400,9.2912,-0.0524,-0.0251,0.0698,-6.13,88.38,10.31,1.0577,9.4187,0.4417,9.4882
1,4,1,3,0,12.902,12902,1.6400,9.5800,0.3900,9.7272,-0.0524,-0.0229,0.4363,-8.19,88.69,12.56,1.1345,9.4399,0.4348,9.5178
1,4,1,3,0,13.033,13033,2.1000,9.9200,0.4400,10.1494,-0.0196,-0.0415,0.1320,-9.75,88.94,14.38,1.2617,9.5032,0.4355,9.5965
1,4,1,3,0,13.163,13163,1.4700,9.5700,0.2900,9.6866,-0.0404,-0.0578,-0.1909,-9.00,89.13,14.06,1.2891,9.5120,0.4164,9.6080
1,4,1,3,0,13.297,13297,1.6400,10.5400,0.1600,10.6680,-0.0316,-0.0524,0.0305,-9.38,89.19,14.88,1.3354,9.6475,0.3826,9.7469
1,4,1,3,0,13.428,13428,1.3700,10.6100,0.4000,10.7056,0.0153,-0.0535,-0.1593,-8.13,89.31,14.00,1.3399,9.7743,0.3849,9.8732
1,4,1,3,0,13.602,13602,0.7800,10.6300,0.3600,10.6647,-0.0055,-0.0316,-0.0316,-6.56,89.19,12.88,1.2662,9.8871,0.3816,9.9751
1,4,1,3,0,13.732,13732,0.6800,10.9600,0.2300,10.9835,0.0000,0.0011,0.0982,-6.81,89.13,13.25,1.1889,10.0284,0.3616,10.1051
1,4,1,3,0,13.863,13863,1.7700,11.5600,0.2800,11.6981,0.0033,0.0131,0.1407,-7.88,89.19,14.31,1.2655,10.2303,0.3509,10.3142
1,4,1,3,0,13.993,13993,1.7200,11.6500,0.3600,11.7818,0.0185,0.0196,0.1145,-8.06,89.06,14.38,1.3254,10.4173,0.3521,10.5072
1,4,1,3,0,14.124,14124,1.2700,10.9900,0.5600,11.0773,0.0349,0.0240,-0.0829,-7.56,88.88,13.69,1.3181,10.4928,0.3795,10.5821
1,5,1,3,0,14.254,14254,1.1100,10.3600,0.4700,10.4299,0.0425,0.0262,0.1058,-7.75,88.50,13.69,1.2907,10.4753,0.3914,10.5618
1,5,1,3,0,14.384,14384,0.9400,9.9200,0.4000,9.9725,0.0502,0.0196,0.1604,-8.50,88.06,14.19,1.2445,10.4021,0.3925,10.4837
1,5,1,3,0,14.515,14515,2.4800,9.6400,0.4500,9.9641,0.0196,0.0175,0.1440,-10.63,87.81,16.13,1.4073,10.3017,0.4001,10.4051
1,5,1,3,0,14.688,14688,2.0800,8.0600,0.6300,8.3479,0.0458,0.0164,-0.0971,-10.88,87.50,16.13,1.4959,10.0063,0.4304,10.1267
1,5,1,3,0,14.818,14818,0.1900,5.3700,0.2700,5.3801,-0.0327,0.0087,-0.6174,-7.44,87.44,12.63,1.3238,9.3954,0.4093,9.4970
1,5,1,3,0,14.948,14948,1.9500,10.7400,0.4800,10.9261,-0.0142,0.0447,0.5651,-6.75,87.81,11.81,1.4063,9.5725,0.4186,9.6844
1,5,1,3,0,15.078,15078,1.2400,9.5900,0.3400,9.6758,-0.0535,0.0185,-0.3011,-7.81,88.00,12.69,1.3844,9.5748,0.4082,9.6830
1,5,1,3,0,15.208,15208,1.3000,9.6000,0.3600,9.6943,-0.0644,0.0371,0.1484,-7.63,88.38,12.38,1.3733,9.5782,0.4019,9.6845
1,5,1,3,0,15.338,15338,2.2600,9.7700,0.3600,10.0344,-0.0556,0.0305,-0.0491,-8.69,88.75,13.25,1.4901,9.6034,0.3964,9.7264
1,5,1,3,0,15.469,15469,1.1500,9.8600,0.1500,9.9280,-0.0742,0.0273,0.0338,-8.31,89.31,12.69,1.4453,9.6372,0.3639,9.7518
1,5,1,3,0,15.599,15599,1.5100,10.2300,0.2600,10.3441,-0.0545,0.0338,0.2040,-9.50,89.81,13.69,1.4538,9.7154,0.3502,9.8298
1,5,1,3,0,15.772,15772,1.5700,9.3500,0.5000,9.4941,-0.0153,0.0284,0.0753,-11.06,90.06,15.00,1.4692,9.6672,0.3699,9.7852
1,5,1,3,0,15.903,15903,2.2200,9.4500,0.2100,9.7095,0.0262,0.0338,0.3349,-12.56,90.06,16.25,1.5681,9.6386,0.3489,9.7715
1,5,1,3,0,16.034,16034,2.7400,9.1700,-0.2900,9.5750,0.0447,0.0055,0.0065,-14.69,89.75,18.13,1.7225,9.5768,0.2647,9.7341
1,5,1,3,0,16.164,16164,2.2200,8.4200,-0.1100,8.7084,0.0796,-0.0142,-0.2105,-13.81,89.25,17.19,1.7881,9.4244,0.2153,9.5949
1,5,1,3,0,16.295,16295,2.0100,9.7300,0.0700,9.9357,0.1036,-0.0109,0.3109,-14.31,88.50,17.63,1.8173,9.4647,0.1962,9.6396
1,5,1,3,0,16.425,16425,3.6400,9.4800,0.6600,10.1762,0.1200,-0.0447,-0.1276,-17.19,87.56,20.38,2.0575,9.4667,0.2573,9.6911
1,5,1,3,0,16.558,16558,2.6400,9.0800,0.7600,9.4865,0.0894,-0.0502,-0.2465,-15.81,86.69,19.06,2.1343,9.4157,0.3235,9.6600
1,5,1,3,0,16.689,16689,2.2600,9.4600,0.8000,9.7591,0.0774,-0.0393,0.0687,-14.88,85.94,18.31,2.1508,9.4216,0.3863,9.6717
1,5,1,3,0,16.864,16864,2.1100,9.7400,1.1600,10.0332,-0.0033,-0.0611,-0.4669,-13.00,85.44,16.81,2.1454,9.4635,0.4883,9.7160
1,5,1,3,0,16.994,16994,1.6600,9.7900,1.0700,9.9872,-0.0807,-0.0589,-0.2640,-10.56,85.81,14.88,2.0815,9.5065,0.5649,9.7481
1,5,1,3,0,17.125,17125,1.6200,9.9000,0.8600,10.0685,-0.1724,-0.0644,-0.1538,-9.19,86.81,14.06,2.0207,9.5584,0.6038,9.7883
1,5,1,3,0,17.255,17255,1.1400,10.5100,0.7000,10.5948,-0.2171,-0.0447,0.2934,-9.44,88.06,14.94,1.9046,9.6838,0.6165,9.8886
1,5,1,3,0,17.386,17386,2.4700,12.0700,0.4300,12.3276,-0.1691,-0.0469,-0.0676,-10.56,89.44,16.63,1.9791,9.9982,0.5919,10.2094
1,5,1,3,0,17.516,17516,2.3800,11.9300,-0.1000,12.1655,-0.0644,-0.0425,0.0578,-10.31,90.25,16.88,2.0319,10.2528,0.5007,10.4642
1,5,1,3,0,17.646,17646,1.0300,11.1900,0.2500,11.2401,-0.0098,-0.0109,-0.1462,-8.63,90.31,15.44,1.8999,10.3763,0.4677,10.5592
1,6,1,3,0,17.777,17777,0.8500,10.4100,0.0100,10.4446,0.0284,0.0382,0.0316,-8.38,90.06,15.00,1.7616,10.3807,0.4074,10.5370
1,6,1,3,0,17.950,17950,1.7000,9.9600,0.2300,10.1067,0.0458,0.0480,0.0753,-8.50,89.75,14.63,1.7535,10.3253,0.3840,10.4802
1,6,1,3,0,18.080,18080,2.0000,10.5900,0.1700,10.7785,0.0731,0.0436,0.2923,-9.25,89.38,15.00,1.7859,10.3602,0.3558,10.5190
1,6,1,3,0,18.210,18210,2.0800,6.7100,0.2200,7.0284,0.0818,0.0153,0.0044,-10.19,88.75,15.63,1.8247,9.8792,0.3379,10.0520
1,6,1,3,0,18.341,18341,-0.5900,7.6400,0.0000,7.6627,0.0218,-0.0011,-0.4931,-7.13,88.38,12.50,1.5065,9.5841,0.2934,9.7062
1,6,1,3,0,18.471,18471,2.0600,10.0500,0.2800,10.2628,0.0502,0.0076,0.3502,-8.31,88.13,13.63,1.5794,9.6455,0.2916,9.7783
1,6,1,3,0,18.601,18601,1.1600,9.6200,0.5700,9.7064,0.0436,-0.0153,-0.1265,-8.94,87.69,14.19,1.5242,9.6421,0.3283,9.7674
1,6,1,3,0,18.731,18731,1.4800,9.5500,0.8000,9.6971,0.0273,0.0044,0.2629,-9.38,87.44,14.63,1.5183,9.6300,0.3905,9.7568
1,6,1,3,0,18.861,18861,1.5400,9.9500,0.8200,10.1018,-0.0098,-0.0065,0.2367,-11.19,87.38,16.38,1.5212,9.6722,0.4471,9.8013
1,6,1,3,0,19.034,19034,1.8000,9.5200,0.4400,9.6987,-0.0731,-0.0164,-0.0709,-13.19,87.38,18.50,1.5579,9.6521,0.4461,9.7872
1,6,1,3,0,19.165,19165,2.3400,9.4400,0.5400,9.7407,-0.0535,-0.0098,0.3425,-13.81,87.81,19.31,1.6610,9.6242,0.4585,9.7772
1,6,1,3,0,19.296,19296,1.7200,9.4900,0.4500,9.6551,-0.0884,-0.0218,-0.2553,-13.50,88.38,19.25,1.6688,9.6065,0.4574,9.7611
1,6,1,3,0,19.426,19426,2.0200,9.5800,0.3200,9.7959,-0.0829,-0.0185,-0.1953,-13.00,88.94,19.00,1.7151,9.6030,0.4393,9.7648
1,6,1,3,0,19.557,19557,3.0300,9.6400,0.2100,10.1072,-0.0644,-0.0120,0.1407,-13.19,89.38,19.44,1.8883,9.6079,0.4091,9.8002
1,6,1,3,0,19.687,19687,2.1800,8.1900,0.1200,8.4760,-0.0305,-0.0273,-0.1102,-12.88,89.69,19.38,1.9268,9.4210,0.3710,9.6232
1,6,1,3,0,19.820,19820,2.6900,8.4900,0.3100,8.9114,-0.0142,-0.0284,0.0753,-13.13,89.81,19.81,2.0273,9.2983,0.3629,9.5237
1,6,1,3,0,19.951,19951,2.7700,9.0400,-0.0700,9.4551,-0.0098,-0.0458,-0.1756,-12.25,89.88,19.25,2.1252,9.2643,0.3059,9.5099
1,6,1,3,0,20.126,20126,2.9100,9.7800,0.1500,10.2049,0.0251,-0.0502,0.4549,-13.88,89.69,21.38,2.2286,9.3323,0.2853,9.5989
1,6,1,3,0,20.256,20256,3.7100,10.1200,0.4500,10.7880,0.0371,-0.0720,-0.1091,-15.25,89.31,23.13,2.4238,9.4361,0.3070,9.7472
1,6,1,3,0,20.387,20387,2.3300,9.5000,0.3700,9.7886,0.0698,-0.0633,-0.2640,-12.63,88.88,20.94,2.4115,9.4445,0.3153,9.7526
1,6,1,3,0,20.517,20517,1.8500,10.0000,0.2500,10.1728,0.0644,-0.0338,-0.0753,-10.94,88.44,19.63,2.3375,9.5177,0.3067,9.8053
1,6,1,3,0,20.648,20648,0.7700,10.5100,0.5800,10.5541,0.0305,-0.0185,-0.2902,-8.38,88.06,17.13,2.1309,9.6485,0.3427,9.8869
1,6,1,3,0,20.778,20778,1.5300,10.3900,0.5800,10.5181,0.0600,0.0076,-0.0480,-8.31,87.69,17.06,2.0517,9.7462,0.3740,9.9668
1,6,1,3,0,20.909,20909,0.5700,10.0700,0.8600,10.1227,0.0316,0.0349,0.2760,-7.69,87.19,16.25,1.8565,9.7888,0.4380,9.9730
1,6,1,3,0,21.039,21039,1.9100,11.0700,0.5700,11.2480,-0.0142,0.0535,0.2083,-9.44,87.19,17.63,1.8635,9.9577,0.4554,10.1408
1,6,1,3,0,21.212,21212,1.6400,11.3400,0.5900,11.4732,-0.0175,0.0545,0.0425,-10.88,87.50,18.63,1.8341,10.1398,0.4732,10.3152
1,6,1,3,0,21.342,21342,2.2800,10.6600,0.6500,10.9205,-0.0196,0.0567,0.1134,-11.94,87.69,19.31,1.8928,10.2084,0.4965,10.3942
1,6,1,3,0,21.472,21472,3.1600,10.4900,0.3200,10.9603,-0.0545,0.0633,0.1538,-13.31,88.00,20.31,2.0598,10.2455,0.4732,10.4612
1,7,1,3,0,21.602,21602,2.2400,9.9700,0.6400,10.2386,-0.0284,0.0480,-0.1865,-12.56,88.31,19.19,2.0836,10.2092,0.4952,10.4314
1,7,1,3,0,21.732,21732,0.8400,9.9000,0.1900,9.9374,-0.0545,0.0447,-0.0796,-12.19,88.69,18.56,1.9197,10.1684,0.4550,10.3581
1,7,1,3,0,21.862,21862,3.1900,8.5500,0.4800,9.1383,0.0033,0.0491,0.4298,-14.06,89.00,20.13,2.0871,9.9552,0.4583,10.1819
1,7,1,3,0,21.993,21993,2.3100,6.1800,0.3500,6.6069,-0.0175,0.0120,-0.7909,-13.13,89.19,19.00,2.1165,9.4577,0.4440,9.7018
1,7,1,3,0,22.124,22124,-0.4200,9.6500,-0.2100,9.6614,-0.0196,0.0382,0.2356,-8.88,89.56,14.69,1.7822,9.4830,0.3578,9.6557
1,7,1,3,0,22.296,22296,3.4700,10.2000,0.0300,10.7741,0.0196,0.0087,-0.1047,-13.44,89.56,18.94,2.0046,9.5775,0.3146,9.7901
1,7,1,3,0,22.426,22426,2.3400,9.8100,0.2400,10.0881,0.0589,-0.0055,-0.2585,-12.31,89.19,17.75,2.0488,9.6082,0.3048,9.8289
1,7,1,3,0,22.556,22556,1.8400,9.5900,0.6100,9.7840,0.1254,0.0011,-0.0240,-10.44,88.50,15.75,2.0213,9.6058,0.3450,9.8222
1,7,1,3,0,22.686,22686,1.3500,9.5600,0.3500,9.6612,0.0535,-0.0109,-0.2171,-8.88,87.88,14.19,1.9328,9.5997,0.3457,9.7985
1,7,1,3,0,22.816,22816,1.4800,9.1700,0.6200,9.3093,0.0131,-0.0044,-0.0098,-8.69,87.63,13.94,1.8732,9.5431,0.3818,9.7327
1,7,1,3,0,22.947,22947,1.5800,8.9900,0.4200,9.1374,-0.0207,-0.0175,0.0087,-8.81,87.69,14.13,1.8345,9.4702,0.3868,9.6540
1,7,1,3,0,23.077,23077,2.0100,8.8200,0.2500,9.0496,-0.0327,-0.0229,0.0774,-9.00,87.88,14.50,1.8577,9.3845,0.3688,9.5737
1,7,1,3,0,23.208,23208,1.4000,8.7600,0.4200,8.8811,-0.0240,-0.0382,-0.2225,-8.19,88.00,13.94,1.7974,9.3022,0.3756,9.4817
1,7,1,3,0,23.381,23381,1.3600,9.4100,0.4000,9.5162,0.0251,-0.0207,0.7679,-10.19,87.94,16.25,1.7397,9.3164,0.3788,9.4850
1,7,1,3,0,23.512,23512,3.5700,10.3800,0.8200,11.0073,0.0164,-0.0567,-0.0316,-14.38,87.69,20.63,1.9809,9.4566,0.4369,9.6717
1,7,1,3,0,23.642,23642,1.3800,9.9200,0.5800,10.0323,0.0284,-0.0764,-0.2018,-11.75,87.31,18.50,1.9017,9.5177,0.4558,9.7165
1,7,1,3,0,23.773,23773,1.4800,9.5300,0.5600,9.6605,0.0360,-0.0840,-0.3665,-10.38,87.00,17.63,1.8461,9.5193,0.4695,9.7080
1,7,1,3,0,23.903,23903,1.6400,9.9500,0.5500,10.0992,0.0000,-0.0654,-0.0709,-9.00,86.88,16.81,1.8190,9.5760,0.4801,9.7591
1,7,1,3,0,24.034,24034,0.4500,9.8500,0.7600,9.8895,-0.0240,-0.0447,-0.0218,-7.44,86.75,15.63,1.6386,9.6121,0.5170,9.7645
1,7,1,3,0,24.165,24165,2.3000,10.6000,0.5600,10.8611,-0.0753,-0.0251,-0.0022,-8.31,87.13,16.81,1.7257,9.7423,0.5227,9.9078
1,7,1,3,0,24.296,24296,0.5700,11.9300,0.4200,11.9510,-0.0960,-0.0207,0.1625,-7.81,87.69,16.56,1.5734,10.0306,0.5091,10.1660
1,7,1,3,0,24.469,24469,2.7400,12.1400,0.4500,12.4535,-0.0480,-0.0109,0.1396,-11.06,88.19,20.00,1.7272,10.3086,0.5013,10.4643
1,7,1,3,0,24.602,24602,2.5400,11.3300,0.6000,11.6267,-0.0098,0.0044,0.1953,-12.69,88.38,21.63,1.8343,10.4432,0.5143,10.6155
1,8,1,3,0,24.733,24733,2.3000,10.0200,0.3800,10.2876,0.0109,0.0273,0.0273,-12.44,88.38,21.31,1.8956,10.3874,0.4966,10.5706
1,8,1,3,0,24.864,24864,1.4500,10.1900,0.5100,10.3053,-0.0175,0.0327,0.0447,-12.19,88.50,20.94,1.8369,10.3614,0.4984,10.5348
1,8,1,3,0,24.994,24994,2.0300,9.6800,0.4700,9.9017,-0.0251,0.0153,-0.0862,-12.06,88.50,20.56,1.8624,10.2716,0.4947,10.4508
1,8,1,3,0,25.125,25125,2.4600,10.0400,0.3700,10.3436,0.0044,0.0142,0.0578,-12.88,88.56,21.31,1.9411,10.2411,0.4782,10.4344
1,8,1,3,0,25.255,25255,0.9300,6.1100,0.2100,6.1839,0.0175,0.0109,-0.5803,-11.00,88.38,19.31,1.8079,9.6967,0.4429,9.8737
1,8,1,3,0,25.386,25386,0.1100,9.0100,-0.0400,9.0108,-0.0545,0.0349,0.1200,-9.00,88.69,17.25,1.5841,9.6062,0.3793,9.7433
1,8,1,3,0,25.559,25559,3.2100,9.9200,0.0400,10.4265,0.0076,0.0273,0.1200,-13.94,88.69,21.81,1.7984,9.6476,0.3345,9.8195
1,8,1,3,0,25.690,25690,2.5200,9.4400,0.2400,9.7735,0.0502,0.0251,-0.1200,-13.19,88.50,20.88,1.8935,9.6202,0.3221,9.8101
1,8,1,3,0,25.820,25820,2.8800,9.4300,0.4200,9.8689,0.0436,0.0185,-0.2236,-12.06,88.19,19.50,2.0235,9.5951,0.3350,9.8119
1,8,1,3,0,25.950,25950,2.1900,9.5200,0.6400,9.7896,0.0611,0.0229,-0.0480,-10.63,87.88,17.81,2.0454,9.5852,0.3752,9.8082
1,8,1,3,0,26.081,26081,1.6800,9.2700,0.4300,9.4308,0.0698,0.0284,0.0829,-10.31,87.50,17.31,1.9973,9.5437,0.3824,9.7580
1,8,1,3,0,26.211,26211,1.7700,9.9200,0.4000,10.0846,0.0709,0.0295,0.5770,-12.00,87.06,18.75,1.9673,9.5933,0.3847,9.8005
1,8,1,3,0,26.341,26341,3.2700,9.8100,0.8300,10.3739,0.0305,0.0011,-0.2127,-14.38,86.56,20.88,2.1390,9.6218,0.4434,9.8667
1,8,1,3,0,26.471,26471,2.1400,8.7200,0.9400,9.0278,0.0033,0.0065,-0.1462,-12.75,86.50,19.25,2.1391,9.5030,0.5088,9.7541
1,8,1,3,0,26.645,26645,2.3800,8.8800,0.7800,9.2264,-0.0731,-0.0044,-0.1440,-11.69,86.88,18.25,2.1709,9.4209,0.5446,9.6831
1,8,1,3,0,26.776,26776,1.1600,8.5400,0.5200,8.6341,-0.1091,-0.0295,-0.5749,-8.69,87.56,15.50,2.0377,9.3048,0.5413,9.5407
1,8,1,3,0,26.911,26911,-0.3800,8.6900,0.1100,8.6990,-0.1091,-0.0436,-0.4778,-4.19,88.31,11.31,1.7191,9.2238,0.4845,9.3951
1,8,1,3,0,27.042,27042,1.2300,10.1300,0.2700,10.2080,-0.0774,-0.0425,-0.2738,-3.88,88.94,11.31,1.6546,9.3432,0.4562,9.4996
1,8,1,3,0,27.173,27173,0.0000,10.0900,0.2000,10.0920,-0.0393,-0.0338,-0.0109,-1.50,89.25,9.31,1.4366,9.4416,0.4225,9.5596
1,8,1,3,0,27.303,27303,0.4600,10.9100,0.2300,10.9221,-0.0382,-0.0338,-0.3087,-1.00,89.50,9.00,1.3079,9.6351,0.3971,9.7316
1,8,1,3,0,27.434,27434,-0.4600,10.3100,0.1100,10.3208,-0.0164,-0.0207,-0.0971,0.00,89.63,8.19,1.0749,9.7241,0.3593,9.7899
1,8,1,3,0,27.564,27564,-0.2100,10.5600,-0.0300,10.5621,-0.0142,-0.0109,-0.0633,0.13,89.75,8.13,0.9056,9.8342,0.3080,9.8806
1,8,1,3,0,27.737,27737,-0.2400,11.8500,-0.0200,11.8524,-0.0087,0.0240,0.0109,-0.81,89.88,9.06,0.7546,10.0998,0.2648,10.1315
1,8,1,3,0,27.867,27867,-0.3700,12.0900,0.3700,12.1013,0.0120,0.0327,0.0022,-0.63,89.81,8.63,0.6064,10.3621,0.2786,10.3836
1,8,1,3,0,27.997,27997,0.0700,11.0600,0.2200,11.0624,0.0720,0.0371,-0.2007,-0.56,89.44,8.31,0.5358,10.4541,0.2709,10.4713
1,8,1,3,0,28.127,28127,-0.0600,10.5700,0.1000,10.5706,0.0447,0.0567,-0.0415,0.00,89.00,7.38,0.4573,10.4693,0.2484,10.4823
1,9,1,3,0,28.257,28257,-0.1200,9.7100,0.4900,9.7231,0.0382,0.0720,0.2902,-0.19,88.63,7.13,0.3812,10.3693,0.2802,10.3801
1,9,1,3,0,28.387,28387,0.1800,9.4100,0.1500,9.4129,0.0120,0.0404,0.0316,-1.19,88.50,7.69,0.3547,10.2429,0.2631,10.2524
1,9,1,3,0,28.518,28518,0.4300,11.9500,0.4200,11.9651,0.0349,0.0349,0.4865,-3.50,88.44,9.69,0.3646,10.4678,0.2837,10.4780
1,9,1,3,0,28.649,28649,-0.2500,5.6200,0.3000,5.6336,0.0949,0.0142,-0.0589,-4.94,87.75,10.94,0.2836,9.8290,0.2859,9.8373
1,9,1,3,0,28.821,28821,1.5200,10.2900,0.6900,10.4245,0.0513,0.0262,0.3076,-4.81,87.38,10.56,0.4465,9.8898,0.3391,9.9056
1,9,1,3,0,28.951,28951,0.7700,9.9900,0.7300,10.0462,0.0589,-0.0022,-0.3938,-4.56,86.94,10.25,0.4892,9.9030,0.3906,9.9227
1,9,1,3,0,29.081,29081,0.9100,8.9500,0.7100,9.0241,0.0404,0.0120,0.1353,-3.88,86.56,9.44,0.5446,9.7774,0.4327,9.8021
1,9,1,3,0,29.211,29211,0.9900,9.7000,0.7400,9.7784,-0.0458,0.0044,0.2051,-5.00,86.63,10.63,0.6033,9.7672,0.4732,9.7972
1,9,1,3,0,29.341,29341,0.6600,9.5800,0.6300,9.6234,-0.1124,-0.0055,-0.0415,-4.81,87.25,10.44,0.6108,9.7425,0.4939,9.7741
1,9,1,3,0,29.472,29472,1.5900,9.7100,0.4200,9.8483,-0.1309,0.0142,0.4691,-6.44,88.06,12.19,0.7398,9.7382,0.4841,9.7783
1,9,1,3,0,29.602,29602,0.7600,10.2300,0.2800,10.2620,-0.1385,0.0033,0.1920,-6.88,89.19,12.69,0.7425,9.8030,0.4572,9.8417
1,9,1,3,0,29.733,29733,1.1900,9.5400,0.2400,9.6169,-0.0720,-0.0011,-0.0033,-7.50,89.81,13.44,0.8014,9.7684,0.4286,9.8106
1,9,1,3,0,29.906,29906,2.0700,8.9600,0.2300,9.1989,-0.0044,-0.0142,0.0175,-9.19,90.06,15.13,0.9686,9.6619,0.4024,9.7186
1,9,1,3,0,30.037,30037,1.0000,8.5900,0.1100,8.6487,-0.0098,-0.0415,-0.4069,-7.75,90.06,13.94,0.9727,9.5206,0.3639,9.5771
1,9,1,3,0,30.167,30167,0.4900,8.5400,0.2700,8.5583,0.0120,-0.0338,0.3971,-6.56,90.00,13.06,0.9091,9.3914,0.3515,9.4418
1,9,1,3,0,30.298,30298,1.9300,9.5600,0.1600,9.7542,-0.0229,-0.0524,0.1734,-9.94,90.00,16.75,1.0437,9.4136,0.3263,9.4769
1,9,1,3,0,30.428,30428,2.3600,9.8100,0.2200,10.0923,-0.0371,-0.0567,0.0698,-11.13,90.00,18.25,1.2171,9.4658,0.3123,9.5489
1,9,1,3,0,30.559,30559,1.1200,10.1100,-0.0800,10.1722,-0.0665,-0.0469,0.0120,-10.25,90.38,17.94,1.2043,9.5507,0.2606,9.6299
1,9,1,3,0,30.690,30690,2.4100,10.7100,-0.0900,10.9782,-0.0829,-0.0491,-0.1865,-10.44,90.88,18.50,1.3632,9.7035,0.2144,9.8011
1,9,1,3,0,30.826,30826,0.4900,10.2900,-0.2100,10.3038,-0.0764,-0.0567,-0.4985,-6.75,91.31,15.31,1.2481,9.7808,0.1585,9.8614
1,9,1,3,0,30.999,30999,0.0600,11.1000,-0.4000,11.1074,-0.0753,-0.0360,-0.3251,-4.81,91.75,13.88,1.0916,9.9546,0.0849,10.0146
1,9,1,3,0,31.129,31129,1.3500,12.5000,-0.0900,12.5730,0.0076,-0.0011,-0.1080,-4.94,91.94,14.13,1.1256,10.2900,0.0618,10.3516
1,9,1,3,0,31.259,31259,0.2000,12.0600,0.0400,12.0617,0.0393,0.0251,0.0087,-3.94,91.75,13.00,1.0036,10.5233,0.0590,10.5712
1,9,1,3,0,31.389,31389,-0.4600,11.4100,-0.1600,11.4204,0.0905,0.0480,-0.1582,-2.88,91.25,11.63,0.8108,10.6401,0.0301,10.6710
1,9,1,3,0,31.519,31519,0.3700,10.8400,0.1000,10.8468,0.1145,0.0698,-0.1396,-2.75,90.44,11.00,0.7527,10.6665,0.0393,10.6931
1,10,1,3,0,31.650,31650,0.4800,9.8300,0.2900,9.8460,0.1178,0.0753,-0.0393,-2.56,89.56,10.25,0.7168,10.5562,0.0723,10.5808
1,10,1,3,0,31.780,31780,-0.2000,9.1000,0.0800,9.1025,0.0676,0.0698,-0.0753,-2.31,89.00,9.44,0.5960,10.3643,0.0734,10.3817
1,10,1,3,0,31.911,31911,0.3400,10.0700,0.1500,10.0769,0.0033,0.0545,0.2673,-2.56,88.69,9.25,0.5622,10.3256,0.0835,10.3412
1,10,1,3,0,32.084,32084,1.8300,8.5400,0.3900,8.7426,0.0818,0.0207,0.1276,-4.56,88.19,10.88,0.7293,10.0903,0.1239,10.1173
1,10,1,3,0,32.215,32215,-0.7600,6.4100,0.4600,6.4713,0.0262,0.0022,-0.4200,-2.38,87.81,8.63,0.5330,9.6053,0.1681,9.6215
1,10,1,3,0,32.346,32346,1.2100,10.8300,0.4700,10.9075,-0.0142,0.0164,0.5465,-3.38,87.81,9.50,0.6222,9.7667,0.2079,9.7887
1,10,1,3,0,32.476,32476,0.1900,9.5200,0.5700,9.5389,0.0087,-0.0142,-0.2258,-4.00,87.75,10.13,0.5653,9.7342,0.2556,9.7539
1,10,1,3,0,32.607,32607,0.5500,9.7000,0.6900,9.7401,-0.0175,0.0033,0.3131,-4.44,87.88,10.63,0.5633,9.7297,0.3129,9.7510
1,10,1,3,0,32.738,32738,1.2300,9.5200,0.5600,9.6155,-0.0665,-0.0065,0.0196,-6.25,88.19,12.44,0.6511,9.7020,0.3454,9.7300
1,10,1,3,0,32.874,32874,0.8400,9.3800,0.3300,9.4233,-0.0894,-0.0076,0.0960,-6.19,88.75,12.44,0.6760,9.6596,0.3434,9.6893
1,10,1,3,0,33.004,33004,1.4600,9.7100,0.4200,9.8281,-0.0491,-0.0098,0.0295,-6.81,89.19,13.13,0.7793,9.6662,0.3535,9.7041
1,10,1,3,0,33.177,33177,1.1000,8.0000,0.1600,8.0769,-0.0327,-0.0305,-0.1625,-5.94,89.50,12.56,0.8216,9.4467,0.3280,9.4880
1,10,1,3,0,33.307,33307,0.1800,8.7300,0.1500,8.7331,-0.0513,-0.0142,0.2411,-5.50,89.81,12.31,0.7370,9.3522,0.3045,9.3862
1,10,1,3,0,33.437,33437,1.9500,9.2600,0.0900,9.4635,-0.0840,-0.0142,0.1134,-8.25,90.25,15.19,0.8969,9.3401,0.2763,9.3871
1,10,1,3,0,33.567,33567,2.4800,9.6200,0.2600,9.9379,-0.0720,-0.0109,0.5116,-10.06,90.81,17.13,1.1055,9.3770,0.2741,9.4459
1,10,1,3,0,33.698,33698,1.3900,10.4800,-0.1900,10.5735,-0.0894,-0.0229,-0.0676,-10.31,91.50,17.63,1.1430,9.5223,0.2130,9.5930
1,10,1,3,0,33.828,33828,1.4800,10.6800,-0.1500,10.7831,-0.0949,-0.0295,0.0065,-9.69,91.94,17.31,1.1874,9.6749,0.1651,9.7489
1,10,1,3,0,33.958,33958,2.0800,9.7100,-0.2200,9.9327,-0.0251,-0.0338,-0.0709,-9.63,92.25,17.56,1.3050,9.6795,0.1144,9.7677
1,10,1,3,0,34.089,34089,1.5200,10.5800,-0.2700,10.6920,-0.0185,-0.0327,-0.3120,-8.50,92.50,16.75,1.3333,9.7982,0.0637,9.8887
1,10,1,3,0,34.262,34262,0.4800,11.1700,-0.5200,11.1924,0.0131,0.0011,0.1407,-7.50,92.38,15.88,1.2209,9.9789,-0.0132,10.0534
1,10,1,3,0,34.392,34392,3.2200,12.7500,-0.2000,13.1518,0.0458,0.0196,0.1462,-10.13,92.25,18.31,1.4843,10.3441,-0.0378,10.4501
1,10,1,3,0,34.523,34523,1.4900,11.6600,-0.2900,11.7584,0.0905,0.0120,-0.1265,-9.06,91.63,17.06,1.4851,10.5175,-0.0710,10.6221
1,10,1,3,0,34.654,34654,-0.1800,10.2700,0.0400,10.2717,0.1745,0.0185,-0.0644,-8.44,90.63,16.19,1.2657,10.4849,-0.0564,10.5611
1,10,1,3,0,34.784,34784,2.1300,9.3600,0.3400,9.6053,0.1320,0.0338,0.0829,-9.63,89.63,17.00,1.3796,10.3367,-0.0042,10.4283
1,10,1,3,0,34.915,34915,0.6200,9.8900,-0.1100,9.9100,0.0076,0.0022,-0.5094,-9.00,89.13,16.13,1.2795,10.2778,-0.0181,10.3571
1,10,1,3,0,35.045,35045,2.5000,9.6900,0.6800,10.0304,0.0567,0.0338,0.4723,-9.44,88.88,16.38,1.4403,10.2003,0.0739,10.3018
1,10,1,3,0,35.178,35178,2.3500,9.7600,0.3500,10.0450,0.0098,0.0207,0.2531,-10.63,88.69,17.38,1.5602,10.1423,0.1103,10.2622
1,10,1,3,0,35.353,35353,3.4300,5.8700,0.5500,6.8209,0.0415,0.0098,0.0316,-11.88,88.56,18.44,1.8066,9.5793,0.1682,9.7496
