participant,rep,equipment_code,exercise_code,quality_code,timestamp,timestamp_ms,accelX,accelY,accelZ,accelMag,gyroX,gyroY,gyroZ,roll,pitch,yaw,filteredX,filteredY,filteredZ,filteredMag
1,1,1,3,0,00.000,0,-5.8400,7.4000,0.1100,9.4275,-0.0087,0.0251,0.0360,38.00,89.38,249.06,-5.9685,7.5733,0.0109,9.6425
1,1,1,3,0,00.130,130,-5.5900,7.3600,0.0200,9.2422,-0.0404,0.0076,-0.0654,38.13,89.44,248.75,-5.9186,7.5452,0.0121,9.5896
1,1,1,3,0,00.260,260,-6.3600,7.6500,0.0300,9.9485,-0.0360,0.0011,-0.2018,39.13,89.75,247.56,-5.9768,7.5590,0.0144,9.6364
1,1,1,3,0,00.390,390,-6.3100,7.2900,-0.0500,9.6417,-0.0415,0.0109,-0.0818,40.38,89.94,246.19,-6.0207,7.5235,0.0059,9.6360
1,1,1,3,0,00.563,563,-6.7200,7.8300,-0.1500,10.3194,-0.0196,0.0109,0.1091,39.88,90.13,246.50,-6.1128,7.5639,-0.0146,9.7252
1,1,1,3,0,00.696,696,-5.3700,6.3800,-0.2900,8.3442,-0.0175,0.0087,0.1833,38.75,90.06,247.50,-6.0150,7.4079,-0.0509,9.5425
1,1,1,3,0,00.827,827,-6.3000,8.0600,-0.3400,10.2357,0.0055,-0.0164,0.1156,37.19,90.38,249.00,-6.0525,7.4938,-0.0890,9.6332
1,1,1,3,0,00.961,961,-5.2800,7.4100,0.6800,9.1241,-0.0556,-0.0305,0.1876,36.19,90.81,250.00,-5.9507,7.4828,0.0123,9.5605
1,1,1,3,0,01.092,1092,-6.4500,8.3100,0.0600,10.5196,-0.0567,-0.0327,-0.0393,35.94,91.44,250.19,-6.0165,7.5918,0.0186,9.6868
1,1,1,3,0,01.222,1222,-5.4800,7.9000,-0.4700,9.6261,0.0000,-0.0076,-0.0622,36.19,91.75,249.88,-5.9458,7.6324,-0.0458,9.6751
1,1,1,3,0,01.352,1352,-6.0400,7.9600,-0.6000,10.0102,-0.0065,-0.0087,-0.0785,36.88,91.94,249.19,-5.9582,7.6756,-0.1188,9.7175
1,1,1,3,0,01.483,1483,-4.9800,6.9300,-0.3100,8.5394,0.0153,-0.0262,0.0142,37.00,92.13,249.13,-5.8293,7.5773,-0.1440,9.5613
1,1,1,3,0,01.656,1656,-5.3100,6.5900,0.0100,8.4631,0.0240,-0.0185,-0.0873,37.06,92.19,249.31,-5.7609,7.4472,-0.1237,9.4162
1,1,1,3,0,01.787,1787,-5.9700,7.9700,-0.5300,9.9721,0.0044,-0.0055,0.0425,37.56,92.25,248.94,-5.7884,7.5161,-0.1772,9.4884
1,1,1,3,0,01.917,1917,-5.4100,7.2800,-0.1100,9.0708,0.0469,-0.0011,0.2651,36.19,92.00,250.44,-5.7386,7.4850,-0.1684,9.4332
1,1,1,3,0,02.053,2053,-5.3700,8.5000,-0.3200,10.0593,0.0425,-0.0033,0.1069,34.50,91.75,252.19,-5.6900,7.6187,-0.1884,9.5109
1,1,1,3,0,02.183,2183,-5.6400,7.9400,-0.3500,9.7455,0.0284,-0.0164,-0.2531,35.50,91.56,251.38,-5.6834,7.6611,-0.2097,9.5413
1,1,1,3,0,02.315,2315,-6.0400,7.3700,-0.3000,9.5335,0.0327,-0.0033,-0.0654,37.38,91.31,249.81,-5.7304,7.6227,-0.2216,9.5390
1,1,1,3,0,02.445,2445,-5.9600,7.4600,-0.1000,9.5490,0.0447,0.0131,0.1800,36.88,91.00,250.50,-5.7607,7.6013,-0.2055,9.5398
1,1,1,3,0,02.576,2576,-5.4800,7.7100,0.0500,9.4592,0.0676,0.0196,0.0622,35.88,90.63,251.63,-5.7237,7.6156,-0.1719,9.5282
1,1,1,3,0,02.749,2749,-6.0900,7.9500,0.0700,10.0148,0.0524,0.0131,-0.0971,36.50,90.13,251.19,-5.7719,7.6597,-0.1400,9.5920
1,1,1,3,0,02.879,2879,-5.5700,7.6700,-0.0100,9.4791,0.0251,0.0196,0.0894,36.31,89.81,251.38,-5.7453,7.6610,-0.1229,9.5768
1,1,1,3,0,03.009,3009,-5.3700,7.9200,0.1100,9.5695,-0.0076,0.0273,0.1473,35.31,89.50,252.38,-5.6959,7.6952,-0.0922,9.5743
1,1,1,3,0,03.139,3139,-6.2000,8.6300,0.3100,10.6308,-0.0196,0.0131,-0.0502,34.88,89.50,252.69,-5.7623,7.8183,-0.0392,9.7125
1,1,1,3,0,03.269,3269,-6.5800,9.4700,0.0800,11.5319,-0.0785,-0.0098,-0.0698,35.50,90.00,251.75,-5.8701,8.0360,-0.0235,9.9516
1,1,1,3,0,03.399,3399,-6.2200,9.0600,-0.2500,10.9925,-0.0905,-0.0120,0.1298,35.19,90.56,251.75,-5.9162,8.1709,-0.0533,10.0880
1,1,1,3,0,03.529,3529,-5.6800,8.4500,-0.1800,10.1832,-0.1222,-0.0327,0.0676,34.19,91.44,252.50,-5.8851,8.2077,-0.0700,10.0998
1,2,1,3,0,03.659,3659,-5.1700,7.7100,-0.2900,9.2875,-0.0905,-0.0251,-0.0938,34.38,92.50,251.94,-5.7908,8.1421,-0.0990,9.9919
1,2,1,3,0,03.832,3832,-5.6100,7.6800,-0.3500,9.5172,-0.0611,0.0076,0.0055,35.19,93.56,250.63,-5.7670,8.0812,-0.1321,9.9288
1,2,1,3,0,03.962,3962,-5.4900,7.9600,-0.7200,9.6964,-0.0873,0.0218,0.0535,34.81,93.94,250.56,-5.7305,8.0652,-0.2096,9.8960
1,2,1,3,0,04.092,4092,-5.6900,7.7100,-0.5400,9.5975,-0.0087,0.0305,-0.0589,34.94,94.06,250.13,-5.7252,8.0184,-0.2531,9.8558
1,2,1,3,0,04.222,4222,-6.0400,7.4100,-0.4500,9.5704,0.0545,0.0535,-0.0785,35.75,94.00,249.06,-5.7666,7.9383,-0.2790,9.8157
1,2,1,3,0,04.352,4352,-5.8200,7.9300,-0.6800,9.8600,0.0273,0.0753,0.1320,35.56,93.38,249.06,-5.7737,7.9372,-0.3319,9.8206
1,2,1,3,0,04.482,4482,-4.9400,7.5900,-0.4400,9.0667,0.0535,0.0567,0.1156,34.44,92.50,250.13,-5.6638,7.8914,-0.3461,9.7197
1,2,1,3,0,04.612,4612,-5.4800,8.0300,-0.2200,9.7242,0.0218,0.0120,-0.2836,35.13,92.06,249.38,-5.6396,7.9097,-0.3295,9.7199
1,2,1,3,0,04.742,4742,-5.1200,6.5400,-0.4400,8.3174,0.0480,0.0382,-0.2607,37.88,91.88,246.63,-5.5711,7.7292,-0.3441,9.5340
1,2,1,3,0,04.915,4915,-6.9700,8.8900,-0.3800,11.3030,-0.0338,0.0196,-0.0196,38.00,91.69,246.31,-5.7555,7.8822,-0.3488,9.7660
1,2,1,3,0,05.046,5046,-6.2200,6.8600,-0.1200,9.2608,-0.0185,-0.0087,-0.2574,39.50,91.63,244.81,-5.8167,7.7475,-0.3187,9.6932
1,2,1,3,0,05.176,5176,-5.9700,6.7200,-0.2600,8.9926,0.0109,-0.0229,0.1593,40.31,91.94,244.06,-5.8369,7.6121,-0.3109,9.5974
1,2,1,3,0,05.311,5311,-6.6400,8.3000,0.7300,10.6542,-0.0884,-0.0360,0.3338,38.44,92.38,245.88,-5.9427,7.7027,-0.1738,9.7303
1,2,1,3,0,05.441,5441,-6.3700,8.1100,0.1200,10.3133,-0.0033,-0.0131,-0.0022,37.38,92.63,246.94,-5.9990,7.7564,-0.1350,9.8065
1,2,1,3,0,05.574,5574,-5.5700,7.4700,-0.8300,9.3549,0.0338,0.0076,-0.1429,38.00,92.63,246.38,-5.9425,7.7187,-0.2266,9.7438
1,2,1,3,0,05.704,5704,-6.0800,7.3600,-1.0000,9.5987,0.0055,-0.0142,-0.3709,40.13,92.56,244.31,-5.9606,7.6714,-0.3285,9.7204
1,2,1,3,0,05.835,5835,-6.6000,6.8400,-0.6800,9.5293,-0.0109,-0.0295,-0.0305,41.69,92.75,243.00,-6.0449,7.5618,-0.3748,9.6883
1,2,1,3,0,06.008,6008,-5.5400,6.7600,-0.3400,8.7467,0.0000,-0.0316,0.2062,39.44,92.56,245.56,-5.9783,7.4562,-0.3703,9.5641
1,2,1,3,0,06.139,6139,-5.2200,6.4600,-0.2400,8.3089,0.0916,-0.0164,-0.1167,39.31,92.50,246.00,-5.8784,7.3249,-0.3531,9.3986
1,2,1,3,0,06.269,6269,-6.0400,6.7800,0.1000,9.0807,-0.0011,-0.0491,-0.1058,40.44,92.50,245.25,-5.8997,7.2531,-0.2934,9.3541
1,2,1,3,0,06.400,6400,-6.3000,7.4600,-0.3100,9.7692,0.0764,-0.0305,0.0665,40.19,92.56,245.81,-5.9524,7.2804,-0.2956,9.4086
1,2,1,3,0,06.532,6532,-5.9700,7.8400,-0.4400,9.8641,-0.0087,-0.0404,-0.0338,39.94,92.63,246.38,-5.9548,7.3541,-0.3146,9.4679
1,2,1,3,0,06.666,6666,-6.8400,7.9900,-0.4600,10.5279,0.0229,-0.0415,-0.0545,40.25,92.69,246.44,-6.0714,7.4379,-0.3338,9.6071
1,2,1,3,0,06.797,6797,-6.8100,7.2900,-0.2500,9.9791,0.0665,-0.0393,0.0600,40.25,92.63,246.94,-6.1687,7.4184,-0.3227,9.6535
1,2,1,3,0,06.928,6928,-6.0700,7.4900,-0.4800,9.6527,0.1036,-0.0316,0.2149,39.00,92.44,248.63,-6.1557,7.4278,-0.3435,9.6532
1,2,1,3,0,07.100,7100,-6.1100,7.7200,-0.1000,9.8458,0.0960,-0.0076,-0.0153,38.19,91.88,250.00,-6.1497,7.4663,-0.3114,9.6779
1,2,1,3,0,07.230,7230,-5.9800,8.0200,-0.5300,10.0181,0.0458,0.0000,0.0022,38.06,91.25,250.50,-6.1273,7.5393,-0.3402,9.7212
1,2,1,3,0,07.360,7360,-6.2200,7.7700,-0.1800,9.9546,0.0916,0.0229,0.0033,38.19,90.63,250.75,-6.1396,7.5697,-0.3191,9.7517
1,2,1,3,0,07.490,7490,-6.4600,7.4700,0.4600,9.8866,0.1145,0.0469,-0.0011,38.31,89.88,250.75,-6.1818,7.5566,-0.2164,9.7654
1,2,1,3,0,07.620,7620,-5.7600,7.4200,-0.0500,9.3934,0.0087,0.0545,0.1669,37.56,89.00,251.44,-6.1262,7.5386,-0.1945,9.7159
1,2,1,3,0,07.750,7750,-6.1200,8.1800,0.3800,10.2231,0.0120,0.0425,0.1342,36.44,88.56,252.44,-6.1254,7.6231,-0.1188,9.7799
1,2,1,3,0,07.880,7880,-7.1300,8.8800,0.5400,11.4010,-0.0305,0.0240,-0.1124,36.69,88.63,251.81,-6.2578,7.7887,-0.0320,9.9912
1,2,1,3,0,08.011,8011,-6.4900,8.5600,0.2800,10.7458,-0.1342,0.0262,0.1102,36.88,89.00,251.13,-6.2884,7.8904,0.0091,10.0897
1,3,1,3,0,08.183,8183,-5.2000,7.9700,-0.0800,9.5167,-0.1156,0.0273,0.1254,35.13,89.75,252.06,-6.1449,7.9009,-0.0026,10.0092
1,3,1,3,0,08.313,8313,-5.4600,7.6700,0.2200,9.4175,-0.0676,0.0164,-0.2302,35.94,90.31,250.81,-6.0547,7.8704,0.0267,9.9299
1,3,1,3,0,08.443,8443,-6.1400,7.9500,-0.3700,10.0518,-0.1178,0.0065,-0.1571,37.50,90.88,248.75,-6.0659,7.8809,-0.0256,9.9451
1,3,1,3,0,08.573,8573,-5.8900,7.5300,-0.1100,9.5606,-0.0884,0.0262,0.3305,36.75,91.38,249.13,-6.0427,7.8347,-0.0367,9.8944
1,3,1,3,0,08.703,8703,-5.4500,8.5200,-0.1300,10.1148,-0.0764,0.0055,0.2913,34.38,91.81,251.06,-5.9646,7.9250,-0.0490,9.9189
1,3,1,3,0,08.833,8833,-4.9100,8.4800,-0.3700,9.8059,-0.0338,0.0011,0.0022,33.44,92.19,251.75,-5.8257,7.9981,-0.0913,9.8953
1,3,1,3,0,08.963,8963,-5.1400,8.2500,-0.3200,9.7255,-0.0142,-0.0131,-0.2116,34.31,92.56,250.75,-5.7353,8.0313,-0.1214,9.8697
1,3,1,3,0,09.094,9094,-5.4400,7.7100,-0.3100,9.4411,0.0076,-0.0316,-0.2160,35.75,92.75,249.50,-5.6964,7.9890,-0.1463,9.8129
1,3,1,3,0,09.266,9266,-5.5300,7.4400,-0.1600,9.2715,0.0807,-0.0480,0.0502,36.44,92.56,249.38,-5.6745,7.9166,-0.1481,9.7414
1,3,1,3,0,09.396,9396,-5.6900,7.6000,-0.0600,9.4942,0.1604,-0.0415,0.0076,35.81,92.25,250.69,-5.6765,7.8749,-0.1365,9.7085
1,3,1,3,0,09.526,9526,-3.4500,6.5800,-0.0600,7.4298,0.0873,-0.0371,0.2487,35.69,91.69,251.50,-5.3831,7.7043,-0.1264,9.3995
1,3,1,3,0,09.656,9656,-6.3800,7.8600,0.1100,10.1240,0.1080,-0.0393,-0.0436,35.00,91.19,252.81,-5.5145,7.7248,-0.0952,9.4916
1,3,1,3,0,09.786,9786,-4.4500,7.3700,-0.1500,8.6106,0.1145,-0.0447,-0.0731,35.81,90.81,252.63,-5.3742,7.6780,-0.1025,9.3726
1,3,1,3,0,09.916,9916,-6.4100,7.7200,-0.2000,10.0363,0.0316,-0.0480,-0.2465,36.69,90.63,252.25,-5.5107,7.6836,-0.1153,9.4561
1,3,1,3,0,10.047,10047,-6.2900,7.3700,-0.2100,9.6915,0.0513,-0.0164,0.1254,36.94,90.44,252.44,-5.6134,7.6422,-0.1278,9.4832
1,3,1,3,0,10.177,10177,-5.8800,7.8300,-0.2800,9.7960,0.0065,-0.0142,0.1865,35.81,90.25,253.81,-5.6485,7.6670,-0.1478,9.5242
1,3,1,3,0,10.350,10350,-5.3300,7.0900,-0.0100,8.8700,0.0022,-0.0240,-0.2509,35.69,90.19,254.19,-5.6066,7.5910,-0.1297,9.4378
1,3,1,3,0,10.480,10480,-6.0900,7.2300,0.0000,9.4531,0.0175,-0.0153,-0.1353,37.31,90.38,252.63,-5.6703,7.5434,-0.1126,9.4375
1,3,1,3,0,10.611,10611,-5.3000,6.6900,-0.0900,8.5355,0.0087,0.0185,0.1822,37.19,90.25,252.81,-5.6215,7.4309,-0.1096,9.3184
1,3,1,3,0,10.741,10741,-5.4000,7.9100,0.0400,9.5776,-0.0131,0.0175,0.2858,35.00,90.13,254.88,-5.5923,7.4941,-0.0899,9.3511
1,3,1,3,0,10.874,10874,-5.0700,8.0500,0.1400,9.5146,0.0491,0.0251,-0.0447,33.81,90.00,256.00,-5.5235,7.5673,-0.0596,9.3689
1,3,1,3,0,11.005,11005,-5.5000,7.5300,-0.0800,9.3251,-0.0513,-0.0218,-0.4800,36.06,90.06,253.69,-5.5204,7.5624,-0.0623,9.3631
1,3,1,3,0,11.139,11139,-6.1500,7.4600,-0.2700,9.6720,-0.0611,-0.0087,-0.2171,39.06,90.44,250.56,-5.6033,7.5489,-0.0897,9.4017
1,3,1,3,0,11.270,11270,-6.0600,7.0900,0.0100,9.3269,-0.0709,0.0011,0.2356,38.25,90.69,251.25,-5.6635,7.4884,-0.0765,9.3892
1,3,1,3,0,11.442,11442,-5.9000,7.5400,-0.2300,9.5768,-0.0676,-0.0076,-0.0774,37.25,91.06,252.00,-5.6947,7.4952,-0.0968,9.4137
1,3,1,3,0,11.572,11572,-6.3100,7.5300,-0.0300,9.8244,-0.0142,0.0065,-0.1669,38.50,91.56,250.44,-5.7758,7.4998,-0.0880,9.4665
1,3,1,3,0,11.702,11702,-6.7600,8.4000,-0.6500,10.8019,-0.0600,0.0382,0.0894,38.75,91.88,249.88,-5.9055,7.6184,-0.1620,9.6406
1,3,1,3,0,11.832,11832,-6.2500,8.2700,-0.3100,10.3707,0.0273,0.0600,0.1582,37.63,91.56,250.69,-5.9509,7.7043,-0.1815,9.7366
1,3,1,3,0,11.962,11962,-6.2500,8.0800,0.1400,10.2161,0.0709,0.0698,0.0578,37.00,90.94,251.06,-5.9903,7.7538,-0.1392,9.7992
1,3,1,3,0,12.092,12092,-6.1600,8.2000,-0.3700,10.2627,0.0207,0.0589,-0.0011,36.88,90.25,251.06,-6.0126,7.8126,-0.1696,9.8599
1,3,1,3,0,12.222,12222,-6.7300,9.0100,0.0300,11.2461,0.0785,0.0480,0.0469,36.75,89.63,251.13,-6.1072,7.9704,-0.1433,10.0422
1,3,1,3,0,12.353,12353,-6.3000,9.5900,-0.1300,11.4750,0.0524,0.0262,0.1713,35.81,89.13,252.00,-6.1326,8.1838,-0.1415,10.2276
1,3,1,3,0,12.525,12525,-6.5400,9.3100,0.2300,11.3798,0.0382,-0.0295,-0.0273,35.13,89.06,252.81,-6.1863,8.3322,-0.0926,10.3781
1,4,1,3,0,12.656,12656,-5.9200,8.3900,-0.2200,10.2707,0.0218,-0.0240,0.0425,35.44,89.13,252.75,-6.1512,8.3398,-0.1094,10.3635
1,4,1,3,0,12.786,12786,-5.3100,8.3400,-0.1400,9.8879,-0.0218,-0.0109,0.2073,34.69,89.06,253.69,-6.0403,8.3399,-0.1134,10.2981
1,4,1,3,0,12.917,12917,-5.1900,7.7900,0.3100,9.3657,0.0698,-0.0295,-0.0371,34.00,88.88,254.63,-5.9283,8.2674,-0.0576,10.1734
1,4,1,3,0,13.047,13047,-4.7700,6.8100,-0.1300,8.3154,0.0382,-0.0545,-0.2607,35.75,88.88,253.25,-5.7757,8.0753,-0.0671,9.9284
1,4,1,3,0,13.178,13178,-5.2400,6.3600,0.0400,8.2407,-0.0545,-0.0611,-0.1560,37.81,89.19,251.56,-5.7051,7.8493,-0.0530,9.7037
1,4,1,3,0,13.309,13309,-5.7100,6.8300,0.3900,8.9110,0.0338,-0.0338,0.2367,37.69,89.44,251.94,-5.7057,7.7150,0.0054,9.5956
1,4,1,3,0,13.444,13444,-5.1200,6.9500,-0.0400,8.6324,-0.0109,-0.0229,-0.0458,36.63,89.63,253.13,-5.6285,7.6142,-0.0006,9.4687
1,4,1,3,0,13.617,13617,-7.0700,7.4000,0.2400,10.2373,-0.0284,-0.0273,-0.2509,37.06,89.94,252.75,-5.8185,7.5860,0.0311,9.5605
1,4,1,3,0,13.747,13747,-6.3000,7.2600,-0.1200,9.6131,-0.0262,-0.0284,-0.1222,38.88,90.31,250.94,-5.8819,7.5430,0.0112,9.5653
1,4,1,3,0,13.877,13877,-6.5400,7.9900,-0.2000,10.3272,-0.0676,-0.0022,0.1276,38.19,90.63,251.44,-5.9687,7.6019,-0.0167,9.6651
1,4,1,3,0,14.007,14007,-6.2400,7.3500,0.1600,9.6429,0.0338,0.0273,0.1560,37.31,90.56,252.19,-6.0044,7.5687,0.0066,9.6612
1,4,1,3,0,14.137,14137,-5.7600,7.7200,-0.1900,9.6339,-0.0196,0.0305,-0.1647,36.88,90.44,252.38,-5.9722,7.5886,-0.0193,9.6569
1,4,1,3,0,14.267,14267,-5.7700,7.3500,0.0800,9.3446,-0.0033,0.0382,-0.3087,38.31,90.25,250.75,-5.9456,7.5572,-0.0062,9.6157
1,4,1,3,0,14.398,14398,-6.3000,6.9200,-0.0900,9.3587,0.0513,0.0513,-0.1789,40.19,89.88,248.69,-5.9923,7.4732,-0.0172,9.5790
1,4,1,3,0,14.528,14528,-5.6200,6.4300,0.1000,8.5405,0.0087,0.0622,0.2345,39.88,89.25,248.81,-5.9432,7.3358,-0.0018,9.4411
1,4,1,3,0,14.701,14701,-5.0000,6.8400,0.2100,8.4752,0.0044,0.0447,0.2531,36.63,88.31,251.88,-5.8189,7.2704,0.0261,9.3123
1,4,1,3,0,14.832,14832,-5.7700,7.5300,0.3000,9.4912,0.0764,0.0196,-0.0175,36.19,87.94,252.25,-5.8125,7.3046,0.0622,9.3352
1,4,1,3,0,14.963,14963,-5.3800,7.1600,0.1900,8.9580,0.0142,-0.0055,-0.1331,37.13,87.69,251.38,-5.7555,7.2856,0.0790,9.2850
1,4,1,3,0,15.095,15095,-5.8600,7.5600,0.2000,9.5673,-0.0273,-0.0076,-0.1593,38.31,87.56,250.31,-5.7693,7.3217,0.0950,9.3221
1,4,1,3,0,15.226,15226,-5.9500,7.1700,0.6100,9.3372,0.0349,0.0065,-0.0829,39.06,87.44,249.56,-5.7931,7.3017,0.1629,9.3221
1,4,1,3,0,15.360,15360,-6.4700,7.1200,0.3300,9.6262,-0.0087,-0.0131,0.0556,39.44,87.56,249.25,-5.8823,7.2778,0.1849,9.3596
1,4,1,3,0,15.491,15491,-6.2000,7.8700,0.2800,10.0227,-0.0251,-0.0327,0.1887,38.31,88.06,250.38,-5.9241,7.3558,0.1974,9.4468
1,4,1,3,0,15.621,15621,-5.6700,7.9000,0.3100,9.7291,-0.1167,-0.0393,0.0567,37.06,88.88,251.50,-5.8907,7.4275,0.2122,9.4823
1,4,1,3,0,15.794,15794,-6.5800,7.6800,-0.5100,10.1261,-0.1451,-0.0305,-0.3120,39.06,90.19,249.13,-5.9815,7.4608,0.1171,9.5632
1,4,1,3,0,15.925,15925,-7.7500,8.4900,-0.5000,11.5062,-0.0753,0.0229,0.2247,39.56,91.06,248.19,-6.2145,7.5964,0.0358,9.8147
1,4,1,3,0,16.055,16055,-6.1700,9.3100,0.0300,11.1690,-0.0153,0.0611,0.7876,35.19,91.19,251.94,-6.2087,7.8222,0.0350,9.9868
1,4,1,3,0,16.186,16186,-5.3300,9.7700,-0.4500,11.1384,-0.0393,0.0142,-0.0415,32.19,91.25,254.50,-6.0929,8.0789,-0.0289,10.1189
1,4,1,3,0,16.317,16317,-5.2600,8.8400,-0.3800,10.2936,-0.0502,-0.0033,-0.1865,33.38,91.63,253.13,-5.9831,8.1792,-0.0752,10.1342
1,4,1,3,0,16.449,16449,-6.1600,8.8900,-0.4000,10.8230,-0.0327,-0.0011,0.1287,34.00,91.94,252.38,-6.0064,8.2729,-0.1180,10.2241
1,5,1,3,0,16.580,16580,-4.6800,8.2000,0.0700,9.4418,0.0753,-0.0164,0.0644,32.69,91.69,253.81,-5.8316,8.2633,-0.0932,10.1143
1,5,1,3,0,16.714,16714,-5.1400,7.7400,-0.2400,9.2943,0.0927,-0.0556,-0.2651,33.56,91.44,253.44,-5.7405,8.1943,-0.1126,10.0056
1,5,1,3,0,16.887,16887,-6.1200,7.9900,-0.1700,10.0660,0.1091,-0.0447,-0.1134,35.56,91.06,252.31,-5.7905,8.1674,-0.1201,10.0125
1,5,1,3,0,17.018,17018,-5.7600,7.7900,-0.0100,9.6882,0.1625,-0.0076,-0.0567,35.75,90.25,252.88,-5.7865,8.1177,-0.1056,9.9695
1,5,1,3,0,17.151,17151,-3.1000,5.0600,0.0200,5.9341,0.0938,-0.0196,0.0033,36.50,89.13,252.88,-5.4325,7.7147,-0.0891,9.4359
1,5,1,3,0,17.282,17282,-5.1200,7.8100,-0.1900,9.3406,0.0644,-0.0284,0.3327,35.44,88.75,254.50,-5.3913,7.7273,-0.1024,9.4227
1,5,1,3,0,17.416,17416,-5.6200,7.8600,0.1900,9.6644,0.0175,-0.0676,0.0654,34.38,88.63,256.13,-5.4214,7.7448,-0.0638,9.4540
1,5,1,3,0,17.547,17547,-5.3100,7.2000,0.2800,8.9507,-0.0284,-0.0709,-0.1833,35.00,88.94,256.00,-5.4068,7.6730,-0.0185,9.3866
1,5,1,3,0,17.677,17677,-6.3700,7.8000,-0.1100,10.0712,-0.0262,-0.0611,-0.2138,36.25,89.50,255.00,-5.5337,7.6897,-0.0306,9.4739
1,5,1,3,0,17.807,17807,-6.1000,7.5200,-0.1800,9.6847,-0.0567,-0.0295,-0.0393,37.50,90.13,253.75,-5.6083,7.6674,-0.0503,9.4997
1,5,1,3,0,17.980,17980,-5.5700,7.5600,-0.3200,9.3958,-0.0622,-0.0076,-0.1963,37.50,90.69,253.63,-5.6033,7.6532,-0.0858,9.4855
1,5,1,3,0,18.110,18110,-6.5600,6.7800,-0.2900,9.4385,-0.0207,0.0087,-0.3294,40.06,91.13,250.88,-5.7293,7.5381,-0.1127,9.4690
1,5,1,3,0,18.240,18240,-6.7900,6.6800,-0.1200,9.5258,-0.0545,0.0273,-0.1920,41.94,91.31,248.69,-5.8691,7.4251,-0.1137,9.4652
1,5,1,3,0,18.370,18370,-6.1800,6.8200,-0.2900,9.2081,-0.0371,0.0524,0.3054,41.75,91.31,248.50,-5.9101,7.3453,-0.1369,9.4288
1,5,1,3,0,18.500,18500,-5.0300,5.5600,0.4100,7.5088,0.0545,0.0567,0.0578,40.44,91.00,249.44,-5.7941,7.1101,-0.0648,9.1722
1,5,1,3,0,18.630,18630,-6.5600,8.6100,-1.2700,10.8986,-0.1887,0.0164,-0.0633,40.50,91.00,248.94,-5.8950,7.3077,-0.2237,9.3917
1,5,1,3,0,18.760,18760,-6.3600,7.1400,-0.6600,9.5846,-0.0360,0.0480,-0.2422,41.38,91.13,247.75,-5.9563,7.2856,-0.2812,9.4147
1,5,1,3,0,18.890,18890,-6.3000,6.2500,0.4200,8.8842,-0.0076,0.0229,-0.1124,42.31,91.38,246.38,-6.0016,7.1492,-0.1888,9.3362
1,5,1,3,0,19.063,19063,-6.6700,7.1100,-0.2500,9.7521,0.0022,0.0305,0.0229,42.63,91.88,245.50,-6.0897,7.1440,-0.1968,9.3893
1,5,1,3,0,19.194,19194,-6.9900,7.5000,-0.6800,10.2748,-0.1069,0.0185,0.0218,42.31,92.19,245.38,-6.2083,7.1909,-0.2605,9.5037
1,5,1,3,0,19.325,19325,-6.6100,7.5200,-0.1900,10.0139,0.0207,0.0338,0.2596,41.13,92.31,246.31,-6.2612,7.2343,-0.2512,9.5708
1,5,1,3,0,19.457,19457,-7.1400,7.6300,0.0000,10.4497,0.0284,0.0371,-0.0109,40.31,92.13,246.94,-6.3770,7.2864,-0.2181,9.6854
1,5,1,3,0,19.588,19588,-6.9000,8.1000,-0.8800,10.6768,0.0164,0.0556,0.0535,40.38,91.69,246.75,-6.4460,7.3936,-0.3053,9.8137
1,5,1,3,0,19.722,19722,-7.7800,9.6700,-0.0400,12.4112,0.0905,0.0611,0.2651,39.31,90.88,247.75,-6.6217,7.6936,-0.2704,10.1544
1,5,1,3,0,19.853,19853,-5.8500,8.6500,-0.1900,10.4442,0.1145,0.0218,-0.0229,37.88,89.81,249.38,-6.5200,7.8196,-0.2598,10.1846
1,6,1,3,0,19.983,19983,-5.8900,7.6800,0.0100,9.6786,0.0033,-0.0284,-0.1974,38.94,89.44,248.63,-6.4370,7.8012,-0.2242,10.1166
1,6,1,3,0,20.156,20156,-6.3700,7.4800,0.2500,9.8280,0.0316,-0.0164,0.2553,38.69,89.38,249.19,-6.4282,7.7589,-0.1617,10.0771
1,6,1,3,0,20.287,20287,-5.3400,7.3500,0.3000,9.0900,0.0404,-0.0196,0.0764,37.31,89.31,250.75,-6.2848,7.7050,-0.1009,9.9436
1,6,1,3,0,20.417,20417,-5.7000,7.0400,0.0700,9.0585,0.0011,-0.0469,-0.2367,38.38,89.38,249.94,-6.2077,7.6174,-0.0784,9.8268
1,6,1,3,0,20.550,20550,-5.8500,6.9800,-0.0300,9.1073,-0.0742,-0.0742,-0.1124,39.94,89.88,248.69,-6.1606,7.5334,-0.0720,9.7319
1,6,1,3,0,20.681,20681,-6.6100,7.6600,0.0500,10.1178,-0.0818,-0.0840,-0.1538,40.75,90.69,248.06,-6.2198,7.5501,-0.0559,9.7823
1,6,1,3,0,20.815,20815,-5.5100,5.0900,0.0000,7.5012,0.0600,-0.0305,-0.2302,42.75,91.38,246.25,-6.1263,7.2259,-0.0486,9.4735
1,6,1,3,0,20.946,20946,-6.9500,6.3600,-0.2200,9.4234,-0.0654,-0.0229,0.1462,42.50,91.81,246.56,-6.2348,7.1118,-0.0711,9.4581
1,6,1,3,0,21.076,21076,-6.4000,6.7800,-0.3800,9.3313,0.0087,0.0044,0.1254,41.81,91.75,247.31,-6.2566,7.0681,-0.1118,9.4401
1,6,1,3,0,21.249,21249,-5.9500,7.0100,-0.3800,9.2026,-0.0589,-0.0011,-0.1985,41.63,91.75,247.50,-6.2162,7.0604,-0.1472,9.4081
1,6,1,3,0,21.379,21379,-6.9300,6.8100,-0.1700,9.7175,0.0000,0.0164,-0.0993,43.19,91.94,245.81,-6.3103,7.0274,-0.1502,9.4460
1,6,1,3,0,21.509,21509,-6.2700,6.7300,-0.3000,9.2030,-0.0109,0.0295,-0.0415,43.44,91.88,245.38,-6.3049,6.9882,-0.1699,9.4136
1,6,1,3,0,21.640,21640,-6.5900,6.7500,-0.3700,9.4407,-0.0415,0.0491,0.0000,43.88,91.75,244.63,-6.3425,6.9568,-0.1963,9.4161
1,6,1,3,0,21.770,21770,-6.5800,6.2600,-0.1200,9.0829,0.0218,0.0535,-0.0840,44.13,91.63,244.06,-6.3738,6.8650,-0.1862,9.3696
1,6,1,3,0,21.900,21900,-6.2500,6.3200,-0.4000,8.8975,-0.0491,0.0425,-0.0229,45.00,91.50,242.81,-6.3575,6.7932,-0.2144,9.3065
1,6,1,3,0,22.030,22030,-6.5200,6.1800,-0.1300,8.9844,-0.0284,0.0469,0.0480,44.88,91.25,242.69,-6.3789,6.7124,-0.2033,9.2622
1,6,1,3,0,22.160,22160,-6.9000,6.6200,-0.2600,9.5657,0.0000,0.0251,0.0796,44.81,91.13,242.50,-6.4476,6.7002,-0.2108,9.3010
1,6,1,3,0,22.333,22333,-5.7300,6.5200,-0.2200,8.6828,-0.0164,0.0305,0.1745,42.69,90.69,244.31,-6.3530,6.6765,-0.2120,9.2185
1,6,1,3,0,22.463,22463,-6.8400,7.5200,-0.2700,10.1690,-0.0153,0.0109,0.0098,42.19,90.63,244.75,-6.4172,6.7876,-0.2196,9.3435
1,6,1,3,0,22.594,22594,-6.1000,6.8300,0.0300,9.1575,0.0076,0.0055,-0.1047,42.81,90.50,244.13,-6.3754,6.7932,-0.1867,9.3182
1,6,1,3,0,22.724,22724,-6.4300,6.9600,0.0100,9.4756,0.0207,-0.0055,0.2073,42.69,90.50,244.31,-6.3826,6.8152,-0.1608,9.3386
1,6,1,3,0,22.859,22859,-6.1500,6.8600,-0.0300,9.2132,-0.0044,-0.0131,0.1778,41.00,90.50,246.06,-6.3519,6.8211,-0.1436,9.3217
1,6,1,3,0,22.989,22989,-6.7200,8.1700,-0.2500,10.5816,-0.0185,-0.0262,0.0524,40.00,90.63,247.13,-6.4004,6.9988,-0.1576,9.4855
1,6,1,3,0,23.122,23122,-6.5600,7.6300,-0.2500,10.0654,0.0131,-0.0185,-0.0567,40.50,90.69,246.69,-6.4215,7.0820,-0.1698,9.5613
1,6,1,3,0,23.252,23252,-6.7800,8.0000,-0.0900,10.4870,0.0415,-0.0065,0.0709,40.31,90.56,247.06,-6.4687,7.2030,-0.1593,9.6826
1,6,1,3,0,23.425,23425,-7.4600,9.0500,-0.0500,11.7285,0.0633,0.0011,0.0654,39.63,90.25,247.94,-6.5993,7.4464,-0.1449,9.9509
1,6,1,3,0,23.556,23556,-7.5500,9.1100,-0.4600,11.8409,-0.0076,-0.0033,-0.0622,39.94,90.13,247.75,-6.7246,7.6656,-0.1864,10.1988
1,6,1,3,0,23.686,23686,-6.5800,8.0800,-0.1300,10.4211,0.0415,-0.0229,0.1124,39.56,89.94,248.38,-6.7056,7.7202,-0.1790,10.2273
1,7,1,3,0,23.816,23816,-6.1000,7.6800,-0.1800,9.8094,0.0273,-0.0480,0.0851,38.69,89.94,249.56,-6.6258,7.7149,-0.1791,10.1712
1,7,1,3,0,23.946,23946,-6.4800,7.5000,-0.2700,9.9153,-0.0240,-0.0731,-0.1124,38.75,90.25,249.88,-6.6066,7.6866,-0.1911,10.1374
1,7,1,3,0,24.076,24076,-6.5300,7.6300,-0.1800,10.0444,-0.0273,-0.0644,0.0131,39.13,90.81,249.88,-6.5965,7.6791,-0.1896,10.1251
1,7,1,3,0,24.206,24206,-5.5900,7.3800,-0.2400,9.2612,-0.0098,-0.0502,0.1113,38.38,91.19,250.88,-6.4638,7.6397,-0.1963,10.0092
1,7,1,3,0,24.336,24336,-5.5500,7.2700,-0.1800,9.1481,-0.0022,-0.0556,-0.1244,38.25,91.44,251.25,-6.3434,7.5910,-0.1941,9.8944
1,7,1,3,0,24.509,24509,-5.9500,6.8000,-0.2100,9.0381,0.0175,-0.0393,-0.2302,40.38,91.69,249.56,-6.2916,7.4868,-0.1962,9.7813
1,7,1,3,0,24.639,24639,-6.9900,7.6800,-0.2900,10.3888,0.0218,-0.0131,-0.1178,41.44,91.81,248.75,-6.3836,7.5122,-0.2086,9.8604
1,7,1,3,0,24.769,24769,-6.3600,6.6600,-0.4200,9.2185,0.0840,0.0382,-0.1887,42.75,91.44,247.63,-6.3805,7.3999,-0.2364,9.7737
1,7,1,3,0,24.900,24900,-4.6800,5.6600,-0.3000,7.3504,0.0425,0.0447,0.1276,43.00,90.63,247.44,-6.1564,7.1706,-0.2448,9.4541
1,7,1,3,0,25.030,25030,-7.2600,7.2200,-0.2600,10.2422,0.0458,0.0567,0.0938,42.06,89.94,248.38,-6.3018,7.1771,-0.2468,9.5543
1,7,1,3,0,25.160,25160,-5.2400,6.6700,0.2500,8.4858,0.0665,0.0480,0.1156,40.81,89.31,249.56,-6.1619,7.1103,-0.1813,9.4106
1,7,1,3,0,25.291,25291,-6.8400,7.4800,-0.1700,10.1373,0.0065,0.0262,-0.2760,41.38,89.00,248.94,-6.2513,7.1590,-0.1798,9.5059
1,7,1,3,0,25.421,25421,-6.3500,6.8900,0.1600,9.3712,-0.0175,0.0229,-0.0164,42.19,88.75,248.06,-6.2643,7.1236,-0.1351,9.4871
1,7,1,3,0,25.594,25594,-6.2500,6.3500,0.3500,8.9167,-0.0109,-0.0044,0.0818,42.31,88.94,247.75,-6.2624,7.0216,-0.0711,9.4088
1,7,1,3,0,25.729,25729,-5.4900,6.5300,0.0600,8.5314,-0.0338,-0.0076,-0.0774,41.88,89.31,248.00,-6.1606,6.9569,-0.0539,9.2927
1,7,1,3,0,25.860,25860,-6.8300,6.9500,-0.1800,9.7460,-0.0960,-0.0185,-0.2793,43.88,89.81,245.69,-6.2488,6.9560,-0.0705,9.3508
1,7,1,3,0,25.990,25990,-6.0200,5.4300,0.1800,8.1091,0.0480,0.0425,-0.1058,45.25,89.88,244.13,-6.2187,6.7549,-0.0375,9.1816
1,7,1,3,0,26.140,26140,-7.5200,6.8400,-0.1700,10.1669,-0.0087,0.0164,0.1625,45.31,89.81,243.81,-6.3902,6.7661,-0.0549,9.3068
1,7,1,3,0,26.271,26271,-5.9100,6.0600,0.1600,8.4662,0.0709,0.0415,0.1963,43.25,89.56,245.69,-6.3269,6.6730,-0.0266,9.1956
1,7,1,3,0,26.401,26401,-6.0400,6.6200,-0.0100,8.9614,-0.0644,-0.0022,0.0076,42.69,89.69,246.13,-6.2891,6.6661,-0.0244,9.1646
1,7,1,3,0,26.532,26532,-7.1700,7.5600,-0.2700,10.4228,-0.0513,-0.0065,-0.0327,42.44,89.94,246.19,-6.4052,6.7839,-0.0568,9.3301
1,7,1,3,0,26.704,26704,-6.5800,7.6100,-0.0900,10.0606,-0.0611,-0.0284,0.0349,42.19,90.38,246.25,-6.4282,6.8927,-0.0612,9.4252
1,7,1,3,0,26.834,26834,-6.7200,7.3300,-0.3600,9.9507,-0.0207,-0.0142,-0.0218,42.56,90.69,245.81,-6.4667,6.9503,-0.1005,9.4939
1,7,1,3,0,26.964,26964,-6.9200,7.4000,-0.1000,10.1319,-0.0087,-0.0185,0.0000,42.69,90.94,245.69,-6.5264,7.0096,-0.1005,9.5780
1,7,1,3,0,27.094,27094,-7.5600,8.3600,-0.2600,11.2743,-0.0229,-0.0164,0.1702,42.13,91.13,246.25,-6.6626,7.1875,-0.1215,9.8013
1,7,1,3,0,27.224,27224,-7.9000,8.7800,-0.0900,11.8113,-0.0087,0.0044,-0.0295,41.56,91.19,246.81,-6.8257,7.3974,-0.1173,10.0660
1,7,1,3,0,27.354,27354,-7.5200,8.4700,0.0000,11.3266,0.0175,0.0120,0.1004,41.31,91.00,247.00,-6.9172,7.5387,-0.1019,10.2318
1,7,1,3,0,27.484,27484,-6.5200,8.0400,-0.3900,10.3588,-0.0175,0.0185,0.1647,40.50,90.94,247.75,-6.8648,7.6048,-0.1398,10.2459
1,8,1,3,0,27.615,27615,-6.5400,7.7500,-0.5700,10.1567,-0.0131,0.0044,-0.0916,40.19,90.88,248.00,-6.8220,7.6239,-0.1965,10.2324
1,8,1,3,0,27.788,27788,-6.2100,7.6000,-0.2700,9.8182,0.0382,0.0098,0.1505,40.13,90.81,248.06,-6.7414,7.6208,-0.2062,10.1767
1,8,1,3,0,27.922,27922,-5.5100,7.0800,-0.2000,8.9737,0.0360,0.0011,0.0338,39.25,90.69,249.00,-6.5791,7.5495,-0.2054,10.0161
1,8,1,3,0,28.053,28053,-5.9300,7.0200,-0.5400,9.2053,0.0076,-0.0316,-0.3840,40.63,91.00,247.75,-6.4936,7.4797,-0.2495,9.9083
1,8,1,3,0,28.186,28186,-6.5200,6.6400,-0.2300,9.3088,-0.0055,-0.0393,-0.3523,43.63,91.31,245.00,-6.4971,7.3691,-0.2469,9.8273
1,8,1,3,0,28.317,28317,-7.2800,6.6300,0.0900,9.8470,0.0142,-0.0251,-0.0731,45.13,91.44,243.75,-6.6002,7.2717,-0.2025,9.8225
1,8,1,3,0,28.447,28447,-6.7800,6.6200,-0.0500,9.4760,0.0360,-0.0218,-0.0327,45.13,91.38,243.94,-6.6239,7.1858,-0.1824,9.7747
1,8,1,3,0,28.578,28578,-5.5400,5.5000,-0.3800,7.8158,-0.0807,-0.0371,-0.1636,46.25,91.50,242.94,-6.4811,6.9637,-0.2085,9.5153
1,8,1,3,0,28.708,28708,-7.6900,6.0500,0.2200,9.7871,0.0273,-0.0175,0.0218,46.94,91.88,242.25,-6.6404,6.8433,-0.1520,9.5367
1,8,1,3,0,28.881,28881,-7.0400,6.0600,0.0200,9.2890,0.0753,0.0033,0.2062,46.25,91.94,243.00,-6.6930,6.7401,-0.1293,9.4996
1,8,1,3,0,29.012,29012,-6.9500,7.0200,-0.5400,9.8932,-0.0076,-0.0033,0.1309,44.50,92.00,244.69,-6.7269,6.7769,-0.1834,9.5505
1,8,1,3,0,29.142,29142,-7.2900,7.0600,-0.5300,10.1621,-0.0229,0.0120,-0.1942,44.94,92.00,244.25,-6.8011,6.8142,-0.2291,9.6302
1,8,1,3,0,29.275,29275,-7.2200,6.5900,-0.2100,9.7776,0.0480,0.0404,-0.1669,46.75,91.81,242.38,-6.8563,6.7847,-0.2266,9.6484
1,8,1,3,0,29.406,29406,-7.0000,5.7900,-0.1700,9.0859,0.0218,0.0589,-0.0698,47.69,91.19,241.31,-6.8752,6.6536,-0.2191,9.5701
1,8,1,3,0,29.540,29540,-7.1900,6.2200,-0.2900,9.5115,-0.0185,0.0371,-0.0545,48.25,90.75,240.50,-6.9167,6.5965,-0.2285,9.5607
1,8,1,3,0,29.670,29670,-6.8800,6.1800,-0.2700,9.2520,-0.0305,0.0142,0.2062,47.56,90.69,241.00,-6.9119,6.5416,-0.2339,9.5195
1,8,1,3,0,29.801,29801,-6.4500,6.2700,-0.2900,9.0000,-0.0240,-0.0022,0.1353,46.13,90.94,242.25,-6.8510,6.5058,-0.2413,9.4509
1,8,1,3,0,29.974,29974,-6.6800,6.9400,-0.4600,9.6435,-0.0611,0.0065,0.0076,45.38,91.13,242.75,-6.8285,6.5630,-0.2701,9.4749
1,8,1,3,0,30.105,30105,-5.9400,5.5400,0.0300,8.1226,0.0022,0.0284,-0.1909,45.75,91.00,242.25,-6.7114,6.4282,-0.2306,9.2961
1,8,1,3,0,30.235,30235,-7.6400,6.7000,-0.3100,10.1664,-0.0295,0.0065,-0.1189,46.94,91.06,240.88,-6.8338,6.4640,-0.2411,9.4097
1,8,1,3,0,30.366,30366,-6.9900,6.4800,-0.1000,9.5321,0.0251,0.0295,0.0742,46.63,91.00,241.06,-6.8544,6.4661,-0.2225,9.4256
1,8,1,3,0,30.496,30496,-7.1200,6.5200,0.0400,9.6543,-0.0284,0.0022,0.0076,46.69,90.94,240.94,-6.8894,6.4732,-0.1879,9.4552
1,8,1,3,0,30.627,30627,-7.1100,6.7300,0.0000,9.7900,-0.0044,0.0000,0.0687,46.25,91.00,241.31,-6.9184,6.5071,-0.1631,9.4991
1,8,1,3,0,30.757,30757,-6.9600,6.8600,-0.1800,9.7741,-0.0262,-0.0087,0.0207,45.88,91.13,241.56,-6.9239,6.5536,-0.1653,9.5351
1,8,1,3,0,30.887,30887,-7.1900,6.7500,-0.1100,9.8626,0.0044,-0.0033,-0.0840,46.13,91.31,241.31,-6.9590,6.5795,-0.1581,9.5782
1,8,1,3,0,31.060,31060,-7.8000,7.3400,-0.3500,10.7163,-0.0055,0.0055,0.0796,45.88,91.38,241.50,-7.0698,6.6797,-0.1833,9.7280
1,8,1,3,0,31.194,31194,-8.6200,8.5000,-0.1700,12.1072,-0.0284,-0.0153,0.0894,45.50,91.50,241.81,-7.2741,6.9196,-0.1816,10.0412
1,8,1,3,0,31.325,31325,-7.0400,7.1900,-0.1900,10.0645,-0.0087,-0.0185,-0.0556,44.88,91.75,242.38,-7.2432,6.9552,-0.1827,10.0435
1,8,1,3,0,31.456,31456,-7.9600,7.5100,-0.4900,10.9545,-0.0425,-0.0218,-0.1429,46.19,92.25,241.06,-7.3377,7.0283,-0.2232,10.1631
1,8,1,3,0,31.586,31586,-7.0700,7.6400,-0.5700,10.4249,0.0185,-0.0087,0.4560,44.75,92.31,242.50,-7.3024,7.1089,-0.2689,10.1948
1,8,1,3,0,31.716,31716,-6.1300,7.2300,-0.5000,9.4921,0.0425,0.0044,0.1734,42.56,92.00,244.88,-7.1479,7.1249,-0.2993,10.0968
1,8,1,3,0,31.847,31847,-6.5400,7.0300,-0.4800,9.6137,0.1167,-0.0044,-0.2891,42.88,91.75,244.69,-7.0678,7.1124,-0.3232,10.0322
1,8,1,3,0,31.977,31977,-6.8700,7.1100,-0.1800,9.8884,0.0065,0.0000,-0.0305,43.94,91.50,243.81,-7.0417,7.1121,-0.3043,10.0130
1,8,1,3,0,32.150,32150,-6.2200,6.9300,-0.2000,9.3141,-0.0109,-0.0164,-0.0916,44.06,91.06,244.13,-6.9335,7.0881,-0.2905,9.9196
1,8,1,3,0,32.281,32281,-6.5700,6.1900,0.2900,9.0313,0.0916,-0.0316,-0.2520,45.25,91.00,243.31,-6.8856,6.9697,-0.2140,9.7997
1,8,1,3,0,32.411,32411,-8.3000,8.1300,-0.6800,11.6383,0.0044,-0.0404,-0.2596,47.31,91.19,241.56,-7.0719,7.1226,-0.2754,10.0409
1,8,1,3,0,32.541,32541,-4.5300,3.6000,0.1700,5.7888,-0.0295,-0.0207,-0.1549,48.94,91.13,240.19,-6.7370,6.6584,-0.2167,9.4746
1,8,1,3,0,32.671,32671,-8.7200,6.1700,0.0000,10.6821,0.0196,-0.0316,0.0164,48.44,91.50,240.75,-6.9983,6.5941,-0.1882,9.6173
1,8,1,3,0,32.801,32801,-7.3300,6.8900,-0.5200,10.0733,-0.0251,-0.0131,0.1462,47.31,91.63,241.81,-7.0420,6.6331,-0.2319,9.6768
1,8,1,3,0,32.931,32931,-6.6900,6.7700,-0.6100,9.5374,-0.0491,-0.0065,0.0425,46.50,91.63,242.63,-6.9956,6.6511,-0.2817,9.6569
1,8,1,3,0,33.061,33061,-7.1600,6.1600,-0.1700,9.4467,0.0207,-0.0076,-0.2247,47.13,91.94,241.88,-7.0173,6.5864,-0.2670,9.6278
1,8,1,3,0,33.234,33234,-7.3000,6.3100,-0.3800,9.6566,-0.0044,0.0098,0.1167,48.31,92.25,240.56,-7.0545,6.5500,-0.2819,9.6306
