participant,rep,equipment_code,exercise_code,quality_code,timestamp,timestamp_ms,accelX,accelY,accelZ,accelMag,gyroX,gyroY,gyroZ,roll,pitch,yaw,filteredX,filteredY,filteredZ,filteredMag
11,1,1,3,0,00.000,0,0.5500,9.6200,-0.5000,9.6487,0.0207,-0.0131,-0.0971,-11.06,89.56,302.44,0.5130,9.3850,0.0924,9.3995
11,1,1,3,0,00.130,130,0.0500,7.7200,0.6300,7.7458,-0.0316,0.0316,0.2083,-11.75,89.63,303.06,0.4520,9.1656,0.1632,9.1782
11,1,1,3,0,00.303,303,-1.2700,10.0400,0.3800,10.1271,-0.0087,0.0371,-1.2479,-9.13,90.25,300.25,0.2251,9.2809,0.1918,9.2856
11,1,1,3,0,00.434,434,6.1800,9.7800,-0.7800,11.5952,0.0022,0.0818,1.0079,-15.63,90.38,306.00,1.0098,9.3466,0.0637,9.4012
11,1,1,3,0,00.565,565,-0.0200,9.3100,-0.0800,9.3104,0.0044,0.0349,-0.8039,-9.69,90.44,299.75,0.8741,9.3418,0.0448,9.3827
11,1,1,3,0,00.695,695,4.5200,7.6200,1.0700,8.9241,0.0087,0.0796,0.6021,-14.19,90.50,303.69,1.3545,9.1149,0.1799,9.2168
11,1,1,3,0,00.826,826,1.7900,7.6700,0.3700,7.8848,0.0262,0.0720,0.3000,-12.25,90.56,301.38,1.4119,8.9245,0.2049,9.0378
11,1,1,3,0,00.959,959,2.2900,7.8000,0.1800,8.1312,-0.0305,0.0295,-0.0905,-14.69,90.69,303.44,1.5276,8.7763,0.2017,8.9106
11,1,1,3,0,01.092,1092,1.0900,10.0700,0.0500,10.1289,-0.0447,0.0273,-0.5498,-12.13,91.00,300.69,1.4700,8.9468,0.1817,9.0686
11,1,1,3,0,01.222,1222,2.4200,10.1500,0.0000,10.4345,-0.0382,0.0207,-0.2051,-11.88,91.31,300.25,1.5951,9.1054,0.1577,9.2454
11,1,1,3,0,01.395,1395,1.6100,10.6100,-0.2300,10.7339,-0.0382,0.0316,-0.3338,-9.88,91.75,298.00,1.5971,9.3036,0.1066,9.4403
11,1,1,3,0,01.525,1525,1.4500,10.5600,-0.2300,10.6616,0.0011,0.0436,0.0513,-8.56,91.81,296.50,1.5777,9.4692,0.0623,9.5999
11,1,1,3,0,01.655,1655,1.3400,10.0400,-0.2300,10.1316,0.0415,0.0415,0.1451,-8.00,91.75,295.56,1.5464,9.5444,0.0238,9.6689
11,1,1,3,0,01.785,1785,2.3800,9.9800,-0.2100,10.2620,0.0742,0.0011,0.0513,-9.44,91.31,296.75,1.6562,9.6018,-0.0070,9.7436
11,1,1,3,0,01.915,1915,1.2300,9.7500,-0.0100,9.8273,0.0644,-0.0011,0.0000,-9.13,90.81,296.44,1.6001,9.6213,-0.0074,9.7535
11,1,1,3,0,02.045,2045,2.3300,10.4100,0.1400,10.6685,0.0425,-0.0164,0.0229,-9.69,90.44,296.94,1.6963,9.7253,0.0120,9.8721
11,1,1,3,0,02.175,2175,1.8500,9.9200,0.1100,10.0916,0.0316,-0.0240,0.2203,-9.50,90.13,296.88,1.7165,9.7509,0.0249,9.9009
11,1,1,3,0,02.306,2306,1.3700,10.5400,0.2100,10.6307,0.0098,-0.0393,0.0524,-9.69,89.94,297.31,1.6709,9.8549,0.0493,9.9957
11,1,1,3,0,02.478,2478,2.0600,10.2200,0.1500,10.4266,-0.0033,-0.0556,0.0840,-10.94,89.88,299.00,1.7221,9.9030,0.0626,10.0518
11,1,1,3,0,02.608,2608,2.1400,9.8900,0.1900,10.1207,-0.0098,-0.0644,0.1276,-11.56,89.75,300.06,1.7772,9.9013,0.0794,10.0598
11,2,1,3,0,02.738,2738,1.6500,9.6900,0.2100,9.8317,-0.0251,-0.0644,-0.1276,-11.69,89.75,300.69,1.7604,9.8735,0.0966,10.0296
11,2,1,3,0,02.868,2868,1.7000,9.7800,0.2700,9.9303,-0.0327,-0.0371,-0.0098,-11.44,89.88,300.81,1.7525,9.8611,0.1194,10.0164
11,2,1,3,0,02.998,2998,1.7800,9.5600,0.1600,9.7256,-0.0415,-0.0207,-0.0022,-11.19,90.13,300.81,1.7561,9.8215,0.1248,9.9780
11,2,1,3,0,03.128,3128,1.7600,9.7800,0.0700,9.9373,-0.0404,0.0109,-0.0055,-10.75,90.44,300.50,1.7566,9.8160,0.1176,9.9726
11,2,1,3,0,03.258,3258,1.8800,9.4100,0.1600,9.5973,-0.0153,0.0229,-0.1265,-10.13,90.56,299.75,1.7729,9.7625,0.1232,9.9229
11,2,1,3,0,03.388,3388,0.8300,9.6800,0.0500,9.7156,0.0076,0.0327,-0.1047,-8.38,90.56,297.88,1.6486,9.7516,0.1135,9.8907
11,2,1,3,0,03.561,3561,1.0500,9.6400,0.0100,9.6970,0.0393,0.0447,-0.0796,-7.88,90.25,296.88,1.5697,9.7369,0.0999,9.8631
11,2,1,3,0,03.691,3691,1.4300,9.3500,0.1000,9.4592,0.0415,0.0589,0.0131,-7.75,89.94,296.31,1.5513,9.6859,0.0999,9.8099
11,2,1,3,0,03.821,3821,1.1700,8.9600,0.2100,9.0385,0.0240,0.0524,-0.0480,-7.38,89.69,295.56,1.5011,9.5903,0.1144,9.7077
11,2,1,3,0,03.951,3951,1.1500,8.5600,0.1400,8.6380,0.0022,0.0545,-0.0185,-7.50,89.63,295.25,1.4548,9.4545,0.1178,9.5665
11,2,1,3,0,04.081,4081,1.0500,9.0100,0.1900,9.0730,-0.0196,0.0600,0.1113,-7.38,89.69,294.75,1.4015,9.3959,0.1273,9.5007
11,2,1,3,0,04.211,4211,0.7800,9.0900,0.0500,9.1235,-0.0360,0.0382,-0.0938,-7.13,89.88,294.19,1.3196,9.3556,0.1171,9.4489
11,2,1,3,0,04.341,4341,1.5000,9.8800,0.1000,9.9937,-0.0458,0.0251,-0.1233,-7.13,90.19,294.00,1.3434,9.4247,0.1149,9.5207
11,2,1,3,0,04.471,4471,1.1700,9.4200,0.0000,9.4924,-0.0240,0.0251,0.1189,-6.63,90.44,293.38,1.3205,9.4241,0.0997,9.5167
11,2,1,3,0,04.645,4645,0.7400,9.2900,-0.0600,9.3196,-0.0065,-0.0087,0.0633,-6.50,90.63,293.19,1.2440,9.4064,0.0787,9.4887
11,2,1,3,0,04.776,4776,2.4200,8.8200,0.0900,9.1464,-0.0033,-0.0185,0.5607,-8.56,90.63,295.38,1.3990,9.3291,0.0802,9.4338
11,2,1,3,0,04.910,4910,1.0100,9.0300,-0.0200,9.0863,0.0153,-0.0611,-0.0425,-9.06,90.56,296.19,1.3477,9.2897,0.0670,9.3872
11,2,1,3,0,05.042,5042,1.8200,9.2600,0.0100,9.4372,0.0131,-0.0567,0.1145,-10.25,90.50,297.81,1.4100,9.2858,0.0595,9.3924
11,2,1,3,0,05.172,5172,1.5900,9.3000,0.0200,9.4350,0.0185,-0.0622,0.0600,-10.50,90.25,298.44,1.4337,9.2877,0.0543,9.3978
11,2,1,3,0,05.302,5302,1.2400,9.6600,-0.0200,9.7393,0.0338,-0.0545,0.1276,-10.75,90.00,299.13,1.4082,9.3367,0.0445,9.4424
11,2,1,3,0,05.432,5432,1.9600,9.5900,0.0600,9.7884,0.0447,-0.0425,0.1516,-11.69,89.63,300.38,1.4809,9.3701,0.0465,9.4865
11,2,1,3,0,05.563,5563,2.1500,9.5800,0.1300,9.8192,0.0436,-0.0305,0.1036,-12.50,89.25,301.38,1.5691,9.3978,0.0575,9.5280
11,2,1,3,0,05.736,5736,2.0900,9.8000,0.2200,10.0228,0.0284,-0.0229,0.0251,-13.25,88.88,302.25,1.6377,9.4508,0.0789,9.5919
11,2,1,3,0,05.866,5866,2.3000,9.5800,0.3900,9.8599,0.0207,-0.0065,-0.0044,-13.63,88.63,302.69,1.7250,9.4678,0.1199,9.6244
11,2,1,3,0,05.999,5999,2.2700,9.6000,0.4400,9.8745,0.0120,0.0164,0.0927,-13.75,88.38,302.75,1.7968,9.4852,0.1621,9.6553
11,2,1,3,0,06.130,6130,3.0400,9.6700,0.4100,10.1449,-0.0065,0.0436,0.2782,-14.38,88.38,303.19,1.9606,9.5096,0.1948,9.7115
11,2,1,3,0,06.264,6264,2.4300,9.4900,0.3200,9.8014,-0.0425,0.0513,-0.0044,-14.56,88.69,303.13,2.0225,9.5070,0.2113,9.7220
11,2,1,3,0,06.394,6394,2.6000,10.0700,0.1200,10.4009,-0.0578,0.0698,-0.0022,-14.56,89.13,302.81,2.0986,9.5812,0.1992,9.8103
11,2,1,3,0,06.525,6525,2.7400,10.1800,0.0600,10.5425,-0.0545,0.0753,0.1047,-14.38,89.69,302.19,2.1831,9.6601,0.1809,9.9054
11,2,1,3,0,06.655,6655,2.2000,10.5400,-0.1300,10.7679,-0.0371,0.0600,0.0142,-14.31,90.19,301.69,2.1853,9.7760,0.1399,10.0183
11,2,1,3,0,06.828,6828,2.9100,10.1000,0.1600,10.5121,0.0295,0.0218,0.0185,-14.81,90.25,301.81,2.2808,9.8187,0.1426,10.0812
11,2,1,3,0,06.958,6958,2.5400,9.7900,0.0100,10.1141,0.0295,-0.0120,-0.0535,-14.63,90.00,301.56,2.3150,9.8149,0.1251,10.0850
11,2,1,3,0,07.088,7088,2.5300,9.6200,0.0800,9.9474,0.0207,-0.0262,-0.0491,-14.38,89.69,301.44,2.3433,9.7893,0.1192,10.0665
11,2,1,3,0,07.218,7218,2.2300,9.8600,0.0000,10.1090,0.0000,-0.0338,-0.0185,-13.94,89.63,301.19,2.3284,9.7986,0.1035,10.0720
11,2,1,3,0,07.348,7348,2.5100,9.8700,0.0100,10.1842,0.0098,-0.0556,-0.1287,-13.94,89.50,301.44,2.3523,9.8080,0.0911,10.0865
11,3,1,3,0,07.478,7478,1.8500,9.6300,0.0200,9.8061,0.0295,-0.0665,-0.1800,-13.00,89.25,300.94,2.2861,9.7845,0.0818,10.0484
11,3,1,3,0,07.608,7608,1.6500,9.2600,0.2400,9.4089,0.0480,-0.0644,-0.1265,-11.94,88.88,300.25,2.2023,9.7154,0.1026,9.9624
11,3,1,3,0,07.738,7738,1.3200,8.7800,0.2200,8.8814,0.0415,-0.0698,-0.1953,-10.88,88.44,299.56,2.0860,9.5922,0.1181,9.8171
11,3,1,3,0,07.912,7912,1.8600,8.0500,0.2900,8.2672,0.0055,-0.0502,-0.0862,-10.25,88.13,299.38,2.0562,9.3889,0.1407,9.6125
11,3,1,3,0,08.043,8043,1.0200,9.1500,0.3400,9.2130,-0.0251,-0.0436,-0.3392,-8.25,88.19,297.75,1.9197,9.3574,0.1670,9.5538
11,3,1,3,0,08.178,8178,1.1100,9.2900,0.3500,9.3626,-0.0382,-0.0164,0.0295,-7.44,88.38,297.19,1.8130,9.3486,0.1911,9.5247
11,3,1,3,0,08.309,8309,1.3400,9.4400,0.3700,9.5418,-0.0360,-0.0142,-0.2836,-7.00,88.63,296.88,1.7507,9.3606,0.2147,9.5253
11,3,1,3,0,08.439,8439,0.6900,9.6900,0.1300,9.7154,-0.0218,0.0033,0.1331,-5.63,88.81,295.56,1.6109,9.4040,0.2035,9.5432
11,3,1,3,0,08.569,8569,1.1400,9.5200,0.0600,9.5882,-0.0284,-0.0022,0.0076,-6.31,89.00,296.25,1.5488,9.4193,0.1846,9.5476
11,3,1,3,0,08.700,8700,1.1000,9.6900,0.1600,9.7535,-0.0131,-0.0044,0.1047,-6.25,89.19,296.19,1.4897,9.4550,0.1814,9.5733
11,3,1,3,0,08.830,8830,1.3300,9.0600,0.1500,9.1583,0.0131,-0.0142,0.0764,-7.06,89.13,297.06,1.4687,9.4029,0.1772,9.5186
11,3,1,3,0,09.003,9003,0.7400,9.0000,0.0700,9.0306,0.0240,-0.0076,0.0851,-7.13,88.94,297.25,1.3726,9.3498,0.1631,9.4515
11,3,1,3,0,09.134,9134,1.3700,9.2500,0.2500,9.3542,0.0273,-0.0196,0.0916,-8.31,88.75,298.44,1.3723,9.3367,0.1746,9.4386
11,3,1,3,0,09.264,9264,1.7500,9.0200,0.3000,9.1931,0.0338,-0.0109,0.2607,-9.50,88.50,299.75,1.4221,9.2949,0.1911,9.4050
11,3,1,3,0,09.395,9395,1.7700,9.2100,0.2300,9.3814,0.0207,-0.0033,-0.0371,-10.50,88.31,300.75,1.4679,9.2838,0.1962,9.4011
11,3,1,3,0,09.527,9527,1.3400,9.6300,0.4000,9.7310,0.0207,0.0098,0.0524,-10.94,88.13,301.13,1.4511,9.3294,0.2231,9.4442
11,3,1,3,0,09.661,9661,1.8900,9.6600,0.3000,9.8477,0.0044,0.0131,0.0305,-11.75,88.06,301.88,1.5089,9.3729,0.2332,9.4965
11,3,1,3,0,09.792,9792,2.2900,9.7600,0.1900,10.0269,-0.0065,0.0305,-0.0196,-11.88,88.13,301.81,1.6118,9.4239,0.2275,9.5635
11,3,1,3,0,09.923,9923,1.4500,9.9800,0.3300,10.0902,-0.0131,0.0349,0.1134,-11.31,88.19,301.06,1.5905,9.4972,0.2410,9.6325
11,3,1,3,0,10.095,10095,2.1000,10.0600,0.2200,10.2792,-0.0153,0.0425,0.0207,-12.19,88.38,301.56,1.6576,9.5714,0.2382,9.7168
11,3,1,3,0,10.225,10225,1.9400,9.8400,0.3100,10.0342,-0.0131,0.0229,-0.1091,-12.38,88.56,301.56,1.6948,9.6068,0.2477,9.7583
11,3,1,3,0,10.355,10355,1.7500,9.9200,0.2000,10.0752,-0.0175,0.0316,0.0055,-12.50,88.69,301.50,1.7021,9.6481,0.2414,9.8000
11,3,1,3,0,10.485,10485,2.9900,9.9400,0.1900,10.3817,-0.0196,0.0273,-0.0175,-13.25,88.94,302.00,1.8718,9.6865,0.2346,9.8685
11,3,1,3,0,10.615,10615,2.7100,10.0700,0.1000,10.4288,-0.0087,0.0164,0.0556,-13.13,89.06,301.75,1.9823,9.7371,0.2169,9.9392
11,3,1,3,0,10.745,10745,2.2300,10.4600,0.0600,10.6952,0.0033,0.0022,-0.0556,-12.94,89.06,301.50,2.0149,9.8323,0.1962,10.0386
11,3,1,3,0,10.875,10875,2.6100,10.4200,0.0800,10.7422,0.0273,-0.0207,0.0491,-13.31,88.94,301.88,2.0933,9.9098,0.1809,10.1301
11,3,1,3,0,11.005,11005,2.4300,10.0600,0.3200,10.3543,0.0240,-0.0513,-0.0535,-13.06,88.69,301.88,2.1377,9.9296,0.1992,10.1590
11,4,1,3,0,11.178,11178,1.9000,9.6700,0.3300,9.8604,-0.0131,-0.0567,-0.0851,-12.25,88.50,301.63,2.1064,9.8954,0.2165,10.1194
11,4,1,3,0,11.311,11311,1.7300,9.3300,0.2500,9.4923,-0.0065,-0.0458,-0.0185,-11.75,88.44,301.50,2.0568,9.8209,0.2209,10.0364
11,4,1,3,0,11.442,11442,1.5000,9.2200,0.2900,9.3457,0.0065,-0.0436,-0.2007,-11.13,88.38,301.19,1.9834,9.7417,0.2300,9.9442
11,4,1,3,0,11.576,11576,1.6200,9.4200,0.2600,9.5618,0.0196,-0.0218,-0.0884,-10.31,88.31,300.63,1.9355,9.6993,0.2339,9.8933
11,4,1,3,0,11.706,11706,1.2900,9.9200,0.3100,10.0083,0.0262,-0.0120,-0.0949,-9.44,88.06,299.81,1.8505,9.7284,0.2440,9.9058
11,4,1,3,0,11.837,11837,1.6800,8.8500,0.3400,9.0145,0.0262,-0.0153,-0.0491,-9.38,87.81,299.81,1.8280,9.6126,0.2566,9.7883
11,4,1,3,0,11.968,11968,1.6900,8.1200,0.2200,8.2969,-0.0065,-0.0044,-0.1080,-8.94,87.75,299.31,1.8098,9.4159,0.2518,9.5916
11,4,1,3,0,12.098,12098,1.3100,9.4200,0.3000,9.5154,-0.0262,0.0055,-0.1691,-7.88,88.00,298.25,1.7440,9.4165,0.2581,9.5801
11,4,1,3,0,12.271,12271,1.3300,9.2700,0.3100,9.3701,-0.0153,-0.0022,-0.2280,-6.75,88.13,297.13,1.6894,9.3972,0.2650,9.5515
11,4,1,3,0,12.402,12402,0.3200,9.6100,0.2300,9.6181,0.0022,-0.0087,-0.2007,-4.56,88.19,294.94,1.5089,9.4252,0.2604,9.5488
11,4,1,3,0,12.533,12533,1.0000,9.5400,0.1900,9.5941,0.0098,-0.0044,0.2149,-4.81,88.19,295.25,1.4419,9.4403,0.2511,9.5531
11,4,1,3,0,12.667,12667,1.0400,9.5300,0.3100,9.5916,0.0033,-0.0142,0.0044,-5.31,88.19,295.81,1.3889,9.4522,0.2589,9.5572
11,4,1,3,0,12.798,12798,0.8300,9.0200,0.3900,9.0665,0.0033,-0.0098,0.1134,-5.81,88.19,296.38,1.3153,9.3952,0.2761,9.4908
11,4,1,3,0,12.930,12930,0.7400,8.3500,0.1400,8.3839,-0.0120,-0.0055,0.0044,-6.63,88.19,297.19,1.2395,9.2575,0.2582,9.3437
11,4,1,3,0,13.060,13060,0.7100,8.4100,0.3300,8.4464,-0.0185,0.0109,0.1178,-7.38,88.31,297.94,1.1697,9.1458,0.2677,9.2242
11,4,1,3,0,13.191,13191,0.9700,8.7300,0.1200,8.7845,-0.0120,0.0142,-0.0862,-8.63,88.38,299.06,1.1434,9.0910,0.2482,9.1660
11,4,1,3,0,13.363,13363,1.8400,10.0100,0.2600,10.1810,-0.0087,0.0349,0.2236,-10.13,88.50,300.31,1.2352,9.2121,0.2498,9.2979
11,4,1,3,0,13.494,13494,1.6700,9.4200,0.2400,9.5699,0.0131,0.0349,0.2716,-10.88,88.50,300.88,1.2925,9.2395,0.2485,9.3328
11,4,1,3,0,13.624,13624,1.5300,9.7500,0.2200,9.8718,0.0055,0.0371,0.0065,-11.13,88.50,300.88,1.3238,9.3068,0.2447,9.4036
11,4,1,3,0,13.755,13755,1.9300,9.8200,0.1100,10.0085,0.0022,0.0480,0.0807,-11.63,88.63,301.00,1.4037,9.3744,0.2270,9.4816
11,4,1,3,0,13.888,13888,1.9200,10.1700,0.2300,10.3522,-0.0065,0.0458,0.0033,-11.94,88.69,301.00,1.4717,9.4792,0.2274,9.5955
11,4,1,3,0,14.022,14022,2.2100,10.2400,0.1500,10.4768,0.0000,0.0458,0.1527,-12.81,88.75,301.44,1.5690,9.5795,0.2172,9.7096
11,4,1,3,0,14.152,14152,2.6900,9.9200,0.0800,10.2786,0.0022,0.0371,0.1396,-14.38,88.88,302.75,1.7167,9.6244,0.1991,9.7783
11,4,1,3,0,14.298,14298,3.1200,9.7700,0.1800,10.2577,0.0076,0.0120,-0.0185,-15.38,88.94,303.56,1.9016,9.6436,0.1966,9.8312
11,4,1,3,0,14.473,14473,3.0900,10.3000,0.2100,10.7556,0.0164,0.0000,-0.1342,-14.75,88.81,302.88,2.0582,9.7301,0.1983,9.9473
11,4,1,3,0,14.603,14603,3.0600,10.3400,0.3200,10.7880,0.0284,-0.0153,0.0295,-14.44,88.69,302.56,2.1902,9.8104,0.2144,10.0542
11,4,1,3,0,14.734,14734,2.5600,10.0600,0.1900,10.3824,0.0207,-0.0327,-0.0611,-14.00,88.44,302.25,2.2390,9.8433,0.2112,10.0970
11,4,1,3,0,14.864,14864,2.5200,9.8600,0.3200,10.1820,0.0098,-0.0436,-0.0524,-13.50,88.31,302.00,2.2760,9.8455,0.2255,10.1077
11,5,1,3,0,14.995,14995,1.9000,9.7800,0.3700,9.9697,-0.0044,-0.0524,-0.2858,-12.31,88.25,301.25,2.2264,9.8369,0.2445,10.0887
11,5,1,3,0,15.125,15125,1.3600,9.9200,0.1600,10.0141,-0.0284,-0.0382,-0.0851,-11.06,88.31,300.25,2.1123,9.8478,0.2334,10.0745
11,5,1,3,0,15.255,15255,1.7900,9.4400,0.2900,9.6126,-0.0382,-0.0284,-0.0982,-10.56,88.56,300.06,2.0698,9.7941,0.2409,10.0133
11,5,1,3,0,15.385,15385,1.4700,9.8200,0.3000,9.9339,-0.0393,0.0033,-0.1222,-9.75,88.88,299.31,1.9908,9.7975,0.2487,10.0008
11,5,1,3,0,15.558,15558,1.3800,8.4900,0.1300,8.6024,-0.0109,0.0175,-0.0425,-9.19,89.00,298.63,1.9103,9.6252,0.2330,9.8157
11,5,1,3,0,15.688,15688,1.8600,8.0700,0.0600,8.2818,-0.0164,0.0044,-0.1156,-9.31,89.13,298.69,1.9037,9.4203,0.2102,9.6130
11,5,1,3,0,15.818,15818,1.1700,9.4200,0.1200,9.4931,-0.0120,-0.0044,-0.3545,-7.38,89.25,296.81,1.8070,9.4202,0.1983,9.5940
11,5,1,3,0,15.948,15948,0.8000,9.3200,0.1000,9.3548,0.0098,-0.0065,-0.1887,-5.00,89.25,294.44,1.6743,9.4070,0.1854,9.5567
11,5,1,3,0,16.078,16078,0.2400,9.4800,0.0400,9.4831,0.0153,-0.0098,-0.1625,-3.56,89.19,293.00,1.4853,9.4166,0.1662,9.5345
11,5,1,3,0,16.208,16208,0.5000,9.5400,0.1100,9.5537,0.0164,-0.0011,0.1691,-3.25,89.13,292.69,1.3554,9.4329,0.1588,9.5311
11,5,1,3,0,16.338,16338,0.7200,9.6400,0.1000,9.6674,0.0098,-0.0120,0.0240,-3.94,89.06,293.44,1.2717,9.4602,0.1511,9.5465
11,5,1,3,0,16.468,16468,0.6600,9.6200,0.1400,9.6436,0.0185,-0.0175,0.0295,-4.00,89.00,293.63,1.1911,9.4812,0.1496,9.5569
11,5,1,3,0,16.641,16641,0.5500,8.8800,0.2200,8.8997,0.0207,-0.0142,0.1156,-4.50,88.81,294.25,1.1066,9.4020,0.1589,9.4683
11,5,1,3,0,16.774,16774,0.5900,8.6400,0.1700,8.6618,0.0109,-0.0098,0.0622,-5.44,88.69,295.19,1.0385,9.3016,0.1603,9.3608
11,5,1,3,0,16.905,16905,0.6600,9.2100,0.2400,9.2367,0.0033,0.0098,0.0175,-6.06,88.69,295.81,0.9887,9.2895,0.1708,9.3436
11,5,1,3,0,17.039,17039,1.1800,8.7800,0.0000,8.8589,0.0000,0.0185,0.1756,-7.19,88.69,296.88,1.0139,9.2224,0.1483,9.2791
11,5,1,3,0,17.170,17170,0.9100,9.2400,0.2300,9.2876,0.0022,0.0262,0.0982,-7.81,88.75,297.31,1.0002,9.2247,0.1591,9.2801
11,5,1,3,0,17.300,17300,1.3600,9.4400,0.3800,9.5450,0.0218,0.0371,0.1734,-8.75,88.69,298.00,1.0476,9.2531,0.1882,9.3141
11,5,1,3,0,17.430,17430,1.8500,9.9500,0.2900,10.1247,0.0098,0.0360,-0.0654,-9.63,88.56,298.63,1.1533,9.3449,0.2016,9.4180
11,5,1,3,0,17.561,17561,2.2600,9.6400,0.3000,9.9059,0.0022,0.0458,0.1244,-10.75,88.56,299.44,1.2992,9.3838,0.2146,9.4757
11,5,1,3,0,17.734,17734,2.3400,9.8700,0.1100,10.1442,0.0011,0.0556,0.1178,-11.50,88.69,299.63,1.4363,9.4479,0.2008,9.5585
11,5,1,3,0,17.865,17865,2.7000,10.0300,0.4200,10.3955,-0.0098,0.0491,0.0742,-11.44,88.75,299.19,1.6028,9.5246,0.2297,9.6612
11,5,1,3,0,17.998,17998,2.1800,10.0100,0.1000,10.2451,-0.0131,0.0491,0.3218,-11.25,88.94,298.75,1.6789,9.5885,0.2126,9.7367
11,5,1,3,0,18.131,18131,2.4300,10.0000,0.2200,10.2934,-0.0065,0.0305,0.1309,-12.88,89.06,300.13,1.7779,9.6428,0.2136,9.8076
11,5,1,3,0,18.262,18262,2.5600,9.7200,0.1000,10.0520,-0.0131,-0.0033,-0.0065,-13.69,89.13,300.81,1.8809,9.6529,0.1986,9.8365
11,5,1,3,0,18.392,18392,2.4000,9.6600,0.1900,9.9555,-0.0065,-0.0218,-0.0316,-13.56,89.13,300.81,1.9493,9.6539,0.1975,9.8507
11,5,1,3,0,18.523,18523,2.3000,10.3000,0.1600,10.5549,-0.0033,-0.0415,0.0044,-13.13,89.06,300.69,1.9955,9.7390,0.1925,9.9432
11,5,1,3,0,18.653,18653,3.0500,10.3000,0.2300,10.7446,0.0000,-0.0567,0.0884,-13.38,88.94,301.25,2.1345,9.8129,0.1975,10.0443
11,5,1,3,0,18.826,18826,3.2400,10.0900,0.2800,10.6011,0.0087,-0.0633,0.1713,-14.38,88.81,302.81,2.2802,9.8494,0.2083,10.1121
11,5,1,3,0,18.957,18957,2.0600,10.0200,0.2200,10.2319,0.0076,-0.0698,-0.0164,-13.44,88.69,302.44,2.2512,9.8719,0.2099,10.1275
11,5,1,3,0,19.093,19093,2.8000,10.0600,0.2800,10.4461,0.0142,-0.0698,0.0338,-13.69,88.50,303.13,2.3235,9.8967,0.2191,10.1682
11,6,1,3,0,19.224,19224,2.1900,9.5400,0.1700,9.7896,0.0142,-0.0633,-0.1407,-12.69,88.25,302.63,2.3059,9.8497,0.2126,10.1183
11,6,1,3,0,19.355,19355,1.5600,9.2200,0.3400,9.3572,0.0218,-0.0327,-0.0578,-11.38,88.06,301.63,2.2076,9.7667,0.2294,10.0157
11,6,1,3,0,19.485,19485,1.7000,9.1600,0.2200,9.3190,0.0218,-0.0120,0.1036,-11.06,87.88,301.50,2.1407,9.6868,0.2282,9.9231
11,6,1,3,0,19.615,19615,1.5500,8.0800,0.2400,8.2308,0.0000,-0.0098,-0.0687,-11.13,87.81,301.56,2.0629,9.4750,0.2297,9.6997
11,6,1,3,0,19.745,19745,1.6700,8.5700,0.3300,8.7374,-0.0076,0.0011,-0.2825,-10.00,87.81,300.50,2.0111,9.3558,0.2430,9.5726
11,6,1,3,0,19.918,19918,0.8800,9.3300,0.3100,9.3765,0.0011,0.0131,-0.0600,-7.00,87.88,297.44,1.8621,9.3524,0.2518,9.5393
11,6,1,3,0,20.048,20048,0.8200,9.4500,0.4400,9.4957,-0.0044,-0.0055,-0.3360,-5.88,87.88,296.31,1.7247,9.3652,0.2766,9.5268
11,6,1,3,0,20.178,20178,-0.1400,9.6100,0.3100,9.6160,0.0109,0.0055,0.1713,-4.38,87.88,294.81,1.4790,9.3975,0.2810,9.5173
11,6,1,3,0,20.308,20308,1.0300,9.4100,0.3600,9.4730,-0.0011,0.0000,0.0262,-5.69,87.88,296.13,1.4198,9.3991,0.2914,9.5102
11,6,1,3,0,20.438,20438,0.6100,9.5000,0.3300,9.5253,-0.0055,0.0044,0.1625,-5.69,87.88,296.13,1.3131,9.4124,0.2965,9.5082
11,6,1,3,0,20.568,20568,1.6400,9.1000,0.4400,9.2571,-0.0131,-0.0076,0.1320,-7.25,87.88,297.69,1.3562,9.3713,0.3154,9.4741
11,6,1,3,0,20.698,20698,1.0400,9.2300,0.1200,9.2892,-0.0262,-0.0120,-0.0164,-7.69,87.94,298.25,1.3145,9.3526,0.2897,9.4490
11,6,1,3,0,20.828,20828,0.9600,8.4700,0.2500,8.5279,-0.0196,0.0065,0.3087,-8.44,88.13,299.00,1.2678,9.2363,0.2844,9.3273
11,6,1,3,0,21.001,21001,1.7000,9.0000,0.3300,9.1651,-0.0076,0.0087,0.0218,-11.13,88.25,301.63,1.3248,9.2052,0.2904,9.3046
11,6,1,3,0,21.132,21132,2.0900,9.5500,0.2600,9.7795,0.0131,0.0262,0.2203,-12.13,88.25,302.50,1.4256,9.2506,0.2864,9.3642
11,6,1,3,0,21.263,21263,2.5900,9.6000,0.2600,9.9466,0.0196,0.0251,0.1865,-13.25,88.13,303.38,1.5790,9.2967,0.2829,9.4341
11,6,1,3,0,21.396,21396,1.4400,9.8300,0.3200,9.9401,0.0284,0.0011,-0.2040,-13.19,88.00,303.25,1.5607,9.3669,0.2878,9.5004
11,6,1,3,0,21.527,21527,2.2400,9.5400,0.2200,9.8019,0.0273,0.0196,0.2051,-14.25,87.81,304.13,1.6502,9.3898,0.2789,9.5377
11,6,1,3,0,21.660,21660,2.9200,10.1700,0.4300,10.5896,0.0076,0.0295,0.1451,-15.38,87.75,305.00,1.8176,9.4926,0.2988,9.6696
11,6,1,3,0,21.790,21790,3.3700,9.7600,0.3300,10.3307,-0.0022,0.0218,-0.0938,-15.50,87.81,304.94,2.0221,9.5278,0.3029,9.7447
11,6,1,3,0,21.921,21921,2.2500,9.7600,0.2500,10.0191,-0.0284,0.0120,-0.0687,-14.56,88.00,303.94,2.0522,9.5584,0.2959,9.7807
11,6,1,3,0,22.094,22094,3.1900,9.9900,0.4000,10.4946,-0.0185,0.0022,0.0000,-15.31,88.25,304.69,2.2021,9.6153,0.3097,9.8691
11,6,1,3,0,22.225,22225,2.7000,9.7100,0.1400,10.0794,-0.0142,-0.0175,-0.1287,-15.13,88.38,304.56,2.2677,9.6278,0.2873,9.8954
11,6,1,3,0,22.355,22355,2.5700,9.8600,0.1900,10.1912,-0.0153,-0.0207,0.0502,-14.75,88.44,304.31,2.3075,9.6584,0.2745,9.9340
11,6,1,3,0,22.488,22488,2.6400,10.0200,0.3100,10.3666,-0.0120,-0.0338,0.0229,-15.00,88.50,304.81,2.3513,9.7060,0.2792,9.9907
11,6,1,3,0,22.619,22619,3.0000,10.0000,0.2200,10.4426,-0.0033,-0.0284,0.1549,-15.06,88.50,305.13,2.4368,9.7448,0.2714,10.0485
11,6,1,3,0,22.752,22752,2.8700,9.7800,0.3100,10.1971,0.0055,-0.0415,-0.0589,-14.63,88.44,305.00,2.4939,9.7494,0.2765,10.0671
11,6,1,3,0,22.882,22882,2.5600,10.2200,0.2100,10.5378,-0.0087,-0.0360,-0.2029,-13.63,88.38,304.25,2.5026,9.8114,0.2677,10.1291
11,6,1,3,0,23.013,23013,2.8100,10.0400,0.1900,10.4275,-0.0044,-0.0273,-0.1931,-12.13,88.38,302.94,2.5431,9.8415,0.2575,10.1681
11,7,1,3,0,23.186,23186,0.8500,9.2400,0.2100,9.2814,0.0087,-0.0033,-0.0764,-10.06,88.31,301.06,2.3200,9.7623,0.2512,10.0373
11,7,1,3,0,23.317,23317,2.2900,9.9900,0.2900,10.2532,0.0142,0.0033,-0.1364,-10.06,88.31,301.06,2.3161,9.7923,0.2563,10.0657
11,7,1,3,0,23.447,23447,1.2500,8.5300,0.2500,8.6247,0.0316,0.0240,-0.1342,-8.50,88.13,299.38,2.1756,9.6259,0.2555,9.8720
11,7,1,3,0,23.578,23578,0.6800,7.8500,0.1800,7.8815,0.0098,0.0349,-0.2367,-7.00,88.06,297.69,1.9785,9.3919,0.2455,9.6012
11,7,1,3,0,23.708,23708,0.3100,9.0600,0.2200,9.0680,-0.0011,0.0556,-0.1353,-5.75,88.13,296.06,1.7586,9.3482,0.2422,9.5152
11,7,1,3,0,23.839,23839,0.9100,9.5300,0.3900,9.5813,0.0065,0.0524,-0.1571,-5.25,88.13,295.13,1.6468,9.3721,0.2617,9.5193
11,7,1,3,0,23.970,23970,0.2900,9.7000,0.3000,9.7090,0.0218,0.0480,-0.0262,-4.06,88.06,293.63,1.4680,9.4153,0.2667,9.5328
11,7,1,3,0,24.103,24103,0.5600,9.5900,0.2700,9.6101,0.0251,0.0404,0.0447,-3.94,87.94,293.19,1.3484,9.4384,0.2671,9.5379
11,7,1,3,0,24.276,24276,0.5200,9.5400,0.3600,9.5609,0.0262,0.0175,-0.0087,-3.81,87.69,292.75,1.2392,9.4518,0.2794,9.5367
11,7,1,3,0,24.407,24407,0.5700,8.7900,0.3100,8.8139,0.0229,-0.0011,0.1200,-4.31,87.50,293.19,1.1510,9.3646,0.2834,9.4393
11,7,1,3,0,24.537,24537,0.6200,8.4600,0.6000,8.5039,0.0207,-0.0196,0.1287,-5.50,87.38,294.38,1.0810,9.2454,0.3251,9.3140
11,7,1,3,0,24.668,24668,1.0800,8.7000,0.3100,8.7723,-0.0120,-0.0360,0.1233,-6.81,87.31,295.94,1.0809,9.1735,0.3231,9.2426
11,7,1,3,0,24.798,24798,1.2400,9.1800,0.4200,9.2729,-0.0196,-0.0393,0.1963,-7.88,87.38,297.31,1.1019,9.1743,0.3359,9.2464
11,7,1,3,0,24.928,24928,1.7300,9.8700,0.4600,10.0310,-0.0033,-0.0415,0.0927,-9.00,87.38,298.75,1.1846,9.2660,0.3523,9.3481
11,7,1,3,0,25.058,25058,2.0800,9.8800,0.5000,10.1089,0.0109,-0.0458,0.0753,-10.63,87.25,300.63,1.3026,9.3469,0.3717,9.4446
11,7,1,3,0,25.188,25188,2.0400,9.6400,0.3700,9.8604,0.0196,-0.0382,0.3109,-11.94,87.00,302.19,1.3998,9.3855,0.3715,9.4966
11,7,1,3,0,25.361,25361,2.5300,9.5500,0.6500,9.9008,0.0142,-0.0436,-0.0425,-13.13,86.75,303.75,1.5487,9.4072,0.4082,9.5426
11,7,1,3,0,25.491,25491,1.5500,10.1600,0.6500,10.2981,0.0065,-0.0436,-0.0022,-12.19,86.63,303.13,1.5489,9.5064,0.4401,9.6418
11,7,1,3,0,25.621,25621,1.8500,9.9300,0.4900,10.1127,-0.0109,-0.0251,0.2280,-13.44,86.56,304.63,1.5886,9.5622,0.4466,9.7036
11,7,1,3,0,25.751,25751,2.5500,9.6900,0.3300,10.0253,-0.0535,-0.0120,0.0349,-15.19,86.75,306.50,1.7153,9.5791,0.4313,9.7410
11,7,1,3,0,25.881,25881,2.4000,9.8400,0.5200,10.1418,-0.0633,-0.0142,0.0087,-15.44,87.25,306.94,1.8055,9.6135,0.4430,9.7916
11,7,1,3,0,26.011,26011,2.5100,9.9800,0.2900,10.2949,-0.0502,0.0055,-0.0033,-15.94,87.63,307.56,1.8983,9.6618,0.4228,9.8556
11,7,1,3,0,26.141,26141,2.8500,10.1300,0.3100,10.5278,-0.0305,0.0087,0.0055,-16.38,87.94,308.00,2.0237,9.7235,0.4079,9.9402
11,7,1,3,0,26.271,26271,3.3800,10.4600,0.4500,11.0017,-0.0098,0.0011,0.0349,-16.50,88.13,308.13,2.2025,9.8205,0.4135,10.0729
11,7,1,3,0,26.444,26444,2.9500,10.4400,0.1900,10.8504,0.0109,-0.0131,-0.2258,-15.19,88.13,306.88,2.3010,9.9021,0.3840,10.1732
11,8,1,3,0,26.574,26574,2.3100,9.6800,0.2900,9.9560,0.0229,-0.0120,-0.0851,-13.88,87.94,305.69,2.3022,9.8729,0.3716,10.1445
11,8,1,3,0,26.704,26704,2.4200,9.7200,0.3300,10.0222,0.0218,0.0065,-0.0698,-13.50,87.81,305.25,2.3177,9.8527,0.3662,10.1283
11,8,1,3,0,26.834,26834,2.2300,9.6000,0.4100,9.8641,0.0087,0.0011,-0.1920,-13.00,87.69,304.75,2.3061,9.8194,0.3719,10.0934
11,8,1,3,0,26.964,26964,1.4300,9.2200,0.4700,9.3421,0.0033,0.0033,-0.1582,-11.44,87.69,303.13,2.1907,9.7404,0.3849,9.9912
11,8,1,3,0,27.094,27094,1.6900,7.9400,0.1600,8.1194,-0.0076,0.0087,0.0469,-10.75,87.63,302.44,2.1247,9.5032,0.3552,9.7443
11,8,1,3,0,27.224,27224,1.4600,8.2900,0.2600,8.4216,-0.0338,0.0000,-0.2978,-9.81,87.94,301.56,2.0371,9.3433,0.3427,9.5690
11,8,1,3,0,27.354,27354,0.8700,9.3300,0.3100,9.3756,-0.0196,-0.0055,-0.4123,-7.31,88.13,299.06,1.8833,9.3416,0.3384,9.5355
11,8,1,3,0,27.527,27527,0.6300,9.7100,0.2300,9.7331,0.0033,0.0033,-0.1178,-4.44,88.19,296.19,1.7182,9.3901,0.3241,9.5515
11,8,1,3,0,27.657,27657,0.5600,9.4300,0.1600,9.4480,0.0164,0.0033,-0.0796,-3.94,88.06,295.69,1.5655,9.3954,0.3025,9.5297
11,8,1,3,0,27.788,27788,0.4500,9.5600,0.2200,9.5731,0.0142,0.0022,-0.1189,-3.44,88.00,295.19,1.4185,9.4171,0.2916,9.5278
11,8,1,3,0,27.918,27918,0.3900,9.7700,0.3000,9.7824,0.0175,0.0087,0.0556,-3.44,87.88,295.19,1.2830,9.4636,0.2927,9.5546
11,8,1,3,0,28.050,28050,0.6300,9.5000,0.4000,9.5293,0.0273,0.0076,0.0404,-4.06,87.69,295.75,1.1970,9.4684,0.3068,9.5487
11,8,1,3,0,28.181,28181,0.8100,9.6100,0.3600,9.6508,0.0360,0.0076,0.1876,-4.63,87.50,296.31,1.1460,9.4870,0.3139,9.5611
11,8,1,3,0,28.315,28315,1.4200,8.9900,0.5400,9.1175,0.0305,-0.0044,0.1233,-6.13,87.19,297.75,1.1821,9.4215,0.3437,9.5016
11,8,1,3,0,28.445,28445,0.6600,8.9800,0.1300,9.0052,0.0185,-0.0076,0.1298,-6.38,87.00,298.00,1.1133,9.3634,0.3155,9.4346
11,8,1,3,0,28.618,28618,0.7000,8.9100,0.5800,8.9563,0.0098,-0.0022,0.0687,-7.75,86.94,299.44,1.0588,9.3036,0.3504,9.3702
11,8,1,3,0,28.748,28748,1.4400,9.3100,0.5000,9.4340,0.0207,0.0175,0.2956,-9.13,86.75,300.75,1.1091,9.3045,0.3701,9.3776
11,8,1,3,0,28.878,28878,1.8800,9.3800,0.7200,9.5936,0.0360,0.0262,0.2443,-10.88,86.56,302.25,1.2106,9.3144,0.4162,9.4020
11,8,1,3,0,29.008,29008,1.7900,9.3300,0.5700,9.5172,0.0033,0.0142,0.0251,-11.94,86.44,303.19,1.2870,9.3165,0.4365,9.4151
11,8,1,3,0,29.138,29138,2.1000,9.5200,0.5600,9.7649,-0.0207,0.0305,0.2465,-12.63,86.56,303.69,1.3941,9.3433,0.4527,9.4576
11,8,1,3,0,29.268,29268,2.5400,9.5900,0.5900,9.9382,-0.0185,0.0436,0.2629,-14.19,86.75,305.06,1.5451,9.3758,0.4708,9.5139
11,8,1,3,0,29.399,29399,3.1500,9.6300,0.3500,10.1381,-0.0295,0.0393,0.0818,-15.56,87.00,306.13,1.7566,9.4093,0.4549,9.5827
11,8,1,3,0,29.529,29529,2.4300,10.0000,0.2800,10.2948,-0.0447,0.0196,-0.1167,-15.50,87.44,305.94,1.8453,9.4871,0.4319,9.6746
11,8,1,3,0,29.702,29702,2.6500,10.1300,0.4000,10.4785,-0.0196,0.0076,-0.0360,-15.25,87.81,305.69,1.9514,9.5718,0.4277,9.7781
11,8,1,3,0,29.832,29832,3.1600,10.0700,0.3900,10.5614,-0.0044,-0.0087,0.0742,-15.63,87.88,306.00,2.1106,9.6375,0.4227,9.8750
11,8,1,3,0,29.962,29962,2.6300,9.8100,0.4500,10.1664,0.0065,-0.0393,-0.1287,-15.56,87.81,306.13,2.1791,9.6602,0.4263,9.9121
11,8,1,3,0,30.092,30092,2.5500,9.7000,0.4900,10.0415,0.0076,-0.0415,-0.0884,-15.50,87.69,306.31,2.2280,9.6655,0.4347,9.9284
11,8,1,3,0,30.222,30222,2.7000,10.0800,0.4100,10.4434,0.0142,-0.0469,-0.0087,-15.56,87.50,306.69,2.2902,9.7201,0.4314,9.9956
11,8,1,3,0,30.352,30352,2.9500,10.5900,0.5000,11.0046,0.0109,-0.0611,-0.0393,-15.75,87.38,307.19,2.3771,9.8347,0.4405,10.1275
11,8,1,3,0,30.482,30482,2.7500,10.0300,0.6900,10.4230,0.0065,-0.0611,-0.1200,-15.19,87.19,307.06,2.4262,9.8605,0.4734,10.1656
11,9,1,3,0,30.612,30612,2.2300,9.5600,0.5700,9.8332,-0.0022,-0.0382,-0.1778,-14.19,87.13,306.44,2.4004,9.8209,0.4861,10.1216
11,9,1,3,0,30.785,30785,2.0300,9.3400,0.3300,9.5638,-0.0447,0.0022,-0.1625,-12.44,87.38,304.94,2.3516,9.7575,0.4655,10.0477
11,9,1,3,0,30.915,30915,1.7400,9.5100,0.4200,9.6770,-0.0316,0.0273,-0.2160,-11.13,87.75,303.50,2.2710,9.7249,0.4595,9.9971
11,9,1,3,0,31.045,31045,1.4800,8.8000,0.3700,8.9313,-0.0076,0.0229,-0.2018,-10.19,87.88,302.31,2.1668,9.6030,0.4477,9.8546
11,9,1,3,0,31.175,31175,1.3900,7.9700,0.2300,8.0936,-0.0251,0.0153,0.0087,-9.56,88.00,301.63,2.0644,9.3878,0.4190,9.6213
11,9,1,3,0,31.305,31305,1.3700,9.0800,0.2400,9.1859,-0.0349,0.0044,-0.2465,-8.88,88.25,300.88,1.9729,9.3473,0.3954,9.5614
11,9,1,3,0,31.435,31435,1.3900,9.4300,0.3100,9.5369,-0.0164,-0.0076,-0.0949,-7.81,88.44,299.88,1.8961,9.3582,0.3842,9.5560
11,9,1,3,0,31.565,31565,1.1100,9.7200,0.1400,9.7842,-0.0164,-0.0229,-0.2313,-6.44,88.50,298.63,1.7925,9.4058,0.3520,9.5816
11,9,1,3,0,31.695,31695,0.3900,9.4100,0.2200,9.4206,0.0000,-0.0196,0.0415,-5.13,88.56,297.50,1.6077,9.4064,0.3346,9.5487
11,9,1,3,0,31.868,31868,0.8900,9.6000,0.2200,9.6437,-0.0033,-0.0207,0.0665,-5.88,88.56,298.44,1.5131,9.4319,0.3195,9.5578
11,9,1,3,0,31.999,31999,0.8200,9.2700,0.2000,9.3083,-0.0044,-0.0153,0.1222,-6.50,88.56,299.19,1.4218,9.4106,0.3038,9.5222
11,9,1,3,0,32.129,32129,1.2100,8.7500,0.3500,8.8402,-0.0109,-0.0044,0.1636,-7.38,88.56,300.13,1.3939,9.3235,0.3099,9.4322
11,9,1,3,0,32.265,32265,0.8200,8.6400,-0.0400,8.6789,-0.0011,0.0087,0.0589,-7.75,88.50,300.50,1.3182,9.2335,0.2638,9.3308
11,9,1,3,0,32.395,32395,1.5400,8.8800,0.1500,9.0138,-0.0185,0.0207,0.0993,-8.69,88.69,301.25,1.3475,9.1869,0.2488,9.2885
11,9,1,3,0,32.526,32526,1.1000,9.7600,0.2200,9.8243,0.0011,0.0207,-0.0087,-8.50,88.75,301.00,1.3149,9.2624,0.2450,9.3585
11,9,1,3,0,32.657,32657,1.6300,9.6900,0.1300,9.8270,0.0316,0.0415,0.4102,-9.69,88.63,301.94,1.3564,9.3187,0.2298,9.4197
11,9,1,3,0,32.787,32787,2.4000,9.5700,0.4500,9.8766,0.0556,0.0284,0.2814,-11.69,88.31,303.63,1.4939,9.3519,0.2588,9.4740
11,9,1,3,0,32.960,32960,2.5600,9.7300,0.3600,10.0676,0.0349,0.0065,0.0240,-13.56,87.88,305.31,1.6344,9.4017,0.2722,9.5466
11,9,1,3,0,33.090,33090,2.8500,9.8200,0.3800,10.2323,0.0273,0.0098,0.0938,-14.13,87.69,305.81,1.7946,9.4568,0.2864,9.6298
11,9,1,3,0,33.220,33220,2.1600,10.0400,0.2200,10.2721,0.0109,0.0033,-0.1353,-13.88,87.56,305.50,1.8427,9.5337,0.2776,9.7141
11,9,1,3,0,33.351,33351,2.3500,10.1200,0.4500,10.3990,0.0022,-0.0011,0.0284,-13.69,87.56,305.38,1.9096,9.6109,0.3003,9.8034
11,9,1,3,0,33.481,33481,2.3600,10.1000,0.4100,10.3802,-0.0076,-0.0076,0.1069,-14.13,87.56,305.81,1.9689,9.6754,0.3148,9.8787
11,9,1,3,0,33.611,33611,2.6700,9.6800,0.4600,10.0520,-0.0109,-0.0076,0.1156,-14.69,87.63,306.31,2.0613,9.6760,0.3339,9.8987
11,9,1,3,0,33.741,33741,2.5800,9.8300,0.3600,10.1693,-0.0207,-0.0109,0.0873,-14.81,87.75,306.56,2.1297,9.6963,0.3374,9.9331
11,9,1,3,0,33.871,33871,2.6800,10.3600,0.3400,10.7064,-0.0295,-0.0142,-0.0382,-14.94,87.94,306.88,2.2022,9.7837,0.3377,10.0342
11,9,1,3,0,34.044,34044,2.5300,10.1800,0.2500,10.4927,-0.0185,-0.0120,-0.0098,-14.25,88.13,306.38,2.2454,9.8360,0.3262,10.0943
11,9,1,3,0,34.174,34174,2.4600,9.9600,0.2700,10.2629,-0.0131,-0.0131,0.0120,-14.06,88.25,306.25,2.2737,9.8523,0.3188,10.1163
11,9,1,3,0,34.305,34305,2.7200,9.6400,0.3300,10.0218,-0.0109,-0.0109,0.0862,-14.44,88.25,306.75,2.3325,9.8243,0.3202,10.1025
11,9,1,3,0,34.440,34440,2.9900,10.1100,0.2500,10.5458,0.0000,-0.0185,-0.1658,-14.19,88.19,306.63,2.4191,9.8620,0.3110,10.1591
11,10,1,3,0,34.571,34571,2.1400,9.7900,0.3300,10.0266,0.0153,-0.0153,-0.3371,-12.06,88.13,304.63,2.3823,9.8525,0.3135,10.1413
11,10,1,3,0,34.702,34702,1.7400,8.9100,0.2400,9.0815,0.0316,0.0207,-0.1374,-10.06,87.94,302.56,2.2977,9.7283,0.3038,10.0006
11,10,1,3,0,34.832,34832,0.9800,8.1700,0.3000,8.2340,0.0153,0.0087,-0.3120,-8.38,87.81,300.75,2.1241,9.5229,0.3033,9.7617
11,10,1,3,0,34.962,34962,0.9800,8.0400,0.2000,8.1020,-0.0109,0.0175,0.0196,-7.31,87.81,299.63,1.9733,9.3275,0.2897,9.5384
11,10,1,3,0,35.135,35135,0.7800,9.3500,0.1300,9.3834,-0.0164,0.0087,-0.4734,-5.31,88.00,297.63,1.8161,9.3305,0.2686,9.5094
11,10,1,3,0,35.266,35266,0.1100,9.8200,0.3400,9.8265,-0.0055,0.0175,-0.1342,-3.13,88.06,295.38,1.5912,9.3950,0.2780,9.5329
11,10,1,3,0,35.397,35397,0.8400,9.2900,0.2300,9.3307,0.0011,0.0142,0.1385,-3.38,88.06,295.50,1.4922,9.3812,0.2717,9.5030
11,10,1,3,0,35.527,35527,0.4300,9.5400,0.2000,9.5518,-0.0175,0.0055,0.0175,-3.38,88.13,295.44,1.3523,9.4021,0.2623,9.5025
11,10,1,3,0,35.658,35658,1.0800,9.6200,0.2600,9.6839,-0.0262,-0.0065,0.1582,-4.56,88.31,296.63,1.3164,9.4308,0.2620,9.5258
11,10,1,3,0,35.788,35788,0.9200,9.1700,0.2300,9.2189,-0.0284,-0.0207,0.0622,-5.25,88.50,297.50,1.2642,9.3964,0.2578,9.4846
11,10,1,3,0,35.924,35924,0.8900,8.7600,0.1800,8.8069,-0.0262,-0.0251,0.2269,-6.38,88.69,298.75,1.2149,9.3126,0.2475,9.3947
11,10,1,3,0,36.054,36054,1.7800,8.0300,0.0300,8.2250,-0.0229,-0.0305,0.3600,-9.19,88.81,301.81,1.2893,9.1436,0.2188,9.2366
11,10,1,3,0,36.227,36227,1.4200,9.8900,0.0800,9.9917,-0.0131,-0.0382,0.1604,-10.81,89.13,303.88,1.3065,9.2419,0.2006,9.3360
11,10,1,3,0,36.357,36357,1.8800,9.6100,0.2800,9.7962,0.0196,-0.0196,0.1560,-12.19,89.06,305.50,1.3821,9.2904,0.2110,9.3950
11,10,1,3,0,36.487,36487,2.7200,9.1500,0.1300,9.5466,0.0164,-0.0196,0.3480,-14.69,88.81,308.00,1.5584,9.2719,0.2003,9.4041
11,10,1,3,0,36.617,36617,3.2500,9.5500,0.1200,10.0886,0.0087,-0.0142,0.1494,-16.56,88.75,310.00,1.7813,9.3086,0.1898,9.4794
11,10,1,3,0,36.747,36747,3.2100,9.6600,0.3200,10.1844,0.0393,-0.0131,-0.0316,-16.94,88.56,310.44,1.9696,9.3549,0.2069,9.5622
11,10,1,3,0,36.878,36878,3.3300,10.3800,0.0900,10.9014,0.0622,-0.0076,-0.1331,-16.56,88.19,309.94,2.1489,9.4900,0.1915,9.7321
11,10,1,3,0,37.008,37008,3.0100,10.2400,0.5300,10.6864,0.0491,-0.0076,-0.2367,-15.31,87.81,308.63,2.2623,9.5888,0.2361,9.8549
11,10,1,3,0,37.138,37138,2.2900,10.0800,0.2100,10.3390,0.0349,0.0207,0.1822,-13.94,87.50,307.13,2.2660,9.6535,0.2327,9.9186
11,10,1,3,0,37.311,37311,2.2100,9.7800,0.4300,10.0358,-0.0076,0.0196,0.1222,-14.50,87.44,307.56,2.2586,9.6702,0.2587,9.9338
11,10,1,3,0,37.441,37441,2.7300,9.5600,0.5700,9.9585,-0.0175,0.0262,0.1167,-15.00,87.56,307.94,2.3207,9.6557,0.2997,9.9352
11,10,1,3,0,37.575,37575,2.0900,9.7700,0.3200,9.9962,-0.0349,0.0087,-0.0622,-14.19,87.81,307.06,2.2903,9.6707,0.3024,9.9428
11,10,1,3,0,37.706,37706,2.4000,10.3100,0.3400,10.5911,-0.0425,0.0033,0.0447,-14.19,88.13,307.19,2.3048,9.7550,0.3073,10.0283
11,10,1,3,0,37.839,37839,2.6900,10.5100,0.3700,10.8551,-0.0164,-0.0098,0.0873,-14.75,88.31,307.81,2.3555,9.8545,0.3156,10.1370
11,10,1,3,0,37.969,37969,2.8500,10.1300,0.2600,10.5265,0.0087,-0.0273,-0.0262,-14.63,88.25,307.81,2.4207,9.8908,0.3083,10.1874
11,10,1,3,0,38.100,38100,2.7400,10.0400,0.4100,10.4152,0.0218,-0.0458,-0.1124,-14.38,88.13,307.81,2.4628,9.9104,0.3217,10.2169
11,11,1,3,0,38.231,38231,2.3900,9.3600,0.3600,9.6670,0.0458,-0.0371,-0.1898,-13.50,87.81,307.19,2.4532,9.8379,0.3267,10.1444
11,11,1,3,0,38.403,38403,1.9300,9.1900,0.2700,9.3944,0.0415,-0.0338,-0.5312,-10.75,87.31,304.63,2.3842,9.7525,0.3192,10.0448
11,11,1,3,0,38.533,38533,1.0700,8.9000,0.5200,8.9792,0.0218,-0.0142,-0.3894,-7.50,87.06,301.50,2.2111,9.6402,0.3457,9.8965
11,11,1,3,0,38.663,38663,0.5900,7.8200,0.3200,7.8488,-0.0044,-0.0022,-0.1418,-5.44,87.00,299.50,1.9974,9.4003,0.3423,9.6163
11,11,1,3,0,38.793,38793,1.2400,8.6300,0.3900,8.7273,-0.0425,-0.0033,-0.1527,-4.44,87.19,298.50,1.8976,9.2988,0.3486,9.4969
11,11,1,3,0,38.923,38923,-0.7400,9.3000,0.3300,9.3352,-0.0447,0.0022,-0.2018,-1.44,87.56,295.56,1.5501,9.2990,0.3461,9.4336
11,11,1,3,0,39.053,39053,-0.3400,9.4300,0.3500,9.4426,-0.0404,0.0120,-0.0076,-1.13,87.88,295.19,1.3010,9.3162,0.3467,9.4130
11,11,1,3,0,39.183,39183,0.2600,9.5300,0.1500,9.5347,-0.0425,0.0164,-0.0131,-1.38,88.13,295.31,1.1638,9.3444,0.3207,9.4221
11,11,1,3,0,39.313,39313,0.4000,9.6800,0.2100,9.6905,-0.0425,0.0109,-0.0415,-1.56,88.44,295.38,1.0632,9.3886,0.3061,9.4536
11,11,1,3,0,39.486,39486,0.1100,9.7400,0.2200,9.7431,-0.0305,0.0044,-0.0491,-1.06,88.81,294.94,0.9376,9.4349,0.2948,9.4860
11,11,1,3,0,39.616,39616,-0.1200,9.7100,0.1000,9.7113,-0.0109,0.0076,0.0622,-0.69,89.00,294.56,0.7982,9.4712,0.2691,9.5086
11,11,1,3,0,39.746,39746,-0.3500,9.3500,0.1100,9.3572,0.0109,0.0044,-0.0044,-0.94,89.00,294.75,0.6469,9.4552,0.2482,9.4806
11,11,1,3,0,39.876,39876,0.0000,8.7600,0.0700,8.7603,0.0185,0.0207,0.2727,-1.75,88.88,295.50,0.5617,9.3636,0.2247,9.3831
11,11,1,3,0,40.006,40006,1.1100,8.5900,0.0400,8.6615,0.0327,0.0120,0.2422,-3.88,88.69,297.50,0.6339,9.2617,0.2003,9.2855
11,11,1,3,0,40.136,40136,1.7800,8.4300,0.2200,8.6187,0.0196,-0.0044,-0.0262,-5.50,88.44,299.06,0.7849,9.1521,0.2029,9.1879
11,11,1,3,0,40.266,40266,0.9200,9.4900,0.3200,9.5399,0.0262,0.0000,0.0600,-4.81,88.31,298.38,0.8027,9.1966,0.2184,9.2341
11,11,1,3,0,40.396,40396,0.4700,9.8300,0.2800,9.8452,0.0393,0.0065,0.1516,-4.88,88.13,298.44,0.7589,9.2801,0.2265,9.3138
11,11,1,3,0,40.569,40569,1.8900,10.0500,0.3500,10.2322,0.0218,0.0175,0.1440,-7.56,87.88,300.88,0.9079,9.3815,0.2428,9.4285
11,11,1,3,0,40.699,40699,2.3800,9.9300,0.4500,10.2211,0.0175,0.0131,0.2847,-9.06,87.69,302.19,1.1019,9.4538,0.2701,9.5216
11,11,1,3,0,40.832,40832,1.8400,10.1000,0.4300,10.2752,0.0098,0.0022,0.0665,-10.00,87.63,303.06,1.1992,9.5390,0.2911,9.6184
11,11,1,3,0,40.962,40962,2.4000,10.0500,0.3800,10.3396,0.0076,0.0131,0.0044,-10.88,87.63,303.88,1.3574,9.6063,0.3029,9.7065
11,11,1,3,0,41.096,41096,1.7500,10.0900,0.3600,10.2470,-0.0065,0.0196,0.0262,-10.69,87.69,303.56,1.4092,9.6700,0.3104,9.7771
11,11,1,3,0,41.228,41228,2.0900,10.0600,0.3900,10.2822,-0.0065,0.0284,0.0676,-11.06,87.75,303.75,1.4989,9.7214,0.3209,9.8415
11,11,1,3,0,41.358,41358,2.3000,10.1000,0.3600,10.3648,-0.0164,0.0305,0.0731,-11.69,87.81,304.25,1.6044,9.7713,0.3260,9.9075
11,11,1,3,0,41.488,41488,2.2200,10.2300,0.4100,10.4761,-0.0251,0.0196,-0.0764,-11.69,88.00,304.06,1.6856,9.8318,0.3371,9.9809
11,11,1,3,0,41.661,41661,2.2100,10.3900,0.2300,10.6249,-0.0284,0.0131,-0.0524,-11.25,88.19,303.44,1.7547,9.9053,0.3230,10.0647
11,11,1,3,0,41.791,41791,2.2700,10.4200,0.3100,10.6689,-0.0153,0.0000,-0.0785,-10.50,88.38,302.75,1.8226,9.9731,0.3213,10.1434
11,11,1,3,0,41.922,41922,1.8800,10.2000,0.2600,10.3751,-0.0044,-0.0076,-0.0676,-9.63,88.44,301.88,1.8301,10.0030,0.3132,10.1739
11,12,1,3,0,42.052,42052,2.2400,9.5200,0.1500,9.7811,-0.0087,-0.0131,-0.0851,-9.06,88.44,301.38,1.8841,9.9394,0.2917,10.1206
11,12,1,3,0,42.183,42183,1.3400,9.3300,0.2600,9.4293,-0.0218,-0.0164,-0.2978,-7.19,88.56,299.63,1.8124,9.8591,0.2875,10.0284
11,12,1,3,0,42.314,42314,1.1000,9.2300,0.2000,9.2975,-0.0109,-0.0076,-0.2476,-4.75,88.63,297.31,1.7186,9.7762,0.2760,9.9299
11,12,1,3,0,42.449,42449,-0.8300,8.2400,0.0600,8.2819,-0.0131,-0.0055,-0.2422,-2.06,88.75,294.69,1.3827,9.5738,0.2475,9.6763
11,12,1,3,0,42.580,42580,0.4700,7.9600,0.1700,7.9757,-0.0076,0.0022,0.0360,-3.00,88.75,295.50,1.2625,9.3611,0.2373,9.4488
11,12,1,3,0,42.753,42753,-0.4900,9.9000,-0.1400,9.9131,0.0000,-0.0196,-0.1505,-0.75,88.75,293.44,1.0315,9.4321,0.1876,9.4902
11,12,1,3,0,42.884,42884,0.4600,9.4800,0.1300,9.4920,0.0164,-0.0098,0.2313,-1.75,88.75,294.44,0.9562,9.4384,0.1800,9.4884
11,12,1,3,0,43.015,43015,-0.0600,9.7400,0.0800,9.7405,0.0087,-0.0349,-0.1342,-1.69,88.69,294.56,0.8223,9.4782,0.1668,9.5152
11,12,1,3,0,43.145,43145,0.1400,9.5000,0.0900,9.5015,0.0153,-0.0338,0.1014,-1.63,88.63,294.75,0.7324,9.4810,0.1567,9.5106
11,12,1,3,0,43.276,43276,0.3700,9.4500,0.2000,9.4594,0.0044,-0.0491,-0.0207,-2.19,88.63,295.63,0.6846,9.4770,0.1624,9.5030
11,12,1,3,0,43.406,43406,0.0900,9.1900,0.2200,9.1931,-0.0120,-0.0415,0.0338,-2.06,88.63,295.88,0.6063,9.4391,0.1700,9.4601
11,12,1,3,0,43.542,43542,0.8400,8.6300,0.3000,8.6760,-0.0175,-0.0316,0.2814,-3.38,88.75,297.44,0.6371,9.3325,0.1871,9.3561
11,12,1,3,0,43.672,43672,0.7700,8.3500,0.0200,8.3855,-0.0142,-0.0207,0.2051,-4.81,88.88,299.06,0.6546,9.2030,0.1651,9.2278
11,12,1,3,0,43.845,43845,0.3100,9.5000,-0.1100,9.5057,0.0076,0.0000,0.1091,-5.63,88.94,300.06,0.6092,9.2422,0.1289,9.2631
11,12,1,3,0,43.975,43975,1.3200,9.9800,0.1000,10.0674,0.0229,0.0153,0.3589,-7.38,89.00,301.69,0.7029,9.3394,0.1250,9.3666
11,12,1,3,0,44.105,44105,0.9500,9.9800,0.2200,10.0275,0.0305,0.0142,0.1113,-9.19,88.81,303.31,0.7354,9.4238,0.1376,9.4535
11,12,1,3,0,44.235,44235,2.9300,9.7400,0.3800,10.1783,0.0578,0.0382,0.3043,-12.50,88.44,306.31,1.0246,9.4655,0.1695,9.5223
11,12,1,3,0,44.365,44365,2.7400,9.6500,0.1900,10.0333,0.0371,0.0425,0.1505,-13.94,88.19,307.38,1.2507,9.4898,0.1722,9.5734
11,12,1,3,0,44.495,44495,2.5800,10.0200,0.4200,10.3553,0.0109,0.0262,-0.1942,-14.56,88.13,307.69,1.4258,9.5597,0.2049,9.6676
11,12,1,3,0,44.625,44625,2.6300,10.0300,0.3700,10.3757,-0.0033,0.0284,-0.0676,-14.19,88.19,307.13,1.5845,9.6216,0.2266,9.7539
11,12,1,3,0,44.756,44756,2.5400,9.8700,0.2800,10.1954,-0.0273,0.0338,-0.0644,-13.81,88.31,306.50,1.7104,9.6544,0.2337,9.8075
11,12,1,3,0,44.929,44929,3.0500,10.0200,0.4000,10.4816,-0.0415,0.0262,-0.0229,-12.94,88.81,305.50,1.8869,9.7025,0.2556,9.8876
11,12,1,3,0,45.059,45059,2.3600,9.8900,0.2600,10.1710,-0.0425,0.0185,-0.0196,-12.88,89.13,305.38,1.9493,9.7273,0.2562,9.9239
11,12,1,3,0,45.189,45189,2.8100,10.2700,0.1200,10.6482,-0.0393,0.0098,0.0622,-13.19,89.44,305.63,2.0627,9.7988,0.2382,10.0164
11,12,1,3,0,45.319,45319,2.6400,10.7900,0.0600,11.1084,-0.0251,-0.0218,-0.1091,-13.00,89.69,305.63,2.1388,9.9294,0.2147,10.1594
11,12,1,3,0,45.449,45449,2.2900,10.6100,0.0000,10.8543,0.0164,-0.0284,-0.0807,-12.44,89.69,305.25,2.1587,10.0191,0.1864,10.2507
11,12,1,3,0,45.580,45580,3.2900,10.4400,0.0400,10.9462,0.0371,-0.0349,-0.0011,-12.56,89.44,305.50,2.3078,10.0745,0.1671,10.3368
11,13,1,3,0,45.710,45710,1.4800,9.4100,0.1700,9.5272,0.0393,-0.0393,-0.1560,-10.50,89.13,303.75,2.1987,9.9870,0.1675,10.2275
11,13,1,3,0,45.840,45840,1.1900,9.1000,0.1800,9.1792,0.0196,-0.0240,-0.1407,-9.19,88.81,302.63,2.0658,9.8701,0.1692,10.0854
11,13,1,3,0,46.018,46018,2.5300,8.8500,0.2700,9.2085,0.0447,0.0022,0.0262,-8.81,88.56,302.19,2.1269,9.7357,0.1824,9.9670
11,13,1,3,0,46.149,46149,1.2300,8.0600,0.1500,8.1547,0.0273,0.0142,-0.2073,-6.63,88.31,299.94,2.0088,9.5149,0.1782,9.7262
11,13,1,3,0,46.279,46279,1.1100,8.7400,0.1600,8.8117,0.0087,-0.0033,-0.3687,-5.19,88.19,298.44,1.8903,9.4128,0.1758,9.6023
11,13,1,3,0,46.410,46410,0.2100,9.1500,0.2200,9.1551,-0.0087,0.0022,-0.0458,-3.50,88.25,296.75,1.6689,9.3781,0.1816,9.5272
11,13,1,3,0,46.540,46540,0.6600,9.7200,0.4100,9.7510,-0.0087,-0.0033,0.0284,-3.25,88.31,296.50,1.5360,9.4232,0.2117,9.5499
11,13,1,3,0,46.671,46671,0.7600,9.3800,0.0900,9.4112,-0.0087,0.0000,0.0698,-3.25,88.31,296.56,1.4337,9.4175,0.1957,9.5280
11,13,1,3,0,46.801,46801,0.6000,9.7000,0.1500,9.7197,-0.0196,0.0000,-0.0251,-3.00,88.44,296.25,1.3238,9.4547,0.1896,9.5488
11,13,1,3,0,46.931,46931,0.6100,9.6900,0.2100,9.7115,-0.0076,-0.0044,0.0491,-3.00,88.56,296.25,1.2298,9.4857,0.1923,9.5670
11,13,1,3,0,47.104,47104,0.4400,9.3200,0.2000,9.3325,0.0131,0.0022,0.1887,-3.50,88.56,296.81,1.1257,9.4639,0.1933,9.5326
11,13,1,3,0,47.235,47235,0.4200,8.5200,0.2100,8.5329,0.0273,-0.0065,0.1571,-4.81,88.38,298.13,1.0327,9.3395,0.1955,9.3985
11,13,1,3,0,47.366,47366,0.9900,7.9800,0.1000,8.0418,0.0240,0.0033,0.4080,-6.81,88.31,300.06,1.0271,9.1604,0.1829,9.2196
11,13,1,3,0,47.501,47501,1.3600,9.3500,0.2900,9.4528,0.0098,-0.0065,0.0818,-8.69,88.19,302.00,1.0710,9.1853,0.1971,9.2497
11,13,1,3,0,47.631,47631,1.6500,9.5700,0.3200,9.7165,0.0022,0.0065,0.2367,-9.75,88.13,303.00,1.1473,9.2360,0.2133,9.3095
11,13,1,3,0,47.763,47763,2.5400,9.6500,0.5100,9.9917,0.0131,0.0065,0.1767,-11.56,88.06,304.81,1.3308,9.2906,0.2524,9.3888
11,13,1,3,0,47.893,47893,2.2600,9.4700,0.3900,9.7437,0.0175,0.0087,0.0873,-12.50,87.88,305.75,1.4532,9.3142,0.2705,9.4308
11,13,1,3,0,48.023,48023,2.1000,9.7300,0.1100,9.9546,-0.0164,0.0131,-0.1189,-12.69,87.88,305.88,1.5385,9.3690,0.2493,9.4978
11,13,1,3,0,48.196,48196,2.4700,10.4500,0.4700,10.7482,-0.0251,0.0109,0.0371,-12.75,88.13,305.88,1.6612,9.5115,0.2784,9.6595
11,13,1,3,0,48.327,48327,2.2100,10.4000,0.2400,10.6349,-0.0164,0.0065,0.0240,-12.75,88.25,305.94,1.7335,9.6285,0.2734,9.7872
11,13,1,3,0,48.457,48457,2.4800,10.0600,0.2300,10.3637,-0.0196,-0.0131,-0.0578,-13.56,88.38,306.75,1.8319,9.6854,0.2676,9.8608
11,13,1,3,0,48.588,48588,2.6000,9.8100,0.1800,10.1503,-0.0229,-0.0087,0.1407,-14.00,88.50,307.31,1.9331,9.7018,0.2561,9.8958
11,13,1,3,0,48.718,48718,2.7900,10.1300,0.3600,10.5134,-0.0065,-0.0240,-0.0469,-14.63,88.56,308.06,2.0460,9.7582,0.2698,9.9741
11,13,1,3,0,48.854,48854,3.1400,10.1300,0.3100,10.6100,0.0142,-0.0349,-0.0240,-14.69,88.44,308.31,2.1902,9.8072,0.2751,10.0526
11,13,1,3,0,48.984,48984,2.4200,10.2200,0.3500,10.5084,0.0076,-0.0447,-0.1396,-14.19,88.38,308.13,2.2205,9.8616,0.2850,10.1125
11,13,1,3,0,49.116,49116,2.2900,9.9300,0.2200,10.1930,0.0120,-0.0447,0.0480,-14.00,88.25,308.19,2.2296,9.8706,0.2764,10.1231
11,13,1,3,0,49.288,49288,2.8500,9.9300,0.4100,10.3390,-0.0065,-0.0295,0.0033,-14.19,88.13,308.75,2.3114,9.8785,0.2940,10.1495
11,14,1,3,0,49.418,49418,2.6200,9.7600,0.3600,10.1120,0.0011,-0.0207,-0.2520,-12.81,88.06,307.56,2.3520,9.8628,0.3027,10.1439
11,14,1,3,0,49.548,49548,1.5600,9.8700,0.2400,9.9954,-0.0055,-0.0076,-0.2956,-10.38,88.06,305.25,2.2477,9.8638,0.2944,10.1209
11,14,1,3,0,49.678,49678,1.4000,9.7500,0.3000,9.8546,0.0011,0.0142,-0.1702,-8.56,88.13,303.44,2.1360,9.8488,0.2952,10.0821
11,14,1,3,0,49.809,49809,1.2000,8.6200,0.0400,8.7032,0.0207,0.0207,-0.2018,-7.00,88.06,301.69,2.0126,9.6869,0.2615,9.8972
11,14,1,3,0,49.939,49939,0.5200,7.4700,0.3400,7.4958,0.0098,0.0295,-0.1974,-5.25,87.94,299.81,1.8159,9.3947,0.2719,9.5725
11,14,1,3,0,50.069,50069,0.7100,9.5700,0.2500,9.5996,0.0207,0.0175,-0.1604,-4.50,87.88,298.88,1.6702,9.4178,0.2690,9.5686
11,14,1,3,0,50.199,50199,0.6000,9.2300,0.2700,9.2534,0.0196,0.0218,-0.0185,-3.63,87.75,297.88,1.5292,9.3931,0.2691,9.5206
11,14,1,3,0,50.375,50375,0.2400,9.8300,0.5800,9.8500,0.0196,0.0207,-0.0731,-3.19,87.63,297.19,1.3593,9.4507,0.3101,9.5529
11,14,1,3,0,50.509,50509,1.4400,9.2900,0.2700,9.4048,0.0044,0.0153,0.0360,-4.00,87.50,297.81,1.3699,9.4295,0.3048,9.5334
11,14,1,3,0,50.639,50639,0.1100,9.5200,0.3100,9.5257,-0.0218,-0.0033,-0.2051,-2.31,87.63,296.13,1.2039,9.4414,0.3055,9.5228
11,14,1,3,0,50.770,50770,0.4400,9.4700,0.4000,9.4887,-0.0415,-0.0055,0.1364,-2.94,87.88,296.75,1.1032,9.4452,0.3179,9.5147
11,14,1,3,0,50.900,50900,-0.0100,9.1600,0.1700,9.1616,-0.0458,-0.0044,0.0982,-3.19,88.19,297.06,0.9565,9.4076,0.2985,9.4608
11,14,1,3,0,51.031,51031,0.8300,8.3400,0.4400,8.3927,-0.0305,0.0153,0.4222,-4.44,88.50,298.31,0.9399,9.2669,0.3171,9.3199
11,14,1,3,0,51.161,51161,0.8400,8.8200,-0.1300,8.8609,-0.0076,0.0000,0.0273,-5.50,88.63,299.38,0.9267,9.2080,0.2582,9.2581
11,14,1,3,0,51.291,51291,0.9200,8.9500,0.0900,8.9976,-0.0076,0.0131,0.1822,-5.94,88.69,299.75,0.9258,9.1740,0.2360,9.2236
11,14,1,3,0,51.464,51464,0.3800,10.0200,0.1100,10.0278,0.0120,-0.0044,-0.0469,-5.38,88.69,299.19,0.8539,9.2855,0.2194,9.3273
11,14,1,3,0,51.595,51595,1.4000,9.8600,0.1200,9.9596,0.0295,0.0098,0.2913,-7.69,88.56,301.44,0.9259,9.3612,0.2063,9.4091
11,14,1,3,0,51.725,51725,2.2400,9.7800,0.1800,10.0349,0.0305,0.0055,0.5225,-10.75,88.38,304.44,1.0990,9.4164,0.2028,9.4825
11,14,1,3,0,51.861,51861,2.4900,10.0800,0.3500,10.3889,0.0327,-0.0218,-0.0022,-12.75,88.13,306.44,1.2823,9.5038,0.2222,9.5925
11,14,1,3,0,51.991,51991,3.3700,10.3700,0.5900,10.9198,0.0665,-0.0120,0.0644,-13.19,87.75,306.88,1.5574,9.6180,0.2707,9.7470
11,14,1,3,0,52.123,52123,1.9100,10.5600,0.1400,10.7323,0.0535,-0.0262,-0.1494,-11.88,87.25,305.69,1.6039,9.7421,0.2535,9.8765
11,14,1,3,0,52.253,52253,2.3600,10.1300,0.5100,10.4138,0.0033,-0.0229,0.0993,-12.31,87.00,306.19,1.7035,9.7932,0.2873,9.9444
11,14,1,3,0,52.384,52384,2.0500,9.8200,0.8200,10.0652,-0.0153,-0.0044,0.0644,-13.06,87.00,307.06,1.7492,9.7968,0.3575,9.9581
11,14,1,3,0,52.558,52558,2.0800,9.6400,0.4200,9.8708,-0.0545,0.0087,-0.0240,-13.00,87.25,307.00,1.7928,9.7761,0.3657,9.9458
11,14,1,3,0,52.689,52689,2.7000,10.7800,0.4800,11.1233,-0.0665,0.0240,0.0818,-13.19,87.75,307.25,1.9123,9.9084,0.3808,10.0984
11,14,1,3,0,52.824,52824,2.6900,10.6800,0.2800,11.0171,-0.0382,0.0338,-0.0087,-13.13,88.13,307.06,2.0148,10.0101,0.3675,10.2174
11,14,1,3,0,52.955,52955,2.6900,10.2400,0.1700,10.5888,-0.0055,0.0207,-0.1931,-12.50,88.38,306.19,2.1038,10.0404,0.3415,10.2641
11,15,1,3,0,53.086,53086,2.1900,9.9600,0.2900,10.2020,0.0382,0.0055,-0.2913,-11.25,88.25,304.81,2.1151,10.0298,0.3347,10.2558
11,15,1,3,0,53.216,53216,1.0500,9.2100,0.3200,9.2752,0.0382,0.0065,-0.2771,-9.19,87.94,302.75,1.9748,9.9217,0.3328,10.1218
11,15,1,3,0,53.346,53346,1.1600,9.0200,0.2900,9.0989,0.0273,-0.0109,-0.2334,-7.56,87.63,301.13,1.8674,9.8029,0.3271,9.9846
11,15,1,3,0,53.477,53477,0.1800,8.1900,0.3600,8.1999,-0.0185,0.0087,-0.0436,-6.00,87.63,299.56,1.6451,9.5904,0.3315,9.7361
11,15,1,3,0,53.649,53649,2.0700,8.7800,0.2800,9.0251,-0.0185,0.0164,-0.1811,-5.56,87.75,298.94,1.7011,9.4836,0.3247,9.6404
11,15,1,3,0,53.779,53779,-0.3500,9.2300,0.0700,9.2369,-0.0011,-0.0022,-0.3720,-1.50,87.81,294.94,1.4308,9.4502,0.2911,9.5623
11,15,1,3,0,53.909,53909,-0.1100,9.8400,0.3300,9.8461,-0.0044,-0.0044,-0.1702,-0.44,87.81,293.88,1.2277,9.5015,0.2962,9.5851
11,15,1,3,0,54.039,54039,0.3700,9.4800,0.1300,9.4881,-0.0175,-0.0055,0.1658,-0.06,87.88,293.50,1.1147,9.4987,0.2743,9.5678
11,15,1,3,0,54.169,54169,-0.8200,9.5300,0.2100,9.5675,-0.0207,-0.0196,-0.0644,0.81,88.06,292.69,0.8598,9.5028,0.2659,9.5453
11,15,1,3,0,54.299,54299,0.0000,9.6700,0.1900,9.6719,-0.0316,-0.0251,-0.1364,0.31,88.25,293.31,0.7465,9.5249,0.2559,9.5575
11,15,1,3,0,54.429,54429,-0.2700,9.5800,0.0800,9.5841,-0.0295,-0.0153,0.0196,0.81,88.50,292.94,0.6125,9.5321,0.2327,9.5546
11,15,1,3,0,54.559,54559,-0.4300,9.3500,0.1000,9.3604,-0.0175,-0.0153,-0.0262,0.75,88.75,293.13,0.4751,9.5081,0.2152,9.5224
11,15,1,3,0,54.732,54732,-0.0800,8.6200,0.1400,8.6215,0.0000,-0.0142,0.0109,-0.50,88.81,294.44,0.4020,9.3911,0.2053,9.4019
11,15,1,3,0,54.863,54863,0.2300,8.8400,0.2000,8.8453,0.0185,-0.0109,0.1527,-1.81,88.75,295.81,0.3793,9.3185,0.2046,9.3284
11,15,1,3,0,54.993,54993,0.7600,9.2500,-0.0100,9.2812,0.0207,0.0065,0.1025,-2.44,88.75,296.44,0.4295,9.3094,0.1763,9.3210
11,15,1,3,0,55.123,55123,0.5500,9.4800,0.1000,9.4965,0.0458,0.0142,0.2083,-2.50,88.50,296.44,0.4454,9.3319,0.1663,9.3440
11,15,1,3,0,55.254,55254,0.1000,9.6100,0.1500,9.6117,0.0600,0.0262,0.1385,-3.31,88.13,297.13,0.3999,9.3686,0.1641,9.3785
11,15,1,3,0,55.384,55384,0.8800,9.5800,0.3500,9.6267,0.0578,0.0480,0.3382,-5.06,87.69,298.56,0.4631,9.3964,0.1886,9.4097
11,15,1,3,0,55.517,55517,1.1100,9.6200,0.3500,9.6901,0.0469,0.0480,0.2902,-6.88,87.38,300.00,0.5484,9.4259,0.2099,9.4442
11,15,1,3,0,55.648,55648,2.1300,10.4100,0.4300,10.6344,0.0295,0.0469,0.1527,-8.81,87.13,301.56,0.7568,9.5556,0.2389,9.5885
11,15,1,3,0,55.822,55822,1.2600,10.5100,0.3800,10.5921,0.0022,0.0305,0.0774,-9.38,87.13,301.75,0.8231,9.6813,0.2575,9.7197
11,15,1,3,0,55.952,55952,1.6800,10.2600,0.7700,10.4251,0.0076,0.0404,0.2814,-10.69,87.19,302.81,0.9360,9.7576,0.3250,9.8078
11,15,1,3,0,56.083,56083,2.5700,9.6400,0.3400,9.9825,-0.0185,0.0284,0.0862,-12.19,87.25,304.06,1.1513,9.7421,0.3270,9.8153
11,15,1,3,0,56.213,56213,2.3000,9.6500,0.4600,9.9310,-0.0709,0.0055,-0.1440,-11.63,87.63,303.44,1.3027,9.7300,0.3445,9.8228
11,15,1,3,0,56.344,56344,2.1600,10.2200,0.3800,10.4527,-0.0698,-0.0011,-0.1440,-10.88,88.19,302.81,1.4157,9.7945,0.3492,9.9025
11,15,1,3,0,56.474,56474,2.4100,10.5000,0.1000,10.7735,-0.0535,-0.0098,-0.0709,-10.38,88.69,302.38,1.5467,9.8875,0.3164,10.0127
11,15,1,3,0,56.604,56604,1.8700,10.9100,0.0700,11.0693,-0.0425,-0.0360,-0.4025,-9.00,89.06,301.25,1.5893,10.0222,0.2839,10.1514
11,15,1,3,0,56.735,56735,1.1900,10.6000,0.0100,10.6666,0.0164,-0.0469,-0.1200,-7.13,89.13,299.69,1.5367,10.0984,0.2478,10.2176
11,16,1,3,0,56.907,56907,1.0500,9.5300,0.0700,9.5879,0.0316,-0.0665,-0.1287,-5.69,88.75,298.75,1.4726,10.0235,0.2244,10.1335
11,16,1,3,0,57.037,57037,0.8500,9.6400,0.2600,9.6809,0.0273,-0.0698,-0.2476,-4.25,88.56,297.75,1.3905,9.9729,0.2291,10.0720
11,16,1,3,0,57.167,57167,-0.4000,9.0900,0.3100,9.1041,0.0371,-0.0589,-0.3196,-1.63,88.25,295.63,1.1546,9.8566,0.2397,9.9269
11,16,1,3,0,57.297,57297,-0.5600,7.2400,0.2500,7.2659,0.0425,-0.0229,0.1931,-0.69,87.94,295.06,0.9286,9.5118,0.2411,9.5601
11,16,1,3,0,57.427,57427,0.5200,9.1200,0.5000,9.1485,0.0251,-0.0295,-0.3131,-1.44,87.75,295.94,0.8748,9.4602,0.2752,9.5045
11,16,1,3,0,57.557,57557,-0.7600,9.1000,0.3500,9.1384,0.0480,-0.0185,-0.2225,0.69,87.44,293.94,0.6594,9.4127,0.2851,9.4401
11,16,1,3,0,57.687,57687,-0.8000,9.6400,0.3100,9.6781,0.0469,0.0011,-0.2258,1.38,87.13,293.25,0.4671,9.4427,0.2883,9.4586
11,16,1,3,0,57.817,57817,0.6100,9.6900,0.4500,9.7196,0.0251,0.0142,-0.0622,0.88,86.81,293.69,0.4859,9.4752,0.3096,9.4928
11,16,1,3,0,57.990,57990,-0.3100,9.6700,0.4700,9.6864,0.0033,-0.0076,-0.0720,1.94,86.69,292.63,0.3810,9.5009,0.3308,9.5143
11,16,1,3,0,58.120,58120,-0.4800,9.4000,0.5100,9.4261,-0.0120,-0.0011,-0.0262,2.38,86.69,292.19,0.2676,9.4876,0.3544,9.4980
11,16,1,3,0,58.250,58250,-0.8400,9.3000,0.4900,9.3507,-0.0338,0.0065,0.0033,2.63,86.88,292.00,0.1216,9.4629,0.3723,9.4710
11,16,1,3,0,58.380,58380,-0.8100,8.5400,0.3700,8.5863,-0.0415,0.0251,0.2738,2.38,87.25,292.13,-0.0012,9.3413,0.3720,9.3487
11,16,1,3,0,58.510,58510,0.3000,8.4200,0.5300,8.4420,-0.0491,0.0305,0.3796,-0.06,87.56,294.38,0.0385,9.2199,0.3928,9.2283
11,16,1,3,0,58.640,58640,0.2500,8.4100,0.1000,8.4143,-0.0349,0.0382,0.4625,-1.63,87.88,295.81,0.0664,9.1132,0.3542,9.1203
11,16,1,3,0,58.770,58770,0.2700,9.1200,0.3100,9.1293,-0.0371,0.0185,0.0120,-3.75,88.13,297.75,0.0932,9.1141,0.3484,9.1212
11,16,1,3,0,58.900,58900,0.7500,9.8800,0.1600,9.9097,-0.0109,0.0382,0.2302,-4.63,88.31,298.44,0.1798,9.2150,0.3236,9.2224
11,16,1,3,0,59.073,59073,1.3700,9.9700,0.2100,10.0659,0.0175,0.0371,0.2705,-6.88,88.31,300.25,0.3366,9.3145,0.3086,9.3257
11,16,1,3,0,59.203,59203,1.6200,9.9800,0.2100,10.1128,0.0251,0.0262,0.0982,-8.19,88.19,301.31,0.5057,9.4022,0.2956,9.4204
11,16,1,3,0,59.333,59333,1.8800,10.0100,0.2300,10.1876,0.0327,0.0196,0.0611,-8.75,88.06,301.69,0.6868,9.4823,0.2870,9.5114
11,16,1,3,0,59.463,59463,1.3000,10.1100,0.2600,10.1966,0.0109,-0.0033,-0.0873,-8.19,88.00,301.06,0.7676,9.5650,0.2834,9.5999
11,16,1,3,0,59.593,59593,1.2000,10.3200,0.4300,10.3984,-0.0011,0.0055,0.0982,-7.88,88.00,300.75,0.8246,9.6645,0.3027,9.7043
11,16,1,3,0,59.723,59723,1.7100,10.2000,0.4200,10.3509,-0.0153,0.0185,0.1320,-8.50,88.00,301.38,0.9413,9.7351,0.3182,9.7856
11,16,1,3,0,59.853,59853,2.2300,9.7600,0.3400,10.0173,-0.0273,0.0076,0.1734,-9.50,88.19,302.31,1.1111,9.7383,0.3211,9.8068
11,16,1,3,0,59.983,59983,2.0000,9.6600,0.4600,9.8756,-0.0305,-0.0011,0.0698,-9.56,88.38,302.44,1.2282,9.7280,0.3394,9.8111
11,16,1,3,0,60.156,60156,1.6700,9.6700,0.4400,9.8230,-0.0218,-0.0087,-0.1669,-9.75,88.63,302.63,1.2864,9.7204,0.3526,9.8115
11,16,1,3,0,60.286,60286,1.7700,10.0600,0.2000,10.2165,-0.0153,-0.0055,0.0207,-9.88,88.75,302.75,1.3502,9.7651,0.3325,9.8636
11,16,1,3,0,60.417,60417,1.6400,10.1900,0.1400,10.3221,-0.0076,-0.0153,-0.1058,-9.88,88.81,302.81,1.3884,9.8211,0.3071,9.9235
11,16,1,3,0,60.547,60547,1.7000,10.4500,0.2700,10.5908,0.0131,-0.0164,-0.1276,-9.31,88.75,302.31,1.4294,9.9040,0.3022,10.0112
11,16,1,3,0,60.683,60683,1.1800,10.2800,0.1400,10.3484,0.0382,-0.0251,-0.1374,-8.50,88.50,301.63,1.3966,9.9535,0.2809,10.0550
11,16,1,3,0,60.813,60813,1.2800,10.1200,0.2800,10.2045,0.0382,-0.0262,0.0764,-8.25,88.25,301.50,1.3812,9.9755,0.2808,10.0745
11,17,1,3,0,60.945,60945,1.8700,9.7300,0.2900,9.9123,0.0164,-0.0349,-0.0698,-8.50,88.06,302.00,1.4456,9.9431,0.2820,10.0516
11,17,1,3,0,61.075,61075,1.5300,9.3800,0.3200,9.5093,-0.0055,-0.0360,-0.1844,-7.50,88.00,301.25,1.4567,9.8689,0.2870,9.9800
11,17,1,3,0,61.248,61248,0.5100,9.5100,0.2600,9.5272,-0.0175,-0.0131,-0.2694,-4.75,88.06,298.75,1.3320,9.8216,0.2834,9.9156
11,17,1,3,0,61.379,61379,0.0500,9.4200,0.2800,9.4243,-0.0087,0.0022,-0.2454,-2.69,88.13,296.69,1.1630,9.7687,0.2830,9.8418
11,17,1,3,0,61.509,61509,0.2500,8.6700,0.2200,8.6764,0.0000,0.0065,-0.0567,-1.69,88.19,295.75,1.0427,9.6239,0.2747,9.6841
11,17,1,3,0,61.639,61639,0.5200,8.2500,0.2000,8.2688,-0.0164,0.0033,-0.2280,-1.25,88.31,295.31,0.9738,9.4429,0.2648,9.4966
11,17,1,3,0,61.769,61769,-0.2800,9.3300,0.2200,9.3368,-0.0305,0.0044,-0.3447,1.19,88.50,292.75,0.8086,9.4280,0.2589,9.4662
11,17,1,3,0,61.899,61899,-1.4700,9.1700,0.0700,9.2873,-0.0076,0.0120,0.1014,3.00,88.63,290.94,0.5084,9.3940,0.2340,9.4107
11,17,1,3,0,62.029,62029,-0.7100,9.6200,0.2000,9.6482,0.0076,0.0131,0.0458,2.06,88.69,291.81,0.3478,9.4238,0.2295,9.4330
11,17,1,3,0,62.159,62159,-0.0800,9.8500,0.1700,9.8518,-0.0022,0.0011,-0.0709,1.75,88.69,292.00,0.2914,9.4799,0.2217,9.4870
11,17,1,3,0,62.336,62336,-0.1800,9.5300,0.1300,9.5326,0.0033,-0.0055,0.1058,2.44,88.69,291.38,0.2293,9.4865,0.2096,9.4916
11,17,1,3,0,62.467,62467,-0.6300,9.5400,0.1800,9.5625,-0.0044,-0.0120,-0.1276,3.13,88.69,290.75,0.1161,9.4936,0.2057,9.4965
11,17,1,3,0,62.599,62599,-0.7700,9.5600,0.2100,9.5933,-0.0065,-0.0153,-0.0055,3.63,88.75,290.38,-0.0007,9.5023,0.2063,9.5046
11,17,1,3,0,62.729,62729,-0.8000,9.4100,0.0900,9.4444,-0.0076,-0.0055,0.0338,3.44,88.75,290.56,-0.1060,9.4902,0.1910,9.4927
11,17,1,3,0,62.860,62860,-0.8100,9.4100,0.1400,9.4458,-0.0022,-0.0033,0.0960,3.25,88.81,290.75,-0.1988,9.4796,0.1842,9.4835
11,17,1,3,0,62.990,62990,-0.0700,9.6300,0.1000,9.6308,0.0087,0.0044,0.2236,2.13,88.88,291.88,-0.1818,9.4994,0.1731,9.5027
11,17,1,3,0,63.120,63120,-0.0500,9.1900,0.3300,9.1961,0.0218,-0.0120,0.0873,1.00,88.75,293.00,-0.1644,9.4586,0.1938,9.4621
11,17,1,3,0,63.251,63251,0.1500,8.9900,-0.0200,8.9913,0.0055,-0.0164,0.2007,-0.06,88.69,294.25,-0.1230,9.3969,0.1656,9.3992
11,17,1,3,0,63.424,63424,0.4200,9.1500,0.2600,9.1633,0.0044,-0.0087,0.0382,-1.63,88.75,295.94,-0.0515,9.3644,0.1781,9.3662
11,17,1,3,0,63.554,63554,0.3200,9.4700,0.0800,9.4757,0.0120,0.0055,0.0535,-2.06,88.69,296.31,-0.0025,9.3783,0.1651,9.3797
11,17,1,3,0,63.685,63685,0.1500,9.8000,0.3100,9.8060,0.0295,0.0196,0.1254,-2.44,88.56,296.63,0.0176,9.4339,0.1842,9.4357
11,17,1,3,0,63.815,63815,0.5100,9.7800,0.2900,9.7976,0.0469,0.0240,0.2694,-3.50,88.25,297.50,0.0825,9.4795,0.1982,9.4819
11,17,1,3,0,63.945,63945,0.5700,9.3400,0.3600,9.3643,0.0491,0.0284,0.2454,-5.25,87.94,299.06,0.1467,9.4611,0.2195,9.4648
11,17,1,3,0,64.076,64076,1.4800,9.3400,0.3900,9.4646,0.0207,0.0360,0.3338,-7.69,87.69,301.19,0.3224,9.4451,0.2420,9.4537
11,17,1,3,0,64.206,64206,2.1400,9.7000,0.4100,9.9417,0.0011,0.0295,0.2902,-10.19,87.69,303.44,0.5619,9.4787,0.2641,9.4990
11,17,1,3,0,64.342,64342,2.8900,9.7500,0.4600,10.1797,-0.0207,0.0251,0.1254,-11.75,87.63,304.88,0.8687,9.5145,0.2899,9.5584
11,17,1,3,0,64.515,64515,1.7900,10.0000,0.3800,10.1660,-0.0425,0.0305,-0.1200,-10.88,88.00,303.81,0.9901,9.5784,0.3018,9.6342
11,17,1,3,0,64.645,64645,1.4500,10.2000,0.0900,10.3029,-0.0578,0.0415,-0.0273,-10.31,88.50,303.06,1.0507,9.6604,0.2739,9.7212
11,17,1,3,0,64.775,64775,2.4800,10.0500,0.2600,10.3547,-0.0295,0.0535,0.2934,-11.19,88.94,303.63,1.2391,9.7117,0.2721,9.7942
11,17,1,3,0,64.905,64905,1.8500,9.8200,0.2500,9.9959,-0.0142,0.0295,-0.0349,-11.25,89.19,303.44,1.3196,9.7260,0.2691,9.8188
11,17,1,3,0,65.035,65035,2.0500,9.6000,0.1400,9.8174,-0.0033,0.0229,-0.0567,-11.00,89.19,303.00,1.4158,9.7094,0.2521,9.8153
11,17,1,3,0,65.166,65166,1.8000,9.7600,0.0600,9.9248,0.0044,0.0044,0.0916,-10.63,89.25,302.63,1.4664,9.7160,0.2268,9.8287
11,17,1,3,0,65.296,65296,1.9100,9.9300,0.0700,10.1123,0.0022,-0.0262,-0.0905,-10.75,89.19,302.75,1.5249,9.7442,0.2061,9.8650
11,17,1,3,0,65.426,65426,1.9300,10.0100,0.1100,10.1950,0.0109,-0.0415,-0.0098,-10.44,89.13,302.69,1.5783,9.7793,0.1935,9.9077
11,17,1,3,0,65.599,65599,1.6100,10.3500,0.1900,10.4762,0.0087,-0.0622,-0.0164,-10.25,89.00,303.00,1.5825,9.8545,0.1930,9.9826
11,17,1,3,0,65.730,65730,1.9300,10.2300,0.2200,10.4128,0.0065,-0.0807,0.0185,-10.44,88.88,303.75,1.6283,9.9040,0.1966,10.0388
11,17,1,3,0,65.860,65860,1.8400,9.6800,0.1600,9.8546,-0.0044,-0.0862,-0.1462,-10.00,88.75,303.88,1.6562,9.8744,0.1918,10.0142
11,17,1,3,0,65.994,65994,1.0800,10.2300,0.1800,10.2884,-0.0120,-0.0698,-0.1833,-8.88,88.75,303.38,1.5802,9.9213,0.1902,10.0482
11,18,1,3,0,66.125,66125,1.4200,9.6800,0.1800,9.7853,-0.0022,-0.0545,-0.1844,-8.31,88.69,303.19,1.5591,9.8895,0.1889,10.0134
11,18,1,3,0,66.258,66258,1.2700,9.3500,0.1200,9.4366,-0.0120,-0.0360,-0.2793,-6.94,88.63,302.19,1.5210,9.8184,0.1798,9.9371
11,18,1,3,0,66.388,66388,1.0900,9.6300,0.3500,9.6978,0.0087,-0.0207,-0.3862,-4.88,88.63,300.31,1.4642,9.7936,0.2022,9.9045
11,18,1,3,0,66.519,66519,0.5900,8.6000,0.2200,8.6230,0.0327,-0.0087,-0.1244,-3.25,88.44,298.75,1.3490,9.6363,0.2046,9.7324
11,18,1,3,0,66.692,66692,1.1200,8.8300,0.2300,8.9037,0.0251,0.0000,-0.1702,-3.00,88.19,298.50,1.3188,9.5300,0.2079,9.6231
11,18,1,3,0,66.823,66823,0.2300,9.4600,0.3300,9.4685,0.0218,0.0055,-0.2978,-1.06,88.00,296.63,1.1754,9.5208,0.2240,9.5957
11,18,1,3,0,66.954,66954,-0.3400,8.7000,0.2000,8.7089,0.0131,0.0044,-0.1822,0.44,87.88,295.00,0.9757,9.4127,0.2208,9.4657
11,18,1,3,0,67.085,67085,-1.2500,9.8900,0.4400,9.9784,0.0011,0.0153,-0.1047,1.69,87.88,293.69,0.6824,9.4756,0.2497,9.5034
11,18,1,3,0,67.220,67220,0.2200,9.5000,0.2800,9.5067,-0.0142,0.0120,-0.0131,0.88,87.88,294.44,0.6215,9.4788,0.2537,9.5025
11,18,1,3,0,67.351,67351,-1.0400,9.6300,0.2600,9.6895,-0.0109,0.0131,0.0491,2.38,88.00,292.88,0.4025,9.4987,0.2545,9.5106
11,18,1,3,0,67.481,67481,-0.3200,9.4900,0.3100,9.5005,-0.0229,0.0033,-0.0491,2.13,88.13,293.13,0.3073,9.4976,0.2618,9.5061
11,18,1,3,0,67.611,67611,-0.4200,9.6400,0.2000,9.6512,-0.0295,0.0109,0.0971,2.50,88.31,292.75,0.2115,9.5163,0.2537,9.5221
11,18,1,3,0,67.784,67784,-0.8100,9.2500,0.1800,9.2871,-0.0207,0.0022,0.0142,2.13,88.56,293.13,0.0769,9.4812,0.2440,9.4847
11,18,1,3,0,67.914,67914,0.2200,8.2900,0.0200,8.2929,-0.0142,0.0196,0.2367,1.00,88.63,294.19,0.0957,9.3243,0.2145,9.3272
11,18,1,3,0,68.044,68044,0.5800,9.4700,0.2200,9.4903,-0.0185,0.0076,0.1156,-1.06,88.69,296.19,0.1595,9.3435,0.2152,9.3473
11,18,1,3,0,68.174,68174,0.0300,9.7700,0.1500,9.7712,0.0011,0.0218,0.2193,-1.50,88.75,296.56,0.1425,9.3997,0.2066,9.4030
11,18,1,3,0,68.304,68304,0.5100,9.5800,0.2200,9.5961,0.0240,0.0284,0.2542,-2.81,88.75,297.75,0.1909,9.4234,0.2084,9.4277
11,18,1,3,0,68.434,68434,1.2600,9.3800,0.2200,9.4668,0.0338,0.0229,0.1571,-4.63,88.50,299.31,0.3318,9.4177,0.2099,9.4259
11,18,1,3,0,68.564,68564,0.8800,9.4700,0.3200,9.5162,0.0458,0.0240,0.2280,-5.88,88.25,300.38,0.4040,9.4246,0.2244,9.4359
11,18,1,3,0,68.694,68694,1.7500,9.5000,0.3000,9.6645,0.0524,0.0207,0.3382,-8.44,87.88,302.69,0.5814,9.4345,0.2344,9.4553
11,18,1,3,0,68.867,68867,2.2200,9.5100,0.3200,9.7709,0.0218,0.0065,0.1353,-10.31,87.56,304.44,0.7973,9.4445,0.2457,9.4813
11,18,1,3,0,68.998,68998,2.0700,9.8000,0.6200,10.0354,0.0011,-0.0011,-0.0349,-10.69,87.50,304.81,0.9650,9.4913,0.2950,9.5448
11,18,1,3,0,69.129,69129,2.1700,10.1600,0.3900,10.3965,-0.0316,-0.0109,-0.1265,-10.25,87.56,304.44,1.1238,9.5794,0.3075,9.6500
11,18,1,3,0,69.259,69259,1.4800,10.2300,0.2100,10.3386,-0.0589,0.0055,-0.0796,-9.19,87.88,303.44,1.1707,9.6652,0.2947,9.7403
11,18,1,3,0,69.390,69390,1.6700,10.0600,0.4200,10.2063,-0.0524,0.0251,0.2225,-9.31,88.31,303.50,1.2365,9.7172,0.3112,9.8005
11,18,1,3,0,69.520,69520,2.0700,9.6900,0.2100,9.9109,-0.0556,0.0229,0.0731,-10.31,88.69,304.44,1.3464,9.7136,0.2978,9.8110
11,18,1,3,0,69.651,69651,2.0900,9.5100,0.1900,9.7388,-0.0436,0.0175,-0.0295,-10.44,89.06,304.50,1.4444,9.6868,0.2836,9.7980
11,18,1,3,0,69.782,69782,1.7900,9.7300,0.0700,9.8935,-0.0273,0.0087,-0.1069,-10.00,89.38,304.00,1.4899,9.6925,0.2555,9.8096
11,18,1,3,0,69.957,69957,1.7400,10.4700,0.0000,10.6136,0.0044,-0.0011,-0.0851,-9.56,89.50,303.50,1.5229,9.7949,0.2218,9.9151
11,18,1,3,0,70.087,70087,1.5800,10.6100,0.0300,10.7270,0.0360,-0.0055,0.0022,-9.19,89.31,303.13,1.5304,9.9023,0.1965,10.0218
11,18,1,3,0,70.218,70218,1.4000,10.6000,0.0700,10.6923,0.0524,-0.0185,0.0393,-9.19,88.94,303.19,1.5132,9.9943,0.1799,10.1098
11,18,1,3,0,70.348,70348,1.7400,10.2300,0.2000,10.3788,0.0491,-0.0284,0.0295,-9.56,88.56,303.69,1.5431,10.0253,0.1825,10.1450
11,19,1,3,0,70.479,70479,1.9400,9.6400,0.3400,9.8391,0.0273,-0.0262,-0.0131,-9.63,88.25,303.88,1.5954,9.9746,0.2033,10.1034
11,19,1,3,0,70.609,70609,1.9100,9.2000,0.2500,9.3995,-0.0098,-0.0316,-0.2247,-8.63,88.19,303.06,1.6369,9.8725,0.2094,10.0095
11,19,1,3,0,70.740,70740,0.6600,9.6300,0.2800,9.6567,-0.0262,-0.0295,-0.4407,-5.81,88.38,300.56,1.5081,9.8405,0.2187,9.9578
11,19,1,3,0,70.870,70870,0.5500,9.7400,0.1800,9.7572,0.0011,-0.0273,-0.3436,-3.25,88.44,298.19,1.3819,9.8273,0.2136,9.9263
11,19,1,3,0,71.043,71043,-0.0400,8.6800,0.2100,8.6826,0.0305,-0.0120,0.0349,-0.81,88.31,295.94,1.1945,9.6761,0.2131,9.7519
11,19,1,3,0,71.173,71173,0.2000,8.0700,0.1800,8.0745,0.0055,-0.0076,0.0065,-0.31,88.19,295.56,1.0635,9.4645,0.2088,9.5263
11,19,1,3,0,71.303,71303,-0.8600,9.1300,0.1600,9.1718,-0.0022,-0.0207,-0.3458,1.25,88.19,294.00,0.8100,9.4204,0.2024,9.4573
11,19,1,3,0,71.433,71433,-1.0300,9.0200,0.3500,9.0854,0.0196,-0.0207,-0.2858,2.63,88.06,292.75,0.5675,9.3676,0.2218,9.3874
11,19,1,3,0,71.563,71563,-1.4100,9.9300,0.2400,10.0325,0.0316,-0.0087,-0.2334,4.00,87.94,291.44,0.3069,9.4417,0.2242,9.4494
11,19,1,3,0,71.693,71693,0.6200,9.3100,0.2300,9.3335,0.0098,-0.0044,0.2203,2.56,87.75,292.88,0.3482,9.4244,0.2250,9.4335
11,19,1,3,0,71.823,71823,-1.1000,9.5600,0.3600,9.6298,-0.0076,-0.0295,-0.1636,3.63,87.75,292.00,0.1574,9.4422,0.2428,9.4467
11,19,1,3,0,71.953,71953,-0.6600,9.5800,0.4200,9.6119,-0.0109,-0.0218,0.0000,3.63,87.75,292.19,0.0497,9.4604,0.2661,9.4643
11,19,1,3,0,72.126,72126,-1.0600,9.6700,0.2500,9.7311,-0.0305,-0.0207,-0.0884,4.19,88.00,291.81,-0.0966,9.4880,0.2640,9.4922
11,19,1,3,0,72.262,72262,-1.1800,9.4700,0.1700,9.5447,-0.0295,-0.0142,0.0011,4.31,88.25,291.81,-0.2393,9.4856,0.2516,9.4920
11,19,1,3,0,72.392,72392,-0.6600,9.4300,0.1800,9.4548,-0.0240,-0.0076,0.0993,3.44,88.44,292.63,-0.2948,9.4783,0.2422,9.4860
11,19,1,3,0,72.524,72524,-0.3800,9.3100,0.1700,9.3193,-0.0022,0.0055,0.2683,1.88,88.56,294.19,-0.3060,9.4561,0.2327,9.4639
11,19,1,3,0,72.654,72654,0.1800,8.7900,-0.0200,8.7919,0.0087,0.0055,0.2923,-0.19,88.69,296.31,-0.2420,9.3684,0.1994,9.3736
11,19,1,3,0,72.785,72785,0.0000,9.0200,0.2600,9.0237,0.0240,0.0065,0.1069,-1.38,88.69,297.50,-0.2101,9.3224,0.2074,9.3271
11,19,1,3,0,72.915,72915,0.5300,9.2500,0.0600,9.2654,0.0327,0.0120,-0.0011,-2.75,88.50,298.75,-0.1126,9.3129,0.1879,9.3155
11,19,1,3,0,73.045,73045,0.1700,9.2300,0.0600,9.2318,0.0284,0.0251,0.0480,-3.00,88.31,298.88,-0.0753,9.3020,0.1711,9.3039
11,19,1,3,0,73.218,73218,0.5700,9.6900,0.3000,9.7114,0.0316,0.0295,0.2727,-4.69,88.13,300.31,0.0097,9.3531,0.1881,9.3550
11,19,1,3,0,73.348,73348,1.0600,9.8000,0.4800,9.8688,0.0240,0.0338,0.3120,-6.56,88.00,301.94,0.1481,9.4120,0.2265,9.4159
11,19,1,3,0,73.478,73478,1.6900,9.9600,0.4000,10.1103,0.0251,0.0425,0.2367,-8.38,87.81,303.50,0.3513,9.4842,0.2494,9.4940
11,19,1,3,0,73.608,73608,1.5400,10.0300,0.3000,10.1520,0.0055,0.0360,-0.0185,-9.19,87.75,304.00,0.5079,9.5561,0.2561,9.5730
11,19,1,3,0,73.738,73738,2.2800,10.4000,0.3700,10.6534,0.0065,0.0229,0.1920,-10.63,87.81,305.19,0.7415,9.6673,0.2711,9.6995
11,19,1,3,0,73.868,73868,2.6700,10.3100,0.5000,10.6618,0.0011,0.0087,0.0960,-12.00,87.81,306.44,0.9956,9.7520,0.3012,9.8073
11,19,1,3,0,73.998,73998,2.2000,10.0200,0.4400,10.2681,-0.0120,-0.0033,0.0185,-12.00,87.75,306.38,1.1543,9.7873,0.3195,9.8603
11,19,1,3,0,74.128,74128,1.4100,9.6900,0.5200,9.8058,-0.0295,-0.0131,-0.0044,-11.50,87.94,306.00,1.1880,9.7745,0.3459,9.8525
11,19,1,3,0,74.301,74301,1.7800,9.8000,0.4100,9.9688,-0.0436,0.0076,-0.0076,-11.63,88.25,306.25,1.2660,9.7779,0.3544,9.8659
11,19,1,3,0,74.431,74431,1.8600,9.9900,0.1500,10.1628,-0.0589,0.0033,-0.0654,-11.81,88.63,306.50,1.3443,9.8058,0.3275,9.9029
11,19,1,3,0,74.562,74562,3.0800,10.2700,0.1000,10.7224,-0.0447,0.0196,0.1734,-12.63,89.00,307.31,1.5730,9.8670,0.2975,9.9960
11,19,1,3,0,74.693,74693,2.1000,10.7800,0.1000,10.9831,-0.0273,0.0011,0.0447,-12.00,89.25,306.75,1.6424,9.9873,0.2715,10.1251
11,19,1,3,0,74.824,74824,2.5900,10.5500,0.0400,10.8633,0.0098,-0.0175,0.0098,-11.88,89.31,306.63,1.7673,10.0614,0.2410,10.2183
11,19,1,3,0,74.959,74959,2.4500,10.3700,-0.0200,10.6555,0.0065,-0.0175,0.0185,-11.69,89.25,306.56,1.8573,10.1021,0.2066,10.2735
11,20,1,3,0,75.091,75091,2.4900,9.7700,0.1300,10.0831,0.0153,-0.0338,-0.3098,-10.88,89.19,305.94,1.9406,10.0583,0.1965,10.2457
11,20,1,3,0,75.221,75221,1.3900,9.3200,0.0700,9.4233,0.0153,-0.0284,-0.3665,-8.56,89.06,303.81,1.8681,9.9610,0.1798,10.1363
11,20,1,3,0,75.394,75394,0.4100,9.0300,0.2100,9.0417,0.0305,-0.0109,-0.4102,-4.88,88.81,300.31,1.6759,9.8384,0.1838,9.9818
11,20,1,3,0,75.524,75524,0.3400,7.8300,0.1900,7.8397,0.0327,-0.0131,-0.1364,-3.06,88.50,298.56,1.4999,9.5737,0.1846,9.6923
11,20,1,3,0,75.655,75655,0.3300,8.3000,0.3600,8.3144,0.0131,-0.0164,-0.4200,-1.56,88.31,297.13,1.3457,9.4059,0.2077,9.5039
11,20,1,3,0,75.785,75785,-0.7400,9.4200,0.2500,9.4523,0.0207,-0.0011,-0.4603,1.50,88.25,294.06,1.0709,9.4077,0.2133,9.4709
11,20,1,3,0,75.918,75918,-0.8800,9.3600,0.3300,9.4071,0.0175,0.0175,-0.0535,3.00,88.06,292.50,0.8138,9.4014,0.2287,9.4394
11,20,1,3,0,76.049,76049,-1.3400,9.1500,0.1200,9.2484,0.0207,0.0229,0.0971,3.94,87.88,291.44,0.5300,9.3683,0.2144,9.3857
11,20,1,3,0,76.183,76183,-0.6100,9.6000,0.3800,9.6269,-0.0065,0.0055,-0.0305,3.25,87.88,292.00,0.3798,9.3988,0.2362,9.4095
11,20,1,3,0,76.314,76314,-0.7200,9.5600,0.3300,9.5928,-0.0207,-0.0011,0.0295,3.63,87.94,291.63,0.2349,9.4201,0.2485,9.4263
11,20,1,3,0,76.486,76486,-0.7900,9.4500,0.2000,9.4851,-0.0393,-0.0011,-0.0175,3.81,88.25,291.44,0.0998,9.4240,0.2421,9.4277
11,20,1,3,0,76.616,76616,-0.9100,9.5000,0.2200,9.5460,-0.0415,-0.0033,0.0338,4.13,88.56,291.13,-0.0333,9.4340,0.2392,9.4371
11,20,1,3,0,76.746,76746,-0.8400,9.3300,0.1000,9.3683,-0.0360,0.0055,0.1713,3.94,88.88,291.25,-0.1396,9.4203,0.2209,9.4239
11,20,1,3,0,76.876,76876,-0.5100,8.6800,-0.0600,8.6952,-0.0142,0.0142,0.2673,2.88,89.13,292.25,-0.1884,9.3228,0.1839,9.3265
11,20,1,3,0,77.006,77006,0.2400,8.8300,0.2900,8.8380,-0.0044,0.0120,0.3098,0.38,89.19,294.63,-0.1319,9.2578,0.1979,9.2609
11,20,1,3,0,77.136,77136,0.3000,8.9100,-0.0800,8.9154,0.0076,0.0185,0.3611,-1.69,89.19,296.75,-0.0750,9.2120,0.1612,9.2137
11,20,1,3,0,77.266,77266,0.8300,9.1200,0.0900,9.1581,0.0087,0.0295,0.3305,-4.13,89.19,298.94,0.0442,9.1999,0.1519,9.2012
11,20,1,3,0,77.397,77397,0.8600,9.2200,0.0700,9.2603,0.0229,0.0164,0.2923,-5.88,89.06,300.50,0.1517,9.2025,0.1411,9.2049
11,20,1,3,0,77.569,77569,1.2900,9.6600,0.1600,9.7471,0.0218,0.0229,0.3458,-8.31,88.94,302.81,0.3017,9.2628,0.1436,9.2688
11,20,1,3,0,77.699,77699,2.4500,9.9600,0.2000,10.2589,0.0284,0.0251,0.2018,-10.75,88.75,305.00,0.5848,9.3547,0.1510,9.3742
11,20,1,3,0,77.829,77829,2.7600,10.0200,0.3500,10.3991,0.0185,0.0098,0.1091,-11.94,88.56,306.06,0.8715,9.4424,0.1772,9.4841
11,20,1,3,0,77.959,77959,2.5500,10.1100,0.3300,10.4318,0.0044,-0.0065,-0.1222,-11.56,88.50,305.63,1.0926,9.5303,0.1974,9.5948
11,20,1,3,0,78.089,78089,1.7700,10.0400,0.3700,10.2015,-0.0109,-0.0120,-0.0316,-10.81,88.50,305.00,1.1819,9.5975,0.2201,9.6725
11,20,1,3,0,78.219,78219,1.7800,10.1800,0.2400,10.3372,-0.0131,0.0000,0.0916,-10.75,88.56,304.94,1.2607,9.6743,0.2227,9.7586
11,20,1,3,0,78.349,78349,1.8500,10.0500,0.1200,10.2196,-0.0131,-0.0011,-0.0698,-11.00,88.63,305.19,1.3384,9.7238,0.2092,9.8177
11,20,1,3,0,78.479,78479,2.0100,10.1200,0.2600,10.3210,-0.0120,-0.0131,-0.1604,-10.69,88.75,304.94,1.4269,9.7760,0.2159,9.8819
11,20,1,3,0,78.652,78652,1.6800,10.4400,0.3400,10.5798,0.0273,-0.0098,-0.0360,-9.94,88.69,304.25,1.4602,9.8635,0.2322,9.9737
11,20,1,3,0,78.782,78782,1.7500,10.0100,0.4400,10.1713,0.0545,-0.0153,0.1593,-9.88,88.31,304.19,1.4984,9.8828,0.2596,9.9991
11,20,1,3,0,78.913,78913,1.1900,10.0100,0.5600,10.0960,0.0185,-0.0338,-0.1189,-10.25,88.06,304.69,1.4578,9.8996,0.2992,10.0108
11,20,1,3,0,79.043,79043,2.0500,9.9600,0.6000,10.1865,0.0131,-0.0273,0.0175,-10.56,87.81,305.19,1.5358,9.9075,0.3388,10.0316
11,20,1,3,0,79.174,79174,1.9200,10.0000,0.4000,10.1905,-0.0185,-0.0251,-0.1876,-9.94,87.81,304.81,1.5864,9.9197,0.3469,10.0517
11,20,1,3,0,79.304,79304,1.5900,10.0800,0.3000,10.2090,-0.0218,-0.0273,-0.3054,-8.38,88.00,303.44,1.5869,9.9408,0.3407,10.0725
11,20,1,3,0,79.434,79434,0.8900,9.9800,0.3000,10.0241,-0.0131,-0.0185,-0.4363,-6.25,88.13,301.50,1.4951,9.9460,0.3354,10.0633
11,20,1,3,0,79.565,79565,0.9600,9.0600,0.3600,9.1178,0.0120,-0.0131,-0.2836,-4.00,88.13,299.25,1.4246,9.8292,0.3386,9.9377
11,20,1,3,0,79.742,79742,0.1700,8.3800,0.2200,8.3846,0.0033,-0.0142,-0.3949,-0.25,88.13,295.63,1.2592,9.6383,0.3230,9.7255
11,20,1,3,0,79.873,79873,0.1000,7.4900,0.3500,7.4988,-0.0425,-0.0185,-0.3371,1.88,88.19,293.56,1.1065,9.3552,0.3265,9.4260
11,20,1,3,0,80.003,80003,-1.8300,8.9700,0.2700,9.1588,-0.0295,-0.0338,-0.7265,5.25,88.44,290.31,0.7195,9.3044,0.3191,9.3377
11,20,1,3,0,80.133,80133,-2.0500,9.6900,0.3700,9.9114,0.0076,-0.0098,0.0415,7.25,88.50,288.44,0.3546,9.3552,0.3258,9.3676
