participant,rep,equipment_code,exercise_code,quality_code,timestamp,timestamp_ms,accelX,accelY,accelZ,accelMag,gyroX,gyroY,gyroZ,roll,pitch,yaw,filteredX,filteredY,filteredZ,filteredMag
11,1,1,3,0,00.000,0,-6.2000,7.4700,-0.2000,9.7098,-0.0131,-0.0011,-0.1560,39.25,92.13,252.06,-6.1424,7.5628,-0.2531,9.7462
11,1,1,3,0,00.173,173,-6.1900,7.0800,-0.2500,9.4077,-0.0022,0.0044,0.0371,39.63,92.25,251.69,-6.1487,7.4992,-0.2527,9.7009
11,1,1,3,0,00.307,307,-4.9800,5.4300,-0.3100,7.3744,-0.0087,0.0044,0.2269,38.81,92.25,252.44,-5.9947,7.2265,-0.2602,9.3929
11,1,1,3,0,00.437,437,-5.6100,7.7100,-0.2800,9.5391,-0.0436,0.0055,0.3185,36.75,92.44,254.38,-5.9440,7.2902,-0.2629,9.4100
11,1,1,3,0,00.571,571,-5.1300,7.5600,-0.1100,9.1369,0.0011,-0.0142,0.1604,35.06,92.44,256.00,-5.8367,7.3258,-0.2427,9.3698
11,1,1,3,0,00.702,702,-5.3900,8.3500,-0.2800,9.9425,0.0327,-0.0022,0.0393,34.13,92.44,257.00,-5.7778,7.4608,-0.2476,9.4397
11,1,1,3,0,00.832,832,-5.9400,8.1900,-0.2800,10.1212,0.0295,0.0065,-0.3763,35.25,92.25,255.88,-5.7992,7.5569,-0.2519,9.5289
11,1,1,3,0,00.962,962,-6.8200,7.4800,-0.1000,10.1229,0.0185,0.0284,-0.3065,38.25,92.00,253.00,-5.9337,7.5467,-0.2319,9.6029
11,1,1,3,0,01.093,1093,-6.3600,7.4400,-0.1700,9.7894,0.0785,0.0545,0.2247,38.88,91.44,252.38,-5.9899,7.5327,-0.2237,9.6265
11,1,1,3,0,01.266,1266,-5.0400,8.1100,-0.0600,9.5487,0.0829,0.0404,0.6600,34.00,90.38,257.19,-5.8647,7.6087,-0.2021,9.6088
11,1,1,3,0,01.397,1397,-4.5700,9.3100,-0.2000,10.3731,0.0251,0.0087,0.3240,30.00,89.88,261.25,-5.6941,7.8329,-0.2019,9.6860
11,1,1,3,0,01.527,1527,-4.6100,9.0500,0.3100,10.1612,0.0404,-0.0458,-0.3033,30.25,89.63,261.31,-5.5513,7.9933,-0.1344,9.7328
11,1,1,3,0,01.663,1663,-4.6700,8.3500,0.1400,9.5682,0.0251,-0.0644,-0.2814,32.75,89.63,259.25,-5.4351,8.0403,-0.0983,9.7055
11,1,1,3,0,01.793,1793,-6.3700,8.8100,-0.3200,10.8764,-0.0436,-0.0840,-0.1996,34.25,90.00,258.19,-5.5583,8.1417,-0.1275,9.8590
11,1,1,3,0,01.925,1925,-5.9200,9.0500,0.2200,10.8165,-0.0469,-0.0709,0.4342,33.56,90.50,259.38,-5.6060,8.2614,-0.0817,9.9842
11,1,1,3,0,02.055,2055,-4.4300,8.5300,0.1900,9.6136,0.0022,-0.0840,0.2465,30.19,90.94,263.19,-5.4510,8.2968,-0.0459,9.9274
11,1,1,3,0,02.186,2186,-5.4500,8.3200,-0.0500,9.9462,-0.0153,-0.0742,-0.3491,30.56,91.50,263.13,-5.4509,8.2999,-0.0464,9.9299
11,1,1,3,0,02.359,2359,-5.3300,8.8000,-0.3900,10.2957,-0.0196,-0.0185,0.1462,31.38,91.94,262.63,-5.4350,8.3658,-0.0917,9.9766
11,1,1,3,0,02.490,2490,-4.7400,8.7500,-0.2800,9.9553,0.0218,0.0076,0.1822,29.94,91.88,264.06,-5.3434,8.4164,-0.1165,9.9700
11,1,1,3,0,02.620,2620,-4.7900,8.6800,-0.2500,9.9171,0.0404,0.0251,-0.0109,29.38,91.69,264.63,-5.2705,8.4511,-0.1341,9.9608
11,1,1,3,0,02.751,2751,-4.8100,8.5800,-0.3700,9.8432,0.0131,0.0262,-0.2094,30.56,91.44,263.38,-5.2098,8.4681,-0.1652,9.9437
11,1,1,3,0,02.883,2883,-4.7200,8.3500,-0.1200,9.5925,0.0229,0.0382,0.0862,31.13,91.19,262.69,-5.1452,8.4526,-0.1592,9.8967
11,1,1,3,0,03.017,3017,-5.2400,8.5200,-0.0300,10.0024,0.0076,0.0240,-0.1451,31.00,91.06,262.56,-5.1577,8.4614,-0.1422,9.9105
11,1,1,3,0,03.148,3148,-5.4400,8.4900,-0.2100,10.0855,-0.0131,0.0229,-0.2673,33.00,91.06,260.44,-5.1949,8.4652,-0.1511,9.9333
11,1,1,3,0,03.279,3279,-5.3700,8.5500,-0.1300,10.0973,-0.0273,0.0316,0.0884,33.38,90.94,259.88,-5.2180,8.4764,-0.1484,9.9548
11,2,1,3,0,03.451,3451,-4.7800,7.9600,0.0000,9.2849,-0.0055,0.0284,-0.0382,32.63,90.56,260.38,-5.1603,8.4083,-0.1288,9.8664
11,2,1,3,0,03.581,3581,-5.5400,7.9600,0.0400,9.6982,-0.0022,0.0087,-0.2967,34.06,90.50,258.88,-5.2103,8.3493,-0.1066,9.8422
11,2,1,3,0,03.711,3711,-5.6000,7.0300,0.0800,8.9882,-0.0044,0.0109,-0.0764,35.69,90.50,257.19,-5.2617,8.1754,-0.0820,9.7226
11,2,1,3,0,03.841,3841,-4.8700,7.6400,0.0700,9.0604,-0.0022,0.0305,0.4167,33.94,90.44,258.75,-5.2101,8.1049,-0.0619,9.6352
11,2,1,3,0,03.971,3971,-5.3900,7.6300,0.0200,9.3418,0.0011,0.0055,-0.2313,33.38,90.38,259.25,-5.2338,8.0423,-0.0512,9.5955
11,2,1,3,0,04.101,4101,-5.5200,7.7700,-0.1600,9.5325,-0.0087,-0.0175,-0.1691,35.69,90.56,256.94,-5.2715,8.0064,-0.0655,9.5862
11,2,1,3,0,04.231,4231,-5.8000,8.2500,-0.1600,10.0860,-0.0316,-0.0153,0.2771,34.94,90.75,257.75,-5.3411,8.0385,-0.0779,9.6515
11,2,1,3,0,04.361,4361,-5.2400,7.8500,0.0000,9.4382,-0.0065,-0.0262,-0.1309,34.63,90.88,258.13,-5.3278,8.0137,-0.0677,9.6233
11,2,1,3,0,04.534,4534,-5.8500,7.9100,-0.1600,9.8395,0.0011,-0.0229,-0.0469,36.00,91.31,256.94,-5.3966,8.0000,-0.0798,9.6504
11,2,1,3,0,04.664,4664,-5.7200,7.8000,-0.1900,9.6744,0.0196,-0.0098,0.0425,36.00,91.31,257.00,-5.4392,7.9736,-0.0944,9.6526
11,2,1,3,0,04.794,4794,-5.2300,7.4600,-0.1100,9.1113,0.0284,0.0000,0.1953,35.06,91.06,258.00,-5.4117,7.9060,-0.0964,9.5812
11,2,1,3,0,04.924,4924,-5.0700,7.5500,-0.2400,9.0975,0.0425,0.0000,0.1494,33.69,90.75,259.56,-5.3666,7.8591,-0.1153,9.5173
11,2,1,3,0,05.054,5054,-5.1800,8.0400,-0.0700,9.5645,0.0502,-0.0044,-0.0240,33.25,90.50,260.19,-5.3420,7.8829,-0.1094,9.5231
11,2,1,3,0,05.184,5184,-5.2400,8.1600,-0.1100,9.6982,0.0371,-0.0087,0.0164,33.25,90.25,260.31,-5.3286,7.9194,-0.1094,9.5458
11,2,1,3,0,05.314,5314,-5.3000,8.1900,0.1000,9.7558,0.0436,0.0033,0.0360,32.75,90.00,261.00,-5.3248,7.9551,-0.0818,9.5731
11,2,1,3,0,05.445,5445,-5.6200,8.2500,0.2000,9.9843,0.0425,0.0022,-0.1484,33.13,89.69,260.75,-5.3637,7.9939,-0.0447,9.6268
11,2,1,3,0,05.617,5617,-5.8300,7.8100,-0.0900,9.7464,0.0055,0.0142,0.0447,34.25,89.44,259.63,-5.4252,7.9697,-0.0507,9.6411
11,2,1,3,0,05.747,5747,-4.9900,7.8100,0.1000,9.2686,-0.0142,0.0218,0.3338,32.94,89.44,260.88,-5.3678,7.9487,-0.0308,9.5914
11,2,1,3,0,05.878,5878,-4.7000,8.2700,0.2900,9.5167,-0.0229,0.0262,0.2716,30.50,89.50,263.06,-5.2798,7.9910,0.0115,9.5777
11,2,1,3,0,06.009,6009,-4.6700,8.7200,0.1200,9.8925,-0.0535,0.0175,-0.1309,30.06,89.56,263.25,-5.1995,8.0871,0.0258,9.6143
11,2,1,3,0,06.139,6139,-5.0300,8.2600,0.0400,9.6711,-0.0567,0.0218,-0.1407,31.63,89.81,261.38,-5.1771,8.1099,0.0276,9.6215
11,2,1,3,0,06.271,6271,-5.0200,8.3400,-0.0500,9.7344,-0.0687,0.0131,0.2280,30.94,90.25,261.75,-5.1564,8.1402,0.0174,9.6360
11,2,1,3,0,06.402,6402,-4.8400,8.7600,0.0400,10.0082,-0.0654,0.0207,0.1593,29.25,90.75,263.13,-5.1147,8.2219,0.0204,9.6830
11,2,1,3,0,06.537,6537,-4.0600,8.8100,-0.2300,9.7032,-0.0676,0.0131,0.1222,28.31,91.25,263.63,-4.9757,8.2994,-0.0126,9.6766
11,2,1,3,0,06.709,6709,-4.8500,9.2500,-0.2400,10.4471,-0.0404,-0.0033,-0.0360,27.69,91.94,264.00,-4.9592,8.4246,-0.0426,9.7760
11,2,1,3,0,06.839,6839,-4.9900,9.1800,-0.4100,10.4566,-0.0262,0.0011,-0.0840,28.13,92.19,263.44,-4.9632,8.5242,-0.0910,9.8642
11,2,1,3,0,06.969,6969,-4.6400,9.2300,-0.4300,10.3396,0.0044,0.0033,0.1963,27.63,92.25,263.88,-4.9206,8.6172,-0.1357,9.9241
11,2,1,3,0,07.099,7099,-4.4700,9.2200,-0.3700,10.2531,0.0207,-0.0044,0.0087,26.56,92.13,265.00,-4.8613,8.6966,-0.1665,9.9645
11,2,1,3,0,07.229,7229,-4.7400,9.4700,-0.4400,10.5992,0.0425,-0.0098,-0.1014,27.13,91.94,264.56,-4.8453,8.7985,-0.2026,10.0465
11,2,1,3,0,07.360,7360,-4.8900,8.9800,-0.2000,10.2270,0.0545,-0.0098,0.0382,27.69,91.56,264.25,-4.8512,8.8224,-0.2022,10.0703
11,3,1,3,0,07.490,7490,-4.5100,8.9000,-0.0700,9.9777,0.0480,-0.0196,0.1789,26.81,91.25,265.31,-4.8062,8.8327,-0.1848,10.0573
11,3,1,3,0,07.620,7620,-4.3900,9.0200,-0.1700,10.0330,0.0109,-0.0382,0.1331,25.75,91.13,266.69,-4.7514,8.8573,-0.1829,10.0529
11,3,1,3,0,07.793,7793,-4.1800,9.1800,-0.1600,10.0881,-0.0087,-0.0535,-0.1473,25.81,91.44,267.00,-4.6761,8.8999,-0.1798,10.0551
11,3,1,3,0,07.923,7923,-4.6400,8.9400,-0.1900,10.0742,-0.0044,-0.0316,-0.1309,27.13,91.63,266.00,-4.6713,8.9052,-0.1812,10.0576
11,3,1,3,0,08.053,8053,-4.5800,8.5700,-0.1900,9.7189,0.0305,-0.0153,0.0305,27.44,91.56,265.88,-4.6593,8.8610,-0.1823,10.0130
11,3,1,3,0,08.183,8183,-4.2900,8.4900,-0.2300,9.5151,0.0305,-0.0087,-0.0502,27.25,91.38,266.19,-4.6106,8.8121,-0.1886,9.9472
11,3,1,3,0,08.313,8313,-4.4600,8.1500,-0.2200,9.2931,0.0360,-0.0076,-0.3982,28.94,91.19,264.69,-4.5908,8.7249,-0.1928,9.8608
11,3,1,3,0,08.443,8443,-4.9500,7.3000,-0.1900,8.8221,0.0229,-0.0022,-0.2465,31.63,91.00,262.13,-4.6381,8.5371,-0.1924,9.7176
11,3,1,3,0,08.573,8573,-4.7100,7.8000,-0.1300,9.1127,0.0164,0.0196,0.1047,31.88,90.88,261.88,-4.6476,8.4400,-0.1842,9.6368
11,3,1,3,0,08.703,8703,-5.1000,7.7700,-0.1400,9.2953,0.0033,0.0087,-0.3207,32.81,90.75,261.00,-4.7072,8.3517,-0.1784,9.5885
11,3,1,3,0,08.876,8876,-6.3600,8.3200,-0.1200,10.4731,0.0098,0.0164,-0.1244,35.50,90.56,258.31,-4.9250,8.3475,-0.1707,9.6936
11,3,1,3,0,09.007,9007,-5.6000,7.5900,0.3700,9.4395,0.0458,0.0327,-0.1527,36.19,90.13,257.56,-5.0139,8.2477,-0.0994,9.6527
11,3,1,3,0,09.138,9138,-5.8300,7.5400,-0.1700,9.5325,0.0196,0.0425,-0.0545,37.19,89.75,256.44,-5.1215,8.1544,-0.1087,9.6300
11,3,1,3,0,09.269,9269,-5.9700,7.9300,0.0100,9.9260,-0.0033,0.0436,0.1178,36.75,89.38,256.69,-5.2333,8.1249,-0.0931,9.6649
11,3,1,3,0,09.403,9403,-5.6600,7.4400,0.5200,9.3627,0.0207,0.0240,-0.0949,36.69,89.06,256.56,-5.2895,8.0346,-0.0123,9.6195
11,3,1,3,0,09.535,9535,-5.7100,7.5300,0.1400,9.4512,0.0196,0.0327,0.1898,36.38,88.94,256.69,-5.3449,7.9681,0.0078,9.5947
11,3,1,3,0,09.665,9665,-5.0700,7.5700,0.0900,9.1114,-0.0218,0.0109,0.1604,34.81,89.00,258.06,-5.3087,7.9157,0.0186,9.5310
11,3,1,3,0,09.795,9795,-4.8500,7.2200,0.1100,8.6984,-0.0556,-0.0273,-0.0044,34.31,89.31,258.44,-5.2483,7.8240,0.0307,9.4212
11,3,1,3,0,09.968,9968,-5.1300,7.5500,0.0600,9.1281,-0.0436,-0.0207,0.0971,34.00,89.94,258.75,-5.2327,7.7879,0.0345,9.3826
11,3,1,3,0,10.098,10098,-5.2300,7.9800,0.0200,9.5412,-0.0371,-0.0131,0.0807,33.31,90.31,259.31,-5.2323,7.8132,0.0326,9.4034
11,3,1,3,0,10.228,10228,-5.5900,8.3200,-0.0400,10.0236,-0.0360,0.0076,0.0404,32.81,90.56,259.69,-5.2795,7.8800,0.0230,9.4851
11,3,1,3,0,10.358,10358,-5.4600,7.9700,0.0600,9.6611,-0.0055,0.0196,-0.0273,32.88,90.50,259.56,-5.3032,7.8918,0.0279,9.5082
11,3,1,3,0,10.488,10488,-5.6400,8.2800,-0.0200,10.0184,-0.0022,0.0185,0.0840,33.13,90.56,259.13,-5.3476,7.9430,0.0216,9.5754
11,3,1,3,0,10.618,10618,-5.2500,8.4600,-0.0400,9.9567,-0.0175,0.0229,0.3414,31.31,90.44,260.81,-5.3348,8.0111,0.0135,9.6249
11,3,1,3,0,10.748,10748,-4.2300,8.5600,0.1400,9.5491,0.0120,0.0196,0.1724,29.13,90.31,262.81,-5.1892,8.0834,0.0302,9.6058
11,3,1,3,0,10.878,10878,-4.9300,9.0700,-0.2500,10.3263,-0.0109,0.0109,-0.0731,29.25,90.44,262.56,-5.1550,8.2135,-0.0068,9.6972
11,3,1,3,0,11.051,11051,-4.8500,8.9900,-0.1400,10.2158,-0.0251,-0.0033,0.0131,29.25,90.56,262.44,-5.1148,8.3158,-0.0243,9.7629
11,3,1,3,0,11.181,11181,-4.9500,8.8300,0.1500,10.1239,0.0033,-0.0164,-0.0545,29.31,90.56,262.44,-5.0931,8.3835,-0.0013,9.8094
11,3,1,3,0,11.312,11312,-4.9400,8.9000,-0.1400,10.1800,-0.0305,-0.0284,-0.0774,29.81,90.81,261.94,-5.0729,8.4516,-0.0196,9.8572
11,3,1,3,0,11.442,11442,-5.1000,9.1400,-0.2600,10.4698,-0.0164,-0.0295,0.1222,29.63,91.06,262.31,-5.0765,8.5423,-0.0513,9.9370
11,3,1,3,0,11.572,11572,-5.2300,8.9500,-0.0800,10.3664,0.0076,-0.0327,0.0349,28.94,91.25,263.13,-5.0967,8.5960,-0.0551,9.9936
11,3,1,3,0,11.702,11702,-4.5600,8.7400,-0.2900,9.8623,0.0142,-0.0218,0.0251,28.75,91.31,263.44,-5.0260,8.6150,-0.0860,9.9743
11,3,1,3,0,11.832,11832,-4.9300,8.8400,-0.2500,10.1249,0.0207,-0.0164,0.1134,28.25,91.31,264.13,-5.0134,8.6447,-0.1076,9.9938
11,3,1,3,0,11.962,11962,-4.8100,9.2200,-0.1200,10.3999,0.0545,-0.0055,0.0382,27.63,91.13,264.94,-4.9866,8.7205,-0.1093,10.0461
11,3,1,3,0,12.137,12137,-5.0000,9.1700,-0.0900,10.4450,0.0665,-0.0022,-0.1036,28.50,90.63,264.31,-4.9883,8.7797,-0.1067,10.0984
11,3,1,3,0,12.268,12268,-4.9700,9.0700,-0.0200,10.3424,0.0382,-0.0011,0.0131,28.94,90.19,264.13,-4.9859,8.8180,-0.0953,10.1304
11,4,1,3,0,12.402,12402,-4.4700,8.6500,0.1100,9.7373,0.0415,-0.0087,0.0393,28.56,89.81,264.63,-4.9179,8.7958,-0.0682,10.0776
11,4,1,3,0,12.532,12532,-4.6100,8.5200,0.1200,9.6880,0.0273,-0.0196,-0.1702,29.19,89.69,264.25,-4.8774,8.7595,-0.0434,10.0259
11,4,1,3,0,12.663,12663,-4.9400,8.1400,0.0800,9.5221,0.0196,-0.0098,-0.3022,31.06,89.69,262.44,-4.8856,8.6778,-0.0272,9.9587
11,4,1,3,0,12.793,12793,-4.7000,7.5000,0.0400,8.8511,0.0065,0.0087,-0.0360,32.38,89.63,261.19,-4.8611,8.5226,-0.0183,9.8115
11,4,1,3,0,12.924,12924,-4.6400,7.4800,0.0000,8.8023,-0.0076,0.0131,-0.0109,32.38,89.63,261.06,-4.8320,8.3852,-0.0159,9.6779
11,4,1,3,0,13.054,13054,-4.9600,7.6200,0.0200,9.0921,0.0000,0.0055,-0.2422,33.06,89.63,260.38,-4.8489,8.2844,-0.0112,9.5991
11,4,1,3,0,13.227,13227,-5.7000,7.6300,0.0000,9.5240,0.0011,0.0033,-0.3054,36.19,89.63,257.25,-4.9610,8.1982,-0.0097,9.5824
11,4,1,3,0,13.357,13357,-5.8300,7.5700,0.1900,9.5567,-0.0098,0.0087,-0.0338,37.25,89.56,256.19,-5.0755,8.1154,0.0166,9.5719
11,4,1,3,0,13.488,13488,-6.1400,7.4300,0.0000,9.6387,0.0000,-0.0044,-0.1156,37.94,89.56,255.50,-5.2158,8.0251,0.0144,9.5711
11,4,1,3,0,13.618,13618,-6.0900,7.6400,0.0300,9.7703,-0.0196,-0.0175,0.1222,37.81,89.75,255.63,-5.3310,7.9743,0.0165,9.5922
11,4,1,3,0,13.748,13748,-5.8000,7.5000,0.2000,9.4831,-0.0065,-0.0273,-0.0840,37.44,90.00,256.00,-5.3928,7.9118,0.0407,9.5750
11,4,1,3,0,13.878,13878,-6.1200,7.3100,-0.1800,9.5353,-0.0229,-0.0338,-0.0273,38.25,90.44,255.25,-5.4886,7.8325,0.0116,9.5642
11,4,1,3,0,14.008,14008,-5.3200,7.1600,-0.1900,8.9221,-0.0633,-0.0175,0.2880,37.25,90.75,256.25,-5.4664,7.7439,-0.0150,9.4789
11,4,1,3,0,14.138,14138,-5.1500,7.5600,0.0000,9.1475,-0.0131,-0.0229,0.0644,35.69,91.13,257.75,-5.4247,7.7197,-0.0130,9.4351
11,4,1,3,0,14.311,14311,-5.2400,7.4400,-0.2100,9.1025,-0.0524,-0.0229,0.0327,35.69,91.63,257.75,-5.4004,7.6828,-0.0390,9.3910
11,4,1,3,0,14.447,14447,-5.4800,7.9500,-0.4200,9.6648,-0.0338,-0.0142,0.0611,35.19,92.00,258.25,-5.4109,7.7180,-0.0892,9.4262
11,4,1,3,0,14.578,14578,-6.1400,7.7500,-0.2000,9.8895,-0.0175,-0.0076,0.0131,35.13,92.31,258.19,-5.5069,7.7222,-0.1038,9.4853
11,4,1,3,0,14.709,14709,-5.4300,7.9000,-0.1100,9.5868,-0.0011,0.0175,0.3338,34.00,92.38,259.19,-5.4968,7.7457,-0.1046,9.4985
11,4,1,3,0,14.839,14839,-5.1800,8.5800,-0.1900,10.0242,-0.0131,0.0305,0.3425,31.31,92.31,261.75,-5.4551,7.8556,-0.1159,9.5646
11,4,1,3,0,14.970,14970,-4.8100,8.5800,-0.2300,9.8390,0.0207,0.0316,0.1276,29.69,92.00,263.19,-5.3701,7.9511,-0.1309,9.5955
11,4,1,3,0,15.100,15100,-4.9400,9.0500,-0.4100,10.3186,0.0033,0.0393,0.0622,28.88,91.81,263.81,-5.3134,8.0959,-0.1677,9.6852
11,4,1,3,0,15.230,15230,-4.7700,9.2200,-0.1300,10.3816,0.0316,0.0316,-0.0098,28.38,91.50,264.13,-5.2418,8.2440,-0.1627,9.7707
11,4,1,3,0,15.403,15403,-4.8600,8.9500,-0.2100,10.1866,0.0284,0.0305,0.0425,28.06,91.00,264.25,-5.1915,8.3370,-0.1689,9.8227
11,4,1,3,0,15.533,15533,-4.2600,9.2400,-0.1800,10.1763,0.0196,0.0295,0.3480,26.56,90.69,265.63,-5.0687,8.4560,-0.1704,9.8603
11,4,1,3,0,15.663,15663,-3.9000,9.1100,-0.0800,9.9100,0.0207,0.0098,0.1789,24.25,90.44,267.88,-4.9147,8.5422,-0.1585,9.8564
11,4,1,3,0,15.793,15793,-3.8400,8.8900,0.0800,9.6842,0.0185,-0.0098,-0.2334,24.56,90.31,267.69,-4.7731,8.5880,-0.1271,9.8261
11,4,1,3,0,15.923,15923,-4.6600,8.8200,-0.0400,9.9754,0.0164,-0.0142,-0.0982,26.25,90.31,266.13,-4.7582,8.6186,-0.1156,9.8455
11,4,1,3,0,16.053,16053,-4.3300,8.5600,0.1300,9.5937,-0.0120,-0.0196,0.1473,25.88,90.19,266.63,-4.7018,8.6109,-0.0832,9.8113
11,4,1,3,0,16.183,16183,-4.0200,8.9100,0.0600,9.7751,0.0011,-0.0360,0.0316,24.81,90.25,267.75,-4.6119,8.6503,-0.0644,9.8031
11,4,1,3,0,16.313,16313,-4.5000,9.5600,-0.1200,10.5668,-0.0251,-0.0458,-0.2585,25.75,90.56,267.06,-4.5972,8.7702,-0.0717,9.9023
11,4,1,3,0,16.486,16486,-5.1800,9.5300,-0.1800,10.8483,-0.0109,-0.0295,0.0196,27.31,90.81,265.81,-4.6740,8.8703,-0.0860,10.0267
11,4,1,3,0,16.616,16616,-4.5900,9.4900,-0.2000,10.5436,0.0087,-0.0207,0.1004,26.63,90.81,266.63,-4.6629,8.9520,-0.1010,10.0941
11,4,1,3,0,16.746,16746,-4.5400,9.4100,-0.0900,10.4483,0.0218,-0.0218,-0.0687,26.44,90.75,267.00,-4.6467,9.0123,-0.0995,10.1402
11,5,1,3,0,16.876,16876,-4.3900,8.5700,-0.1000,9.6295,0.0371,-0.0142,-0.0905,27.00,90.56,266.63,-4.6129,8.9540,-0.0996,10.0729
11,5,1,3,0,17.006,17006,-4.4800,8.6000,-0.1100,9.6976,0.0185,-0.0142,-0.1593,27.81,90.44,265.94,-4.5954,8.9074,-0.1010,10.0234
11,5,1,3,0,17.136,17136,-4.9700,8.3800,-0.1600,9.7443,0.0109,0.0044,-0.2138,29.50,90.31,264.31,-4.6447,8.8379,-0.1087,9.9847
11,5,1,3,0,17.266,17266,-5.0200,8.0100,-0.1100,9.4537,0.0142,0.0142,-0.1702,31.00,90.19,262.88,-4.6942,8.7288,-0.1089,9.9116
11,5,1,3,0,17.396,17396,-4.6800,7.3300,-0.0800,8.6970,0.0338,0.0295,-0.0556,31.81,89.94,262.00,-4.6923,8.5445,-0.1051,9.7487
11,5,1,3,0,17.569,17569,-5.0800,7.6700,0.1100,9.2004,0.0098,0.0567,-0.0393,31.81,89.50,261.75,-4.7434,8.4292,-0.0768,9.6725
11,5,1,3,0,17.700,17700,-5.4200,7.8900,0.0600,9.5725,0.0382,0.0524,-0.3011,33.06,89.13,260.19,-4.8326,8.3582,-0.0587,9.6549
11,5,1,3,0,17.830,17830,-4.6000,7.5200,0.1000,8.8159,-0.0251,0.0305,0.0076,34.31,89.00,258.69,-4.8019,8.2477,-0.0378,9.5438
11,5,1,3,0,17.960,17960,-5.2100,8.0300,0.4500,9.5827,-0.0731,0.0011,-0.3120,34.81,89.13,258.00,-4.8557,8.2190,0.0265,9.5463
11,5,1,3,0,18.091,18091,-5.4800,7.1500,0.1600,9.0099,-0.0360,-0.0153,-0.3643,38.06,89.44,254.56,-4.9380,8.0782,0.0441,9.4680
11,5,1,3,0,18.221,18221,-6.0100,7.7000,-0.1200,9.7685,-0.1036,-0.0218,0.1353,38.94,90.19,253.44,-5.0792,8.0283,0.0224,9.5002
11,5,1,3,0,18.351,18351,-6.2200,7.9300,0.4900,10.0903,-0.0185,-0.0218,0.1702,37.44,90.88,254.75,-5.2296,8.0154,0.0841,9.5709
11,5,1,3,0,18.482,18482,-6.0300,7.4500,-0.1000,9.5851,-0.0513,-0.0109,0.0567,36.94,91.38,255.06,-5.3350,7.9409,0.0598,9.5668
11,5,1,3,0,18.659,18659,-6.2900,7.9600,-0.3300,10.1506,-0.0600,-0.0120,-0.3578,37.69,91.81,254.06,-5.4609,7.9434,0.0084,9.6394
11,5,1,3,0,18.789,18789,-7.1000,7.0900,-0.2000,10.0358,-0.0098,-0.0065,-0.4298,40.94,92.13,250.75,-5.6769,7.8309,-0.0190,9.6722
11,5,1,3,0,18.920,18920,-6.6200,7.6100,0.0100,10.0865,0.0295,0.0360,0.5923,40.06,92.06,251.38,-5.8011,7.8018,-0.0152,9.7222
11,5,1,3,0,19.051,19051,-5.9200,9.2600,0.4600,11.0003,0.0240,0.0404,0.7603,34.06,91.44,257.31,-5.8168,7.9940,0.0474,9.8864
11,5,1,3,0,19.181,19181,-3.7800,7.5700,-0.3500,8.4685,0.1025,0.0382,-0.1167,33.00,90.63,258.44,-5.5484,7.9381,-0.0050,9.6850
11,5,1,3,0,19.312,19312,-6.1300,8.0000,-0.5900,10.0958,0.0644,0.0262,-0.4003,35.88,89.94,255.81,-5.6250,7.9463,-0.0820,9.7361
11,5,1,3,0,19.442,19442,-6.0000,7.6400,-1.3100,9.8023,0.0851,0.0175,-0.1429,37.56,89.19,254.25,-5.6745,7.9059,-0.2439,9.7346
11,5,1,3,0,19.572,19572,-6.1100,7.2900,-0.3500,9.5183,0.0000,-0.0229,-0.2040,38.63,89.06,253.31,-5.7319,7.8247,-0.2578,9.7029
11,5,1,3,0,19.745,19745,-6.7600,7.7500,0.6400,10.3039,-0.0676,-0.0404,0.1658,39.31,89.81,252.56,-5.8673,7.8149,-0.1395,9.7733
11,5,1,3,0,19.875,19875,-5.6800,7.9900,0.4900,9.8154,-0.0502,-0.0022,0.4309,36.81,90.19,254.94,-5.8426,7.8380,-0.0566,9.7762
11,5,1,3,0,20.005,20005,-4.6600,7.4600,0.2500,8.7994,0.0120,-0.0175,0.0327,34.94,90.38,256.75,-5.6868,7.7882,-0.0162,9.6434
11,5,1,3,0,20.135,20135,-5.3400,7.0300,-0.3300,8.8343,-0.0076,-0.0218,-0.4952,36.94,90.56,254.81,-5.6411,7.6883,-0.0575,9.5360
11,5,1,3,0,20.265,20265,-4.9000,7.3900,-0.6600,8.8914,-0.0109,-0.0076,0.1014,37.81,90.75,253.94,-5.5434,7.6490,-0.1369,9.4475
11,5,1,3,0,20.395,20395,-5.0200,7.9900,-0.1300,9.4370,0.0273,0.0098,0.3196,35.38,90.69,256.31,-5.4745,7.6939,-0.1360,9.4437
11,6,1,3,0,20.525,20525,-5.7500,8.0200,-0.1700,9.8697,0.0000,-0.0065,-0.1767,34.69,90.50,257.06,-5.5108,7.7369,-0.1405,9.4999
11,6,1,3,0,20.655,20655,-6.1200,7.5300,0.0200,9.7034,-0.0535,-0.0044,-0.3360,37.25,90.44,254.63,-5.5911,7.7096,-0.1193,9.5243
11,6,1,3,0,20.828,20828,-6.7200,7.3600,0.2600,9.9697,0.0393,0.0273,0.2814,38.00,90.25,253.88,-5.7398,7.6635,-0.0694,9.5750
11,6,1,3,0,20.958,20958,-6.0900,8.2400,-0.1700,10.2477,0.0207,0.0262,0.5291,34.81,90.00,257.00,-5.7860,7.7395,-0.0826,9.6635
11,6,1,3,0,21.089,21089,-4.6900,9.0400,-0.0100,10.1842,0.0000,0.0044,0.5323,31.13,89.81,260.63,-5.6415,7.9109,-0.0730,9.7167
11,6,1,3,0,21.219,21219,-4.5000,9.0900,0.4000,10.1508,0.0545,-0.0382,0.4560,27.44,89.75,264.50,-5.4911,8.0663,-0.0107,9.7579
11,6,1,3,0,21.349,21349,-3.8000,9.3200,0.1000,10.0654,-0.0033,-0.0622,0.0905,25.44,89.75,266.94,-5.2683,8.2315,0.0039,9.7730
11,6,1,3,0,21.479,21479,-3.9400,9.0100,-0.0100,9.8338,-0.0175,-0.0753,-0.1178,25.88,89.88,266.94,-5.0932,8.3341,0.0020,9.7672
11,6,1,3,0,21.609,21609,-4.7700,8.9500,0.1900,10.1435,-0.0109,-0.0774,-0.0971,26.81,90.25,266.56,-5.0506,8.4152,0.0268,9.8146
11,6,1,3,0,21.739,21739,-4.7300,8.9100,0.0200,10.0877,-0.0131,-0.0469,0.1407,26.56,90.50,267.13,-5.0084,8.4804,0.0259,9.8490
11,6,1,3,0,21.912,21912,-4.1900,9.2000,-0.2000,10.1112,-0.0382,-0.0240,0.0022,25.38,90.94,268.38,-4.9006,8.5752,-0.0039,9.8767
11,6,1,3,0,22.043,22043,-4.6000,9.6700,-0.3200,10.7131,-0.0458,0.0000,-0.0338,25.75,91.25,268.00,-4.8609,8.7195,-0.0455,9.9830
11,6,1,3,0,22.178,22178,-5.1900,9.8600,-0.1700,11.1438,-0.0033,0.0229,-0.0284,26.19,91.38,267.38,-4.9043,8.8698,-0.0619,10.1355
11,6,1,3,0,22.309,22309,-4.7500,9.5100,-0.1600,10.6315,0.0196,0.0578,0.1233,25.63,91.19,267.63,-4.8840,8.9542,-0.0748,10.1998
11,6,1,3,0,22.440,22440,-4.1900,9.4000,-0.1800,10.2931,0.0295,0.0676,0.1244,24.69,90.81,268.19,-4.7925,9.0129,-0.0887,10.2083
11,6,1,3,0,22.570,22570,-3.9800,9.1100,-0.0200,9.9415,0.0469,0.0698,0.0785,23.75,90.31,268.81,-4.6855,9.0257,-0.0796,10.1697
11,6,1,3,0,22.700,22700,-3.9100,8.6500,-0.0300,9.4927,0.0262,0.0578,-0.0218,23.38,89.88,268.81,-4.5833,8.9762,-0.0731,10.0789
11,6,1,3,0,22.831,22831,-4.1100,8.6300,0.0000,9.5587,-0.0033,0.0502,-0.3207,24.88,89.56,267.00,-4.5209,8.9306,-0.0635,10.0099
11,6,1,3,0,23.004,23004,-4.7600,8.5200,0.0000,9.7595,0.0076,0.0567,-0.1429,27.56,89.13,263.94,-4.5524,8.8765,-0.0551,9.9759
11,6,1,3,0,23.134,23134,-4.3500,7.7600,0.3800,8.9042,0.0382,0.0567,-0.0022,27.81,88.75,263.31,-4.5257,8.7293,0.0022,9.8328
11,6,1,3,0,23.265,23265,-3.5000,7.2400,0.2200,8.0446,-0.0196,0.0425,0.0175,27.69,88.56,263.19,-4.3906,8.5331,0.0309,9.5964
11,6,1,3,0,23.396,23396,-4.0300,8.0100,0.1100,8.9673,-0.0469,0.0142,-0.2105,28.13,88.69,262.44,-4.3431,8.4642,0.0413,9.5135
11,6,1,3,0,23.527,23527,-5.1200,8.0600,0.1300,9.5496,-0.0436,-0.0131,-0.5585,30.94,89.00,259.50,-4.4454,8.4109,0.0530,9.5136
11,6,1,3,0,23.657,23657,-5.5900,7.7700,0.2000,9.5740,-0.0415,-0.0295,-0.3643,34.81,89.44,255.50,-4.5963,8.3264,0.0724,9.5111
11,7,1,3,0,23.787,23787,-6.0200,8.1400,-0.1800,10.1258,-0.0753,-0.0229,0.0927,35.75,90.06,254.44,-4.7839,8.3019,0.0391,9.5817
11,7,1,3,0,23.920,23920,-5.4400,7.9500,-0.1400,9.6341,-0.0785,-0.0371,-0.0404,35.38,90.69,254.75,-4.8703,8.2555,0.0155,9.5851
11,7,1,3,0,24.094,24094,-5.9000,7.8200,-0.1800,9.7977,-0.0731,-0.0360,-0.1113,36.44,91.63,253.69,-5.0060,8.1981,-0.0102,9.6057
11,7,1,3,0,24.225,24225,-6.0900,7.9200,-0.3400,9.9965,-0.0371,-0.0295,-0.0578,37.25,92.19,252.81,-5.1489,8.1615,-0.0537,9.6500
11,7,1,3,0,24.355,24355,-5.7900,8.1600,-0.5000,10.0180,-0.0196,0.0000,0.1778,36.56,92.44,253.44,-5.2333,8.1613,-0.1125,9.6957
11,7,1,3,0,24.485,24485,-5.6300,8.2900,-0.5200,10.0345,0.0349,0.0185,0.1047,35.13,92.25,254.94,-5.2856,8.1782,-0.1662,9.7390
11,7,1,3,0,24.616,24616,-5.6800,7.8000,-0.2900,9.6533,0.0218,0.0076,-0.3196,36.25,92.06,253.94,-5.3376,8.1284,-0.1825,9.7259
11,7,1,3,0,24.746,24746,-6.0900,7.5800,-0.1100,9.7240,0.0567,0.0120,-0.2378,38.38,91.81,252.00,-5.4367,8.0561,-0.1730,9.7206
11,7,1,3,0,24.877,24877,-6.6000,7.4100,-0.1500,9.9242,0.0611,0.0164,-0.1244,39.56,91.44,250.88,-5.5900,7.9710,-0.1699,9.7372
11,7,1,3,0,25.007,25007,-6.3000,7.3700,-0.3500,9.7020,0.0305,0.0076,0.0065,40.25,91.19,250.25,-5.6836,7.8918,-0.1937,9.7273
11,7,1,3,0,25.180,25180,-6.4100,7.5100,-0.0900,9.8740,-0.0142,-0.0098,-0.1124,40.19,91.13,250.38,-5.7793,7.8415,-0.1800,9.7428
11,7,1,3,0,25.310,25310,-6.7500,7.0500,-0.0100,9.7604,0.0153,-0.0011,-0.1462,41.63,91.13,248.94,-5.9072,7.7372,-0.1576,9.7357
11,7,1,3,0,25.440,25440,-6.4300,7.3500,-0.1300,9.7665,0.0131,0.0229,0.3240,41.19,91.06,249.38,-5.9761,7.6862,-0.1540,9.7373
11,7,1,3,0,25.570,25570,-5.5900,7.8900,-0.3700,9.6766,-0.0131,0.0251,0.2302,38.63,90.88,251.75,-5.9252,7.7130,-0.1824,9.7279
11,7,1,3,0,25.700,25700,-5.8900,7.4800,-0.1900,9.5225,0.0033,0.0164,-0.2149,38.63,90.88,251.69,-5.9206,7.6823,-0.1834,9.7008
11,7,1,3,0,25.830,25830,-6.2900,7.4700,-0.0400,9.7656,-0.0109,0.0131,-0.0709,40.00,90.88,250.25,-5.9693,7.6543,-0.1645,9.7081
11,7,1,3,0,25.960,25960,-6.1300,6.5900,-0.0700,9.0006,-0.0207,0.0207,0.1189,39.63,90.75,250.50,-5.9904,7.5141,-0.1521,9.6109
11,7,1,3,0,26.090,26090,-5.1800,7.0000,0.4100,8.7178,0.0011,0.0120,0.3371,38.00,90.69,252.00,-5.8836,7.4463,-0.0780,9.4906
11,7,1,3,0,26.263,26263,-4.9300,7.2900,-0.0300,8.8006,-0.0044,0.0371,0.5345,33.75,90.44,256.00,-5.7580,7.4257,-0.0717,9.3969
11,7,1,3,0,26.393,26393,-4.1600,8.2700,-0.3000,9.2622,-0.0065,0.0044,0.1844,30.94,90.31,258.69,-5.5474,7.5370,-0.1018,9.3590
11,7,1,3,0,26.524,26524,-4.9600,8.3600,-0.0600,9.7208,0.0185,-0.0196,-0.1145,30.44,90.50,259.25,-5.4700,7.6454,-0.0963,9.4012
11,7,1,3,0,26.655,26655,-5.7300,8.5200,-0.0700,10.2678,0.0011,-0.0164,-0.2313,31.88,90.56,257.94,-5.5043,7.7607,-0.0928,9.5149
11,7,1,3,0,26.786,26786,-5.8500,8.4400,-0.0500,10.2693,0.0120,-0.0087,0.1811,32.56,90.56,257.31,-5.5498,7.8502,-0.0872,9.6143
11,7,1,3,0,26.917,26917,-4.4100,9.1700,-0.0500,10.1754,0.0011,-0.0142,0.6000,28.81,90.50,261.13,-5.3996,8.0241,-0.0823,9.6721
11,7,1,3,0,27.052,27052,-4.2800,9.6700,-0.1000,10.5753,-0.0011,-0.0447,0.0611,26.38,90.56,263.81,-5.2521,8.2410,-0.0846,9.7727
11,7,1,3,0,27.183,27183,-4.6000,9.4400,0.0500,10.5012,0.0076,-0.0436,-0.1484,27.13,90.56,263.44,-5.1662,8.3990,-0.0669,9.8609
11,7,1,3,0,27.355,27355,-4.5800,8.7900,0.0700,9.9119,0.0371,-0.0382,0.1593,27.19,90.50,263.88,-5.0889,8.4505,-0.0488,9.8646
11,7,1,3,0,27.485,27485,-4.6100,9.0700,-0.0400,10.1744,0.0164,-0.0305,0.0273,26.31,90.50,265.06,-5.0258,8.5322,-0.0477,9.9025
11,7,1,3,0,27.615,27615,-4.7200,9.0600,-0.2100,10.2179,0.0295,-0.0284,-0.0327,26.56,90.44,265.13,-4.9855,8.6017,-0.0691,9.9423
11,7,1,3,0,27.745,27745,-4.5500,9.2000,-0.1600,10.2649,0.0120,-0.0120,0.1036,26.25,90.38,265.63,-4.9281,8.6806,-0.0810,9.9822
11,7,1,3,0,27.875,27875,-4.5000,9.0100,0.0600,10.0714,0.0469,0.0044,0.1963,25.38,90.06,266.63,-4.8717,8.7240,-0.0625,9.9922
11,7,1,3,0,28.005,28005,-4.4400,9.6500,0.0600,10.6226,0.0404,0.0076,0.0600,24.63,89.81,267.44,-4.8148,8.8460,-0.0463,10.0716
11,7,1,3,0,28.136,28136,-4.3400,9.3500,0.1600,10.3094,-0.0087,0.0098,0.0153,24.31,89.50,267.88,-4.7522,8.9124,-0.0191,10.1003
11,8,1,3,0,28.266,28266,-3.9600,9.1000,0.2100,9.9265,0.0142,-0.0044,-0.0480,24.56,89.44,267.69,-4.6479,8.9371,0.0111,10.0735
11,8,1,3,0,28.439,28439,-3.7600,9.1600,0.2200,9.9041,-0.0175,-0.0055,0.0262,24.50,89.50,267.69,-4.5309,8.9665,0.0386,10.0463
11,8,1,3,0,28.570,28570,-4.0800,9.4200,-0.1000,10.2661,-0.0415,-0.0076,-0.1745,24.94,89.69,267.19,-4.4714,9.0263,0.0203,10.0731
11,8,1,3,0,28.700,28700,-4.4400,8.5900,0.1400,9.6706,-0.0142,-0.0055,-0.3807,27.06,89.81,264.94,-4.4673,8.9688,0.0361,10.0198
11,8,1,3,0,28.834,28834,-4.5700,7.7200,0.0500,8.9714,-0.0022,0.0033,-0.2553,29.31,89.81,262.75,-4.4808,8.8042,0.0379,9.8789
11,8,1,3,0,28.965,28965,-3.9000,6.9700,-0.1300,7.9880,-0.0196,0.0055,-0.1014,30.75,89.81,261.25,-4.4043,8.5625,0.0158,9.6288
11,8,1,3,0,29.098,29098,-5.0700,7.8400,-0.2200,9.3391,-0.0175,0.0055,-0.0949,31.63,89.94,260.31,-4.4920,8.4673,-0.0153,9.5851
11,8,1,3,0,29.228,29228,-5.0700,7.3600,0.2200,8.9400,0.0305,0.0000,-0.1571,32.69,90.00,259.25,-4.5682,8.3214,0.0157,9.4928
11,8,1,3,0,29.359,29359,-5.5800,8.2100,0.0200,9.9268,0.0480,0.0142,-0.0447,33.75,90.00,258.19,-4.7015,8.3067,0.0163,9.5449
11,8,1,3,0,29.532,29532,-5.2400,8.3100,-0.1600,9.8254,-0.0076,0.0120,0.0764,33.44,89.94,258.38,-4.7725,8.3071,-0.0069,9.5805
11,8,1,3,0,29.662,29662,-5.4100,8.1600,-0.2100,9.7927,-0.0404,0.0044,0.0295,33.06,90.00,258.69,-4.8565,8.2878,-0.0337,9.6059
11,8,1,3,0,29.792,29792,-5.5500,7.9300,0.2300,9.6820,0.0120,0.0065,-0.0153,33.13,90.06,258.63,-4.9479,8.2406,0.0011,9.6119
11,8,1,3,0,29.922,29922,-5.2100,8.2100,0.1400,9.7246,-0.0033,0.0033,0.0207,33.06,90.13,258.63,-4.9824,8.2366,0.0194,9.6263
11,8,1,3,0,30.052,30052,-5.1000,8.3800,-0.1000,9.8104,-0.0415,0.0011,0.0491,32.81,90.19,258.81,-4.9979,8.2555,0.0036,9.6505
11,8,1,3,0,30.182,30182,-5.1300,7.9600,0.1200,9.4706,-0.0011,0.0022,0.0055,32.44,90.25,259.13,-5.0153,8.2165,0.0190,9.6263
11,8,1,3,0,30.312,30312,-4.9000,7.2100,-0.0200,8.7175,0.0022,0.0044,-0.0676,32.81,90.38,258.69,-5.0001,8.0839,0.0138,9.5053
11,8,1,3,0,30.442,30442,-5.0200,7.8500,0.0000,9.3179,-0.0229,0.0131,0.2422,32.25,90.44,259.25,-5.0027,8.0531,0.0120,9.4805
11,8,1,3,0,30.615,30615,-3.9600,7.5100,-0.1400,8.4912,0.0000,0.0218,0.2651,29.00,90.25,262.25,-4.8653,7.9815,-0.0080,9.3475
11,8,1,3,0,30.745,30745,-4.6900,8.3900,-0.2300,9.6146,-0.0207,0.0076,-0.0338,28.19,90.25,262.94,-4.8422,8.0353,-0.0373,9.3816
11,8,1,3,0,30.876,30876,-5.5400,9.0600,-0.1600,10.6208,0.0022,0.0120,-0.1254,28.88,90.19,262.31,-4.9342,8.1704,-0.0534,9.5448
11,8,1,3,0,31.006,31006,-4.4500,8.6500,0.2700,9.7313,0.0687,0.0371,0.3894,27.88,89.81,263.25,-4.8704,8.2336,-0.0108,9.5662
11,8,1,3,0,31.136,31136,-3.1600,8.7700,-0.1800,9.3237,0.0229,0.0349,0.5901,24.06,89.31,267.00,-4.6450,8.3043,-0.0331,9.5151
11,8,1,3,0,31.267,31267,-3.3100,9.8600,0.0400,10.4008,0.0142,0.0022,0.0360,21.75,89.06,269.31,-4.4691,8.5093,-0.0235,9.6115
11,8,1,3,0,31.397,31397,-4.1900,9.5400,0.4400,10.4289,0.0382,-0.0262,-0.3807,23.13,88.81,268.06,-4.4323,8.6451,0.0376,9.7152
11,8,1,3,0,31.528,31528,-4.9700,9.6800,0.0000,10.8813,-0.0316,-0.0098,-0.0829,25.00,88.88,266.25,-4.5032,8.7815,0.0326,9.8688
11,8,1,3,0,31.704,31704,-3.4600,9.2400,0.3000,9.8711,0.0033,-0.0098,0.6490,20.94,89.06,270.31,-4.3657,8.8419,0.0679,9.8612
11,8,1,3,0,31.835,31835,-2.4200,8.7200,0.3600,9.0567,-0.0611,-0.0327,0.0425,18.44,89.25,273.00,-4.1093,8.8258,0.1064,9.7362
11,8,1,3,0,31.966,31966,-3.3200,8.9500,0.1700,9.5474,-0.0262,-0.0502,-0.6120,20.50,89.63,271.13,-4.0053,8.8422,0.1148,9.7077
11,8,1,3,0,32.096,32096,-4.8700,9.8100,-0.2100,10.9543,-0.0349,-0.0262,-0.0665,23.50,90.13,268.19,-4.1192,8.9697,0.0720,9.8706
11,8,1,3,0,32.226,32226,-4.2800,9.7500,-0.1100,10.6486,-0.0382,-0.0011,0.2618,22.38,90.25,269.38,-4.1404,9.0725,0.0480,9.9728
11,8,1,3,0,32.356,32356,-3.1000,10.4100,-0.1300,10.8626,0.0175,0.0076,0.1953,20.19,90.19,271.50,-4.0033,9.2488,0.0245,10.0781
11,8,1,3,0,32.487,32487,-3.5600,10.5700,-0.0100,11.1534,0.0709,0.0033,-0.1669,20.25,89.94,271.56,-3.9449,9.4229,0.0200,10.2154
11,8,1,3,0,32.617,32617,-4.1400,9.9800,-0.1700,10.8060,0.0404,-0.0065,-0.2313,21.81,89.50,270.13,-3.9706,9.4963,-0.0051,10.2930
11,9,1,3,0,32.790,32790,-3.5500,9.2200,-0.1200,9.8806,0.0022,0.0076,0.1473,22.06,89.00,270.06,-3.9152,9.4599,-0.0202,10.2381
11,9,1,3,0,32.921,32921,-2.7000,8.4600,0.4600,8.8923,0.0338,-0.0164,0.0011,21.06,88.88,271.13,-3.7551,9.3281,0.0431,10.0557
11,9,1,3,0,33.051,33051,-3.5500,9.0200,0.1500,9.6946,-0.0207,-0.0153,-0.4625,22.81,89.00,269.38,-3.7280,9.2875,0.0572,10.0080
11,9,1,3,0,33.182,33182,-4.4900,8.2900,0.1200,9.4286,-0.0284,-0.0011,-0.7407,27.88,89.13,264.31,-3.8284,9.1561,0.0654,9.9245
11,9,1,3,0,33.312,33312,-4.6000,6.7600,0.0400,8.1767,-0.0109,0.0065,-0.1963,31.38,89.19,260.81,-3.9301,8.8403,0.0621,9.6748
11,9,1,3,0,33.448,33448,-4.8800,7.5400,-0.0300,8.9815,-0.0360,0.0044,0.2771,30.75,89.38,261.25,-4.0553,8.6690,0.0500,9.5707
11,9,1,3,0,33.578,33578,-5.1800,8.4300,0.1800,9.8959,-0.0327,0.0109,-0.0611,29.69,89.50,262.19,-4.2035,8.6375,0.0671,9.6063
11,9,1,3,0,33.710,33710,-4.9500,8.0300,0.2700,9.4370,-0.0535,0.0044,-0.3720,31.88,89.63,259.88,-4.3019,8.5574,0.0938,9.5783
11,9,1,3,0,33.882,33882,-5.3300,7.8500,0.2000,9.4906,0.0153,0.0164,0.0360,33.25,89.63,258.38,-4.4373,8.4642,0.1078,9.5574
11,9,1,3,0,34.012,34012,-5.4200,7.9400,0.1500,9.6147,0.0338,0.0120,0.0425,33.06,89.44,258.56,-4.5668,8.3951,0.1134,9.5576
11,9,1,3,0,34.142,34142,-5.1900,8.3500,-0.1800,9.8332,-0.0218,0.0065,0.0796,32.50,89.44,259.13,-4.6490,8.3892,0.0747,9.5915
11,9,1,3,0,34.272,34272,-5.0300,8.1500,0.1700,9.5787,0.0055,-0.0033,-0.0142,32.19,89.44,259.44,-4.6992,8.3577,0.0873,9.5886
11,9,1,3,0,34.402,34402,-5.1800,8.2900,0.0900,9.7757,0.0109,-0.0109,-0.0513,32.44,89.50,259.19,-4.7625,8.3488,0.0876,9.6120
11,9,1,3,0,34.532,34532,-5.3200,8.1600,0.0200,9.7411,-0.0076,-0.0131,-0.0404,32.88,89.56,258.88,-4.8360,8.3239,0.0787,9.6270
11,9,1,3,0,34.662,34662,-5.4000,7.7200,-0.0600,9.4214,0.0120,-0.0087,0.1014,32.81,89.56,259.00,-4.9103,8.2443,0.0604,9.5960
11,9,1,3,0,34.793,34793,-4.5000,7.2800,0.0800,8.5589,0.0164,-0.0076,0.4178,31.13,89.63,260.69,-4.8562,8.1172,0.0630,9.4592
11,9,1,3,0,34.966,34966,-3.6000,8.2200,-0.2000,8.9760,-0.0196,-0.0305,0.4451,26.25,89.69,265.75,-4.6907,8.1308,0.0284,9.3869
11,9,1,3,0,35.096,35096,-4.0400,8.5500,-0.0800,9.4568,-0.0033,-0.0491,-0.1440,25.25,89.88,267.00,-4.6050,8.1860,0.0141,9.3924
11,9,1,3,0,35.227,35227,-4.8500,8.3200,0.2800,9.6345,0.0360,-0.0480,-0.3458,27.69,90.06,264.88,-4.6372,8.2037,0.0491,9.4237
11,9,1,3,0,35.357,35357,-4.8300,8.5800,0.0000,9.8461,-0.0196,-0.0185,0.3916,27.50,90.06,265.31,-4.6626,8.2533,0.0426,9.4794
11,9,1,3,0,35.488,35488,-3.6200,8.8400,-0.0900,9.5529,0.0240,0.0065,0.6087,23.13,89.94,269.69,-4.5253,8.3306,0.0252,9.4804
11,9,1,3,0,35.618,35618,-3.1300,9.3200,0.1000,9.8321,0.0076,0.0011,0.1353,20.25,90.00,272.63,-4.3414,8.4610,0.0350,9.5098
11,9,1,3,0,35.751,35751,-3.8700,9.5700,0.1300,10.3237,-0.0240,-0.0022,-0.3480,21.63,90.13,271.19,-4.2793,8.6071,0.0475,9.6123
11,9,1,3,0,35.882,35882,-4.5900,9.5300,-0.1800,10.5793,-0.0447,0.0120,-0.1156,23.38,90.25,269.31,-4.3202,8.7287,0.0176,9.7394
11,9,1,3,0,36.056,36056,-3.5100,9.8000,-0.2200,10.4119,-0.0676,0.0480,0.5312,20.81,90.50,271.38,-4.2135,8.8699,-0.0137,9.8198
11,9,1,3,0,36.186,36186,-2.5200,10.0100,-0.1700,10.3237,-0.0175,0.0371,0.1985,18.06,90.69,273.69,-3.9903,9.0201,-0.0343,9.8634
11,9,1,3,0,36.317,36317,-3.1900,9.8500,0.0000,10.3537,0.0000,0.0349,-0.3054,18.75,90.75,272.75,-3.8848,9.1295,-0.0298,9.9217
11,9,1,3,0,36.447,36447,-4.1300,9.5800,0.0900,10.4327,-0.0120,0.0436,-0.1647,21.13,90.75,270.19,-3.9171,9.1888,-0.0140,9.9890
11,9,1,3,0,36.578,36578,-3.3000,10.0000,-0.0800,10.5307,0.0273,0.0382,0.3480,20.06,90.56,270.94,-3.8358,9.2957,-0.0227,10.0561
11,9,1,3,0,36.709,36709,-3.3800,9.7300,0.1400,10.3013,0.0327,0.0327,-0.1113,18.88,90.25,272.00,-3.7758,9.3530,-0.0013,10.0863
11,9,1,3,0,36.839,36839,-3.6400,9.8900,-0.1000,10.5391,0.0273,0.0295,-0.2640,20.63,90.00,270.06,-3.7579,9.4237,-0.0143,10.1454
11,9,1,3,0,36.969,36969,-3.3200,9.8800,0.1900,10.4246,0.0458,0.0131,0.1822,20.69,89.75,269.94,-3.7002,9.4839,0.0126,10.1801
11,10,1,3,0,37.142,37142,-3.0300,9.1500,0.0600,9.6388,0.0491,-0.0185,-0.2225,19.94,89.19,270.88,-3.6119,9.4399,0.0189,10.1073
11,10,1,3,0,37.272,37272,-3.7600,8.6400,0.4300,9.4325,0.0633,-0.0316,-0.5967,23.19,88.94,267.88,-3.6314,9.3345,0.0731,10.0162
11,10,1,3,0,37.403,37403,-4.4600,7.8800,0.3100,9.0599,0.0567,-0.0175,-0.3414,26.81,88.69,264.63,-3.7406,9.1428,0.1043,9.8789
11,10,1,3,0,37.534,37534,-4.1000,7.3600,0.1100,8.4257,0.0404,-0.0044,-0.0327,27.94,88.38,263.63,-3.7879,8.9079,0.1050,9.6804
11,10,1,3,0,37.666,37666,-3.9600,6.9600,0.4000,8.0177,0.0262,-0.0098,0.1014,27.69,88.13,264.00,-3.8106,8.6512,0.1439,9.4543
11,10,1,3,0,37.797,37797,-4.3800,8.1500,0.0300,9.2524,0.0098,-0.0142,0.1353,26.50,88.19,265.31,-3.8856,8.5851,0.1289,9.4244
11,10,1,3,0,37.931,37931,-4.3900,8.9700,0.3700,9.9935,-0.0175,-0.0295,-0.0840,26.06,88.31,265.81,-3.9521,8.6359,0.1607,9.4986
11,10,1,3,0,38.062,38062,-4.3800,8.3400,0.3300,9.4260,-0.0229,-0.0436,-0.0251,27.00,88.50,265.13,-4.0085,8.5969,0.1830,9.4872
11,10,1,3,0,38.235,38235,-4.0800,8.7500,0.0900,9.6549,-0.0382,-0.0447,-0.0153,26.63,89.06,265.63,-4.0179,8.6171,0.1707,9.5093
11,10,1,3,0,38.365,38365,-4.3500,8.6800,0.0600,9.7092,-0.0415,-0.0436,-0.0796,27.06,89.50,265.38,-4.0617,8.6253,0.1561,9.5351
11,10,1,3,0,38.495,38495,-4.9800,8.5700,-0.0400,9.9120,-0.0404,-0.0425,-0.2553,28.31,90.00,264.31,-4.1827,8.6181,0.1303,9.5803
11,10,1,3,0,38.625,38625,-4.9600,8.3800,0.0000,9.7379,-0.0164,-0.0218,-0.0295,29.50,90.44,263.19,-4.2851,8.5867,0.1131,9.5972
11,10,1,3,0,38.755,38755,-4.7000,8.6300,-0.1700,9.8283,-0.0164,0.0022,0.1593,28.88,90.56,263.75,-4.3398,8.5924,0.0758,9.6265
11,10,1,3,0,38.885,38885,-4.3900,8.8600,-0.1100,9.8886,-0.0098,0.0033,0.0513,28.06,90.63,264.56,-4.3464,8.6277,0.0513,9.6608
11,10,1,3,0,39.015,39015,-4.5800,8.7900,-0.0700,9.9119,0.0098,-0.0022,-0.1887,28.38,90.63,264.25,-4.3772,8.6490,0.0353,9.6937
11,10,1,3,0,39.145,39145,-4.9300,8.4100,-0.0200,9.7485,0.0305,0.0076,-0.1385,29.75,90.50,262.94,-4.4500,8.6175,0.0280,9.6987
11,10,1,3,0,39.318,39318,-4.9600,8.3600,-0.1300,9.7215,0.0284,0.0153,-0.0382,30.38,90.25,262.38,-4.5172,8.5836,0.0072,9.6997
11,10,1,3,0,39.449,39449,-5.0700,8.3400,-0.0700,9.7604,0.0240,0.0164,-0.0240,30.69,90.00,262.06,-4.5901,8.5515,-0.0030,9.7055
11,10,1,3,0,39.579,39579,-4.9500,8.4400,0.0600,9.7847,0.0371,0.0153,0.0109,30.63,89.69,262.06,-4.6375,8.5368,0.0053,9.7151
11,10,1,3,0,39.710,39710,-4.9700,8.2700,0.1000,9.6490,0.0229,0.0153,-0.0873,30.94,89.44,261.81,-4.6813,8.5017,0.0178,9.7053
11,10,1,3,0,39.840,39840,-5.2800,8.3200,0.1000,9.8545,0.0142,0.0098,-0.1516,31.88,89.25,260.94,-4.7602,8.4777,0.0286,9.7228
11,10,1,3,0,39.970,39970,-5.3800,8.0800,0.1600,9.7086,0.0087,0.0098,-0.0556,32.69,89.06,260.13,-4.8419,8.4253,0.0460,9.7176
11,10,1,3,0,40.101,40101,-5.1400,8.0400,0.2200,9.5451,0.0087,0.0055,0.0622,32.63,89.00,260.25,-4.8812,8.3745,0.0689,9.6935
11,10,1,3,0,40.231,40231,-5.2600,8.1100,0.0500,9.6666,-0.0153,-0.0022,0.0513,32.25,89.06,260.63,-4.9311,8.3397,0.0664,9.6887
11,10,1,3,0,40.404,40404,-4.4900,7.1300,0.0000,8.4260,-0.0185,0.0000,0.1833,31.56,89.25,261.25,-4.8730,8.1803,0.0576,9.5219
11,10,1,3,0,40.538,40538,-3.2400,7.1400,0.3400,7.8481,-0.0633,-0.0076,0.6043,28.56,89.56,264.06,-4.6578,8.0432,0.0949,9.2950
11,10,1,3,0,40.669,40669,-2.8100,8.2700,0.2500,8.7379,-0.0709,-0.0196,0.1145,24.94,89.94,267.56,-4.4143,8.0731,0.1153,9.2018
11,10,1,3,0,40.799,40799,-4.4000,9.0700,-0.2800,10.0848,-0.0175,-0.0404,-0.5083,26.69,90.31,265.94,-4.4124,8.2044,0.0632,9.3159
11,10,1,3,0,40.930,40930,-5.5000,8.8500,-0.0800,10.4201,-0.0491,-0.0164,-0.2400,29.75,90.75,262.88,-4.5557,8.2895,0.0443,9.4590
11,10,1,3,0,41.060,41060,-4.9700,8.6600,-0.1300,9.9857,-0.0360,0.0316,0.2771,29.13,90.88,263.31,-4.6103,8.3383,0.0214,9.5280
11,10,1,3,0,41.191,41191,-4.3200,8.8500,-0.0500,9.8482,-0.0076,0.0480,0.3294,26.69,90.81,265.44,-4.5721,8.4058,0.0120,9.5687
11,10,1,3,0,41.321,41321,-4.0100,9.6000,-0.1500,10.4049,0.0000,0.0382,0.2749,24.19,90.75,267.56,-4.4980,8.5631,-0.0094,9.6726
11,10,1,3,0,41.494,41494,-3.9600,9.6800,-0.0600,10.4589,-0.0240,0.0153,0.0742,22.25,90.75,269.25,-4.4271,8.7103,-0.0161,9.7708
11,10,1,3,0,41.624,41624,-4.2600,9.5900,-0.2700,10.4971,-0.0185,0.0120,-0.0796,22.69,90.94,268.69,-4.4051,8.8262,-0.0495,9.8646
11,10,1,3,0,41.754,41754,-3.8300,9.7000,-0.0900,10.4291,-0.0131,0.0076,0.0731,22.63,91.00,268.69,-4.3293,8.9414,-0.0549,9.9345
11,10,1,3,0,41.884,41884,-3.8900,9.9600,-0.2700,10.6961,-0.0218,0.0000,0.0262,22.06,91.00,269.19,-4.2714,9.0756,-0.0832,10.0309
11,10,1,3,0,42.014,42014,-4.4900,10.0100,-0.2000,10.9727,0.0076,-0.0055,-0.1505,22.63,91.06,268.69,-4.3002,9.1987,-0.0986,10.1547
11,10,1,3,0,42.144,42144,-4.1700,9.8800,-0.0600,10.7241,0.0218,-0.0109,0.2105,22.31,90.94,269.06,-4.2831,9.2885,-0.0935,10.2289
11,10,1,3,0,42.274,42274,-3.4100,9.8700,-0.0400,10.4425,0.0284,-0.0218,0.3905,20.00,90.69,271.50,-4.1680,9.3651,-0.0865,10.2511
11,10,1,3,0,42.404,42404,-2.8800,9.8500,-0.1100,10.2630,0.0076,-0.0338,0.2422,17.56,90.56,274.25,-3.9983,9.4290,-0.0896,10.2421
11,10,1,3,0,42.577,42577,-2.7800,9.4500,-0.0500,9.8506,0.0033,-0.0425,-0.1080,17.13,90.63,275.06,-3.8377,9.4318,-0.0843,10.1830
11,10,1,3,0,42.708,42708,-3.0300,8.9000,0.0300,9.4017,-0.0033,-0.0469,-0.2651,18.31,90.75,274.19,-3.7313,9.3617,-0.0693,10.0781
11,10,1,3,0,42.841,42841,-3.5700,8.7000,-0.1900,9.4059,-0.0098,-0.0371,-0.4058,20.88,90.94,271.88,-3.7100,9.2745,-0.0852,9.9894
11,10,1,3,0,42.975,42975,-3.3400,7.6600,-0.0900,8.3570,0.0098,-0.0251,-0.3000,23.88,91.13,269.13,-3.6613,9.0618,-0.0858,9.7738
11,10,1,3,0,43.105,43105,-3.1000,6.6400,0.0200,7.3280,-0.0120,-0.0262,-0.0120,24.56,91.13,268.56,-3.5873,8.7426,-0.0719,9.4503
11,10,1,3,0,43.236,43236,-5.3400,9.4800,-0.0300,10.8806,-0.0196,-0.0360,-0.1974,25.06,91.50,268.19,-3.8183,8.8398,-0.0664,9.6294
