participant,rep,equipment_code,exercise_code,quality_code,timestamp,timestamp_ms,accelX,accelY,accelZ,accelMag,gyroX,gyroY,gyroZ,roll,pitch,yaw,filteredX,filteredY,filteredZ,filteredMag
24,1,1,3,0,00.000,0,2.9200,10.9600,0.5000,11.3533,0.1189,-0.0436,0.0218,-12.63,87.94,298.50,2.1036,9.7070,0.3356,9.9380
24,1,1,3,0,00.131,131,1.9300,9.5500,0.5200,9.7569,0.2487,-0.0545,0.0360,-12.75,86.25,298.69,2.0807,9.6863,0.3599,9.9138
24,1,1,3,0,00.261,261,1.8300,7.7800,0.3700,8.0009,0.1734,-0.0087,0.0578,-13.13,84.50,298.94,2.0477,9.4351,0.3613,9.6615
24,1,1,3,0,00.434,434,1.4100,7.2100,0.5800,7.3694,-0.0011,0.0905,-0.0567,-13.44,84.06,298.69,1.9636,9.1419,0.3901,9.3585
24,1,1,3,0,00.565,565,3.8500,13.4200,-2.6800,14.2162,-0.7701,0.1298,-0.0175,-12.19,84.94,296.88,2.2122,9.7056,-0.0145,9.9546
24,1,1,3,0,00.695,695,2.9000,10.6600,0.2400,11.0500,-0.0960,0.0076,-0.2618,-10.00,85.69,294.75,2.3029,9.8314,0.0191,10.0975
24,2,1,3,0,00.826,826,1.6100,9.0500,1.8600,9.3784,0.1647,0.0098,-0.3818,-7.38,85.88,292.13,2.2116,9.7284,0.2616,9.9801
24,2,1,3,0,00.957,957,0.8000,8.7200,0.6800,8.7830,0.0927,0.0545,-0.0949,-5.56,85.69,290.06,2.0255,9.5955,0.3168,9.8121
24,2,1,3,0,01.089,1089,1.3200,9.9800,0.1100,10.0675,-0.0371,0.1025,0.2411,-6.31,85.31,290.13,1.9326,9.6462,0.2895,9.8421
24,2,1,3,0,01.220,1220,1.5400,9.3900,0.7700,9.5465,0.0731,0.1233,0.4658,-9.13,85.00,292.06,1.8808,9.6124,0.3528,9.8011
24,2,1,3,0,01.354,1354,1.4100,8.5400,1.1900,8.7370,-0.0044,0.1320,0.5269,-12.00,85.19,294.13,1.8188,9.4711,0.4632,9.6553
24,2,1,3,0,01.527,1527,4.4300,10.5400,1.1700,11.4928,-0.0164,0.0742,0.6698,-19.31,86.13,300.56,2.1629,9.6120,0.5563,9.8680
24,2,1,3,0,01.658,1658,3.8200,9.1400,1.4200,10.0074,-0.0513,0.0098,0.4178,-23.44,86.63,304.56,2.3813,9.5498,0.6701,9.8650
24,2,1,3,0,01.788,1788,4.0500,8.5100,0.4300,9.4344,-0.1254,-0.0262,0.1756,-25.56,87.00,306.94,2.6011,9.4128,0.6385,9.7864
24,2,1,3,0,01.919,1919,4.9300,8.7200,1.5000,10.1288,0.0284,-0.0698,-0.0905,-25.69,87.19,307.56,2.9080,9.3215,0.7520,9.7935
24,2,1,3,0,02.049,2049,4.6500,8.8500,0.1700,9.9987,-0.0545,-0.0949,-0.1931,-24.31,87.25,306.94,3.1376,9.2593,0.6753,9.7998
24,2,1,3,0,02.181,2181,3.4300,9.1700,-1.0100,9.8425,-0.0425,-0.1124,-0.1014,-22.94,87.13,306.31,3.1761,9.2476,0.4532,9.7883
24,2,1,3,0,02.312,2312,3.0900,8.7900,-0.8100,9.3524,-0.0676,-0.0905,0.0818,-22.56,87.44,306.69,3.1648,9.1873,0.2868,9.7213
24,2,1,3,0,02.447,2447,3.6800,8.4200,-0.0600,9.1893,-0.0851,-0.0513,0.2378,-23.44,88.25,308.19,3.2327,9.0862,0.2411,9.6471
24,2,1,3,0,02.619,2619,4.4600,8.3300,1.6700,9.5953,-0.1658,-0.0338,0.4145,-26.81,89.25,312.44,3.3944,8.9865,0.4294,9.6158
24,2,1,3,0,02.749,2749,5.1700,9.1200,1.2100,10.5531,-0.0884,-0.0611,0.3153,-29.44,88.81,315.81,3.6284,9.0041,0.5322,9.7223
24,2,1,3,0,02.879,2879,4.6400,8.8800,-0.6600,10.0409,-0.0131,-0.0960,0.0185,-30.56,88.81,317.69,3.7617,8.9878,0.3751,9.7504
24,2,1,3,0,03.009,3009,4.9000,7.8100,-0.5900,9.2387,-0.0316,-0.0753,0.0851,-30.25,88.38,317.94,3.9117,8.8326,0.2479,9.6632
24,2,1,3,0,03.140,3140,6.0400,9.5000,0.6500,11.2763,-0.0502,-0.0480,0.1178,-30.75,88.44,319.00,4.1921,8.9205,0.3009,9.8610
24,2,1,3,0,03.270,3270,4.7500,7.3800,0.5900,8.7963,-0.0894,-0.0425,0.1058,-31.69,88.50,320.44,4.2657,8.7175,0.3390,9.7111
24,2,1,3,0,03.400,3400,5.7200,7.8600,0.2900,9.7253,-0.0698,-0.0262,-0.0938,-31.81,88.94,321.06,4.4573,8.6045,0.3326,9.6962
24,2,1,3,0,03.531,3531,4.3000,8.8500,-0.2500,9.8425,-0.0327,-0.0654,-0.4527,-29.69,89.13,319.50,4.4366,8.6369,0.2558,9.7131
24,2,1,3,0,03.704,3704,4.4100,9.4800,-0.4400,10.4648,-0.0404,-0.0556,-0.4571,-24.88,89.00,315.25,4.4331,8.7480,0.1641,9.8085
24,2,1,3,0,03.836,3836,3.7300,9.6100,-0.0100,10.3085,0.1244,-0.0404,-0.0905,-22.94,88.56,313.56,4.3404,8.8616,0.1412,9.8685
24,2,1,3,0,03.967,3967,1.8500,5.3800,-0.2400,5.6943,0.0600,-0.0044,0.2378,-23.56,87.44,313.94,4.0122,8.4028,0.0909,9.3120
24,2,1,3,0,04.102,4102,2.6500,5.5000,0.5600,6.1308,0.1047,0.0491,0.3251,-25.75,86.75,315.81,3.8327,8.0203,0.1527,8.8903
24,2,1,3,0,04.233,4233,5.3900,8.3900,0.7000,9.9967,0.0196,0.0960,0.3403,-28.50,87.06,318.00,4.0379,8.0690,0.2249,9.0257
24,2,1,3,0,04.364,4364,5.6200,8.7000,0.2900,10.3614,-0.0447,0.0556,0.0851,-30.25,87.69,319.25,4.2464,8.1521,0.2334,9.1948
24,2,1,3,0,04.494,4494,5.7600,9.1300,0.1000,10.7956,-0.0916,0.0774,-0.0393,-30.63,88.31,319.25,4.4459,8.2810,0.2159,9.4015
24,2,1,3,0,04.624,4624,5.6600,9.1200,0.6600,10.7539,0.0142,0.0273,-0.1025,-30.00,88.81,318.50,4.6059,8.3916,0.2744,9.5764
24,2,1,3,0,04.797,4797,5.5000,11.4500,0.0700,12.7027,-0.0251,0.0240,-0.0513,-29.81,89.50,318.19,4.7237,8.7946,0.2475,9.9859
24,2,1,3,0,04.928,4928,5.7700,10.2500,0.2800,11.7658,0.0360,0.0338,0.0502,-29.88,89.50,318.00,4.8616,8.9864,0.2517,10.2202
24,2,1,3,0,05.058,5058,4.4200,9.1400,0.1900,10.1544,0.1516,-0.0251,-0.0589,-29.81,88.63,317.50,4.8034,9.0066,0.2436,10.2103
24,2,1,3,0,05.189,5189,5.4000,9.0300,0.5200,10.5343,0.1516,-0.0087,-0.0131,-29.50,87.44,316.81,4.8820,9.0097,0.2800,10.2512
24,3,1,3,0,05.320,5320,4.8500,8.9100,0.8000,10.1760,0.1014,0.0044,-0.1254,-29.06,86.38,315.88,4.8778,8.9966,0.3485,10.2397
24,3,1,3,0,05.451,5451,4.8500,8.0400,0.0900,9.3900,-0.0120,0.0894,-0.1614,-27.88,86.25,314.25,4.8741,8.8705,0.3145,10.1263
24,3,1,3,0,05.582,5582,4.6100,9.4100,0.5700,10.4941,-0.0458,0.0927,-0.1396,-26.56,87.00,312.50,4.8393,8.9416,0.3481,10.1731
24,3,1,3,0,05.717,5717,5.3400,9.4600,0.9700,10.9063,0.0349,0.0742,-0.1593,-25.38,87.44,310.75,4.9053,9.0099,0.4301,10.2677
24,3,1,3,0,05.890,5890,5.2700,10.5300,0.5200,11.7866,0.0425,0.0578,-0.1734,-23.94,87.56,308.56,4.9534,9.2102,0.4419,10.4671
24,3,1,3,0,06.020,6020,4.5400,9.7500,0.5900,10.7714,0.0545,0.0218,-0.2934,-22.44,87.50,306.75,4.8989,9.2813,0.4615,10.5050
24,3,1,3,0,06.150,6150,1.3100,4.2200,-0.1800,4.4223,0.0262,0.0033,-0.4505,-19.50,87.25,303.63,4.4260,8.6144,0.3769,9.6922
24,3,1,3,0,06.280,6280,1.8900,4.5300,0.5900,4.9438,-0.0873,0.0142,-0.1985,-17.25,87.50,301.25,4.0918,8.0762,0.4050,9.0626
24,3,1,3,0,06.410,6410,2.9100,10.9100,0.8800,11.3257,-0.0065,-0.0109,-0.0251,-16.19,87.81,300.19,3.9361,8.4496,0.4676,9.3331
24,3,1,3,0,06.540,6540,2.2100,9.5300,-0.1100,9.7835,0.0305,-0.0175,-0.1145,-15.81,87.56,299.81,3.7086,8.5920,0.3915,9.3664
24,3,1,3,0,06.671,6671,2.8100,8.0600,0.4000,8.5452,0.0000,-0.0022,-0.0338,-15.31,87.25,299.25,3.5902,8.5219,0.3926,9.2556
24,3,1,3,0,06.801,6801,2.5300,8.4500,0.5400,8.8371,0.0382,-0.0033,0.2542,-16.38,87.25,300.31,3.4505,8.5124,0.4120,9.1944
24,3,1,3,0,06.974,6974,2.6600,7.6200,0.1400,8.0721,-0.0295,-0.0175,0.1745,-18.69,87.31,302.75,3.3463,8.3948,0.3762,9.0450
24,3,1,3,0,07.104,7104,2.6700,7.7100,0.3600,8.1672,-0.0545,-0.0087,0.1985,-19.81,87.44,304.06,3.2572,8.3046,0.3740,8.9283
24,3,1,3,0,07.234,7234,2.8600,8.1600,0.5600,8.6648,0.0404,-0.0393,0.3098,-21.69,87.56,306.13,3.2049,8.2855,0.3986,8.8927
24,3,1,3,0,07.364,7364,4.3700,9.1200,0.0000,10.1129,-0.1189,0.0153,0.4331,-24.50,87.69,309.06,3.3584,8.3955,0.3460,9.0489
24,3,1,3,0,07.494,7494,5.0200,8.9300,0.4200,10.2529,0.0153,-0.0502,0.3109,-27.31,87.75,312.06,3.5774,8.4659,0.3558,9.1976
24,3,1,3,0,07.624,7624,5.4000,8.9300,0.2100,10.4379,0.0120,-0.0273,0.3054,-29.69,87.50,314.69,3.8175,8.5271,0.3366,9.3487
24,3,1,3,0,07.754,7754,6.2100,9.4300,0.0000,11.2911,0.0240,-0.0818,0.1822,-31.44,86.88,316.69,4.1328,8.6461,0.2922,9.5875
24,3,1,3,0,07.884,7884,5.8300,9.1700,1.0200,10.9141,0.0742,-0.0753,0.0720,-32.13,86.13,317.75,4.3564,8.7151,0.3881,9.7510
24,3,1,3,0,08.057,8057,5.3500,9.7700,1.1400,11.1971,0.0065,-0.0774,-0.1593,-31.63,85.56,317.88,4.4874,8.8541,0.4872,9.9383
24,3,1,3,0,08.188,8188,4.9000,9.7700,0.6000,10.9464,-0.0327,-0.0567,-0.2313,-29.94,85.38,316.63,4.5417,8.9748,0.5021,10.0711
24,3,1,3,0,08.318,8318,4.6300,8.9300,1.1100,10.1200,0.0229,-0.0131,-0.0393,-28.94,85.31,315.88,4.5534,8.9689,0.5822,10.0754
24,3,1,3,0,08.452,8452,5.6300,8.8400,0.7000,10.5039,-0.0131,0.0033,0.1614,-29.44,85.38,316.44,4.6952,8.9519,0.5977,10.1262
24,3,1,3,0,08.583,8583,5.7600,9.1000,0.3000,10.7739,-0.0556,0.0284,0.1364,-30.69,85.56,317.63,4.8356,8.9714,0.5585,10.2069
24,3,1,3,0,08.716,8716,5.0800,8.5700,0.7600,9.9914,0.0055,-0.0011,-0.1353,-30.75,85.88,317.69,4.8678,8.9185,0.5850,10.1773
24,3,1,3,0,08.847,8847,4.8900,9.3200,0.3400,10.5304,0.0055,0.0382,-0.2520,-29.38,86.19,316.19,4.8707,8.9714,0.5527,10.2233
24,3,1,3,0,08.977,8977,4.8500,10.0700,0.2200,11.1793,-0.0829,0.0622,-0.2378,-27.44,86.69,314.06,4.8680,9.1162,0.5089,10.3470
24,4,1,3,0,09.150,9150,2.7400,6.4300,0.1100,6.9903,-0.0349,0.0502,-0.2258,-25.63,87.44,311.88,4.5876,8.7622,0.4563,9.9010
24,4,1,3,0,09.281,9281,2.7700,4.1200,0.4100,4.9815,0.0175,0.0349,-0.2989,-24.13,87.69,310.06,4.3480,8.1505,0.4502,9.2487
24,4,1,3,0,09.411,9411,3.7200,9.7600,0.2300,10.4474,-0.0109,0.0316,-0.1865,-22.19,88.25,308.06,4.2653,8.3626,0.4212,9.3970
24,4,1,3,0,09.542,9542,3.4800,9.7600,0.2800,10.3656,0.0687,0.0065,0.0524,-21.81,88.06,307.56,4.1618,8.5467,0.4026,9.5147
24,4,1,3,0,09.672,9672,3.3100,8.2900,0.1200,8.9272,0.0905,0.0033,0.1418,-22.56,87.56,308.06,4.0496,8.5129,0.3654,9.4341
24,4,1,3,0,09.808,9808,3.0000,7.2600,-0.0200,7.8554,0.0349,0.0131,0.1756,-23.94,87.25,309.25,3.9113,8.3478,0.3146,9.2240
24,4,1,3,0,09.938,9938,3.4000,5.9500,0.2800,6.8586,-0.0022,0.0295,0.1996,-25.31,87.00,310.38,3.8439,8.0318,0.3100,8.9097
24,4,1,3,0,10.070,10070,4.3200,7.4300,0.6100,8.6162,-0.0055,0.0338,0.4102,-27.44,87.19,312.25,3.9066,7.9525,0.3496,8.8672
24,4,1,3,0,10.242,10242,5.1800,8.4300,0.4600,9.9050,0.0207,0.0295,0.3512,-31.56,87.56,316.19,4.0744,8.0154,0.3641,8.9989
24,4,1,3,0,10.372,10372,5.5600,8.9700,-0.1500,10.5545,-0.0698,0.0447,0.1156,-33.25,87.94,317.75,4.2702,8.1412,0.2964,9.1979
24,4,1,3,0,10.502,10502,6.8300,9.0100,0.2800,11.3096,0.0153,-0.0207,-0.0829,-33.31,88.13,317.75,4.6075,8.2557,0.2942,9.4590
24,4,1,3,0,10.632,10632,5.7700,8.8200,0.4000,10.5473,0.0796,-0.0469,-0.0447,-32.75,87.69,317.25,4.7607,8.3301,0.3081,9.5994
24,4,1,3,0,10.762,10762,6.2500,10.1100,0.3100,11.8899,0.0175,-0.0535,0.0284,-32.75,87.19,317.38,4.9569,8.5646,0.3084,9.9005
24,4,1,3,0,10.892,10892,5.7500,10.2900,0.4800,11.7973,0.0251,-0.0415,-0.1145,-32.38,86.75,317.19,5.0614,8.7920,0.3310,10.1502
24,4,1,3,0,11.022,11022,5.3800,9.6100,0.5200,11.0257,0.0109,-0.0295,-0.1014,-31.31,86.44,316.31,5.1034,8.8998,0.3559,10.2654
24,4,1,3,0,11.153,11153,4.8400,8.6800,0.4800,9.9498,-0.0185,-0.0175,-0.0295,-30.63,86.38,315.81,5.0687,8.8708,0.3723,10.2236
24,4,1,3,0,11.326,11326,5.4200,9.2100,0.6500,10.7062,-0.0033,-0.0305,0.0545,-31.00,86.31,316.38,5.1150,8.9155,0.4089,10.2867
24,4,1,3,0,11.460,11460,5.9900,8.7400,0.5100,10.6079,-0.0087,-0.0327,-0.0535,-31.06,86.19,316.63,5.2303,8.8924,0.4222,10.3252
24,4,1,3,0,11.590,11590,5.6000,9.0300,0.2400,10.6282,-0.0393,-0.0316,-0.2596,-29.75,86.13,315.63,5.2790,8.9105,0.3982,10.3646
24,4,1,3,0,11.724,11724,5.3800,10.0600,0.7500,11.4329,-0.0305,-0.0229,-0.2465,-27.63,86.38,313.88,5.2923,9.0620,0.4445,10.5036
24,4,1,3,0,11.854,11854,5.0800,10.2900,0.2300,11.4780,-0.0327,-0.0545,-0.2520,-25.56,86.44,312.19,5.2643,9.2238,0.4163,10.6285
24,5,1,3,0,11.985,11985,2.8100,5.5100,0.0000,6.1852,0.0022,-0.0709,-0.2629,-23.69,86.06,310.75,4.9409,8.7344,0.3614,10.0416
24,5,1,3,0,12.115,12115,1.8600,4.4800,0.3400,4.8627,-0.0600,-0.0469,-0.2356,-21.69,86.00,309.19,4.5349,8.1738,0.3586,9.3544
24,5,1,3,0,12.246,12246,2.9100,10.3600,0.7600,10.7877,-0.0382,-0.0447,-0.1505,-20.00,86.38,307.94,4.3208,8.4619,0.4115,9.5101
24,5,1,3,0,12.419,12419,2.5500,8.8400,0.3700,9.2079,-0.0262,-0.0415,-0.0436,-18.94,86.44,307.31,4.0875,8.5117,0.4060,9.4510
24,5,1,3,0,12.550,12550,2.6700,7.9000,0.4200,8.3496,-0.0044,-0.0109,0.1429,-19.38,86.50,307.94,3.9007,8.4311,0.4079,9.2987
24,5,1,3,0,12.680,12680,3.5900,8.4900,0.3700,9.2252,0.0065,0.0033,0.2607,-21.06,86.63,309.63,3.8597,8.4389,0.4029,9.2884
24,5,1,3,0,12.816,12816,2.9400,6.9000,0.2200,7.5035,-0.0022,0.0164,0.3196,-23.06,86.50,311.56,3.7385,8.2361,0.3788,9.0528
24,5,1,3,0,12.946,12946,3.2200,6.9300,0.5400,7.6606,-0.0327,0.0654,0.4363,-25.88,86.69,314.13,3.6702,8.0640,0.4000,8.8689
24,5,1,3,0,13.078,13078,4.2300,8.3400,0.5900,9.3700,-0.0447,0.0818,0.3087,-28.94,87.44,316.88,3.7440,8.1003,0.4251,8.9338
24,5,1,3,0,13.208,13208,5.0400,9.1900,-0.2200,10.4836,-0.0447,0.0993,0.1385,-30.25,88.31,317.75,3.9148,8.2439,0.3401,9.1325
24,5,1,3,0,13.339,13339,5.6900,9.3600,0.0300,10.9538,0.0589,0.0295,0.1145,-31.06,88.63,318.13,4.1487,8.3910,0.2992,9.3654
24,5,1,3,0,13.512,13512,5.8900,8.3400,0.3300,10.2155,0.0513,0.0076,0.2225,-32.94,87.94,319.56,4.3782,8.3843,0.3033,9.4634
24,5,1,3,0,13.643,13643,6.7700,9.2800,0.6300,11.5043,0.0578,0.0273,0.2760,-34.75,87.56,321.06,4.6933,8.5023,0.3463,9.7179
24,5,1,3,0,13.773,13773,6.4900,9.8600,0.3600,11.8097,0.0916,-0.0033,-0.0873,-35.50,87.13,321.44,4.9301,8.6812,0.3481,9.9895
24,5,1,3,0,13.904,13904,6.5700,10.3500,0.3700,12.2648,0.0654,0.0087,-0.2662,-33.94,86.63,319.56,5.1462,8.9011,0.3510,10.2877
24,6,1,3,0,14.035,14035,5.3900,8.7300,0.7000,10.2837,0.1069,-0.0022,-0.2771,-31.88,85.94,317.13,5.1783,8.8786,0.3970,10.2860
24,6,1,3,0,14.170,14170,5.3600,8.6300,0.4300,10.1682,0.0458,0.0131,-0.1189,-30.81,85.69,315.75,5.2023,8.8458,0.4013,10.2700
24,6,1,3,0,14.301,14301,5.5700,8.6300,0.6400,10.2913,-0.0218,0.0316,0.0622,-30.88,85.69,315.56,5.2507,8.8174,0.4328,10.2715
24,6,1,3,0,14.432,14432,5.4400,8.5000,0.9500,10.1364,-0.0218,0.0098,-0.1047,-30.81,85.63,315.44,5.2757,8.7756,0.5009,10.2515
24,6,1,3,0,14.605,14605,5.1800,9.3900,0.7900,10.7531,0.0011,-0.0087,-0.2498,-28.88,85.88,313.63,5.2631,8.8565,0.5390,10.3164
24,6,1,3,0,14.735,14735,5.3300,10.1400,0.4300,11.4636,-0.0262,-0.0316,-0.3000,-27.06,86.13,312.00,5.2719,9.0257,0.5247,10.4657
24,6,1,3,0,14.866,14866,3.3700,7.6000,0.3100,8.3194,-0.0218,-0.0480,-0.2945,-24.81,86.25,310.06,5.0213,8.8378,0.4964,10.1767
24,6,1,3,0,14.997,14997,1.6400,4.2100,0.2000,4.5226,-0.0567,-0.0447,-0.1767,-23.00,86.44,308.69,4.5757,8.2280,0.4573,9.4258
24,6,1,3,0,15.128,15128,3.3000,8.2600,0.1200,8.8956,-0.1625,-0.0327,-0.0633,-21.94,87.19,308.25,4.4076,8.2322,0.4129,9.3470
24,6,1,3,0,15.259,15259,4.1400,9.8600,0.5200,10.7065,-0.0305,-0.0535,0.0971,-22.06,87.75,308.88,4.3723,8.4467,0.4270,9.5208
24,6,1,3,0,15.394,15394,3.4800,8.0100,0.2300,8.7363,-0.0076,-0.0545,0.2040,-23.06,87.75,310.31,4.2547,8.3891,0.4010,9.4150
24,6,1,3,0,15.525,15525,4.1100,9.3600,0.1500,10.2237,0.0240,-0.0382,0.1854,-24.75,87.63,312.31,4.2357,8.5171,0.3680,9.5193
24,6,1,3,0,15.697,15697,3.6800,8.5100,0.2200,9.2742,0.0742,-0.0480,-0.0458,-25.38,86.81,313.06,4.1624,8.5161,0.3485,9.4854
24,6,1,3,0,15.827,15827,3.0200,6.4400,0.2700,7.1181,0.0469,-0.0044,0.0654,-25.38,86.19,313.00,4.0119,8.2426,0.3381,9.1733
24,6,1,3,0,15.957,15957,3.7300,7.5600,0.6200,8.4529,0.0229,0.0098,0.1276,-26.06,85.94,313.63,3.9748,8.1526,0.3753,9.0777
24,6,1,3,0,16.087,16087,3.5100,8.0200,0.7700,8.7883,-0.0044,0.0404,0.1974,-27.31,85.94,314.69,3.9135,8.1351,0.4273,9.0376
24,6,1,3,0,16.217,16217,5.8600,8.8600,0.4100,10.6305,-0.0284,0.0654,0.3905,-29.63,86.19,316.75,4.1700,8.2307,0.4250,9.2365
24,6,1,3,0,16.347,16347,5.2400,8.1700,0.3400,9.7120,0.0753,0.0022,0.2618,-31.94,86.25,318.81,4.3110,8.2227,0.4138,9.2935
24,6,1,3,0,16.478,16478,5.3400,8.5200,0.2000,10.0571,-0.0011,0.0273,0.1265,-33.31,86.06,320.00,4.4466,8.2618,0.3856,9.3904
24,6,1,3,0,16.608,16608,5.6900,8.2400,0.5400,10.0282,0.0873,-0.0142,0.0578,-34.00,85.69,320.44,4.6104,8.2590,0.4060,9.4674
24,6,1,3,0,16.781,16781,6.1900,8.4700,0.8200,10.5228,0.0065,0.0436,0.2105,-35.31,85.50,321.50,4.8186,8.2868,0.4605,9.5970
24,6,1,3,0,16.912,16912,6.9800,9.6800,0.8000,11.9609,-0.0851,0.0949,0.2814,-37.19,85.94,323.19,5.1034,8.4704,0.5053,9.9019
24,6,1,3,0,17.042,17042,7.7200,10.7400,0.5900,13.2399,-0.0076,0.0360,-0.0284,-38.19,86.50,323.94,5.4482,8.7694,0.5164,10.3370
24,6,1,3,0,17.178,17178,6.2300,8.7200,0.4200,10.7251,0.0502,0.0175,-0.3022,-36.88,86.56,322.38,5.5512,8.7629,0.5037,10.3855
24,7,1,3,0,17.308,17308,5.4100,8.1400,0.1700,9.7753,0.0120,0.0273,-0.2760,-34.56,86.69,319.75,5.5326,8.6808,0.4597,10.3043
24,7,1,3,0,17.440,17440,5.6300,8.8900,0.3200,10.5276,0.0611,0.0196,0.0000,-33.25,86.75,318.13,5.5455,8.7084,0.4413,10.3336
24,7,1,3,0,17.570,17570,5.6900,8.8800,0.3000,10.5509,0.0633,0.0098,0.0753,-33.56,86.50,318.25,5.5645,8.7310,0.4227,10.3621
24,7,1,3,0,17.716,17716,6.4400,9.1700,0.2200,11.2076,0.0262,-0.0011,-0.1091,-33.44,86.25,318.00,5.6799,8.7889,0.3960,10.4720
24,7,1,3,0,17.891,17891,5.6400,8.8700,0.3300,10.5164,0.0633,-0.0273,-0.3676,-31.06,86.13,315.50,5.6746,8.7996,0.3873,10.4778
24,7,1,3,0,18.022,18022,2.6900,4.8500,0.4500,5.5643,-0.0044,-0.0273,-0.4745,-28.00,85.94,312.44,5.2813,8.2791,0.3956,9.8281
24,7,1,3,0,18.152,18152,2.1200,5.3900,0.7600,5.8416,-0.0349,-0.0022,-0.4298,-24.56,86.13,309.19,4.8647,7.8984,0.4436,9.2869
24,7,1,3,0,18.282,18282,3.8600,10.7500,0.3400,11.4271,-0.0098,-0.0185,-0.2040,-22.44,86.50,307.25,4.7323,8.2742,0.4299,9.5416
24,7,1,3,0,18.432,18432,3.0100,9.1500,0.1000,9.6329,-0.0229,-0.0153,-0.0327,-21.69,86.56,306.63,4.5054,8.3896,0.3865,9.5306
24,7,1,3,0,18.562,18562,3.6800,8.3900,0.3600,9.1686,-0.0393,0.0196,0.2902,-22.81,86.56,307.75,4.3966,8.3896,0.3830,9.4796
24,7,1,3,0,18.693,18693,3.9100,8.5100,0.4900,9.3781,0.0360,-0.0065,0.2280,-25.06,86.50,310.00,4.3325,8.4055,0.3971,9.4647
24,7,1,3,0,18.824,18824,2.1100,5.4100,0.2100,5.8107,0.0698,0.0000,0.2116,-26.31,86.06,311.06,4.0396,8.0108,0.3724,8.9794
24,7,1,3,0,18.996,18996,4.2800,8.7300,0.4000,9.7309,-0.0240,0.0218,0.3011,-28.81,86.06,313.38,4.0713,8.1055,0.3761,9.0784
24,7,1,3,0,19.126,19126,4.4100,7.4600,0.3400,8.6727,-0.0164,0.0316,0.3502,-31.31,85.94,315.63,4.1159,8.0205,0.3713,9.0226
24,7,1,3,0,19.256,19256,6.2900,9.0600,0.3700,11.0356,-0.0469,0.0349,0.2607,-33.31,86.19,317.56,4.4024,8.1575,0.3711,9.2770
24,7,1,3,0,19.386,19386,5.0100,7.8300,0.5400,9.3113,0.0131,-0.0480,0.0207,-34.13,86.13,318.50,4.4825,8.1143,0.3934,9.2784
24,7,1,3,0,19.516,19516,5.9100,8.6500,0.5700,10.4917,-0.0218,-0.0142,-0.0371,-34.00,86.25,318.56,4.6706,8.1849,0.4167,9.4330
24,7,1,3,0,19.646,19646,5.8400,9.2200,0.2700,10.9173,-0.0829,-0.0076,0.1385,-34.25,86.38,319.06,4.8247,8.3213,0.3973,9.6270
24,7,1,3,0,19.777,19777,6.3500,9.8800,0.7000,11.7655,-0.0098,0.0175,0.2869,-36.00,86.63,320.94,5.0257,8.5267,0.4372,9.9072
24,7,1,3,0,19.907,19907,7.2500,10.0300,0.6100,12.3909,0.0284,0.0098,0.0033,-36.63,86.88,321.63,5.3188,8.7248,0.4600,10.2285
24,8,1,3,0,20.080,20080,6.0100,8.1700,0.4000,10.1503,0.0753,-0.0284,-0.1691,-35.63,86.44,320.50,5.4099,8.6517,0.4521,10.2139
24,8,1,3,0,20.211,20211,6.1400,8.2000,0.4200,10.2526,0.0142,-0.0251,-0.1113,-34.56,86.13,319.44,5.5061,8.5922,0.4479,10.2148
24,8,1,3,0,20.341,20341,5.4300,7.7600,0.5800,9.4889,0.0218,-0.0305,-0.0545,-33.94,85.94,318.88,5.4961,8.4825,0.4653,10.1181
24,8,1,3,0,20.472,20472,5.2100,7.8700,0.6700,9.4620,-0.0633,0.0240,-0.0393,-33.69,86.19,318.81,5.4584,8.4018,0.4922,10.0313
24,8,1,3,0,20.602,20602,5.8900,9.3800,0.1500,11.0770,-0.1014,0.0338,-0.0404,-33.31,86.94,318.56,5.5152,8.5307,0.4471,10.1681
24,8,1,3,0,20.733,20733,6.2800,9.9100,0.7200,11.7544,0.0229,0.0065,-0.2814,-32.19,87.38,317.38,5.6160,8.7125,0.4831,10.3769
24,8,1,3,0,20.864,20864,4.3700,8.3700,0.4200,9.4515,0.0611,-0.0338,-0.4014,-29.50,87.31,314.75,5.4518,8.6673,0.4748,10.2504
24,8,1,3,0,20.998,20998,2.5700,5.3600,-0.1200,5.9455,0.0360,-0.0251,-0.3676,-26.75,86.88,311.94,5.0721,8.2315,0.3964,9.6768
24,8,1,3,0,21.171,21171,3.2400,8.0700,0.0800,8.6965,-0.0273,-0.0055,-0.0829,-24.31,86.81,309.63,4.8307,8.2102,0.3547,9.5325
24,8,1,3,0,21.301,21301,4.3300,9.9100,0.3200,10.8194,0.0567,-0.0218,0.1909,-25.00,86.50,310.25,4.7647,8.4342,0.3501,9.6933
24,8,1,3,0,21.431,21431,4.0200,8.2900,0.2500,9.2167,0.1342,-0.0382,0.2465,-26.56,85.63,311.75,4.6666,8.4152,0.3369,9.6284
24,8,1,3,0,21.562,21562,4.7000,8.9100,0.2200,10.0760,0.0567,-0.0360,0.1113,-27.88,84.94,313.00,4.6710,8.4804,0.3215,9.6870
24,8,1,3,0,21.692,21692,4.1700,8.6200,0.6800,9.5998,0.0295,-0.0273,-0.1047,-27.81,84.44,313.00,4.6049,8.4988,0.3688,9.6732
24,8,1,3,0,21.822,21822,4.3000,8.0500,0.5200,9.1413,0.0338,-0.0044,-0.1571,-26.88,84.25,312.00,4.5648,8.4397,0.3887,9.6029
24,8,1,3,0,21.968,21968,4.5000,9.3900,0.8600,10.4480,-0.0262,0.0251,-0.0360,-26.50,84.56,311.63,4.5562,8.5649,0.4508,9.7118
24,8,1,3,0,22.102,22102,2.6700,7.1200,0.5300,7.6226,-0.0164,0.0273,-0.0295,-26.31,84.81,311.31,4.3077,8.3745,0.4612,9.4287
24,8,1,3,0,22.275,22275,2.8100,6.0400,0.4500,6.6768,-0.0796,0.0993,0.3240,-27.81,85.31,312.44,4.1103,8.0669,0.4598,9.0653
24,8,1,3,0,22.405,22405,4.2200,8.2400,0.7700,9.2897,-0.0033,0.0971,0.5847,-31.06,86.06,315.25,4.1248,8.0897,0.5006,9.0944
24,8,1,3,0,22.535,22535,5.4400,7.8800,0.1700,9.5769,-0.0676,0.1058,0.3676,-34.94,86.81,318.63,4.2981,8.0621,0.4571,9.1476
24,8,1,3,0,22.665,22665,7.3800,8.2200,0.2100,11.0488,-0.1287,0.1331,0.2116,-37.13,87.94,320.44,4.7042,8.0829,0.4245,9.3618
24,8,1,3,0,22.795,22795,6.3100,8.3300,0.6800,10.4722,0.0087,0.0524,-0.0894,-36.94,88.94,320.13,4.9158,8.1154,0.4582,9.4992
24,8,1,3,0,22.925,22925,6.0500,8.6500,-0.1400,10.5567,-0.0513,0.0447,0.1549,-37.13,89.50,320.19,5.0653,8.1859,0.3794,9.6338
24,8,1,3,0,23.056,23056,7.1600,9.0800,0.1400,11.5642,0.0382,0.0196,0.1887,-38.44,89.88,321.38,5.3413,8.3037,0.3478,9.8794
24,8,1,3,0,23.186,23186,7.5700,10.2700,-0.1900,12.7599,-0.0218,0.0185,-0.0360,-39.06,90.13,321.94,5.6350,8.5628,0.2769,10.2543
24,8,1,3,0,23.359,23359,6.3700,8.7300,-0.1600,10.8081,0.0480,-0.0567,-0.2040,-37.50,89.63,320.31,5.7318,8.5848,0.2194,10.3248
24,8,1,3,0,23.490,23490,6.3600,8.0600,0.3000,10.2715,0.1047,-0.0687,-0.0916,-36.25,88.81,319.19,5.8146,8.5157,0.2300,10.3140
24,8,1,3,0,23.621,23621,7.0800,8.5700,0.4900,11.1271,0.0316,-0.0589,0.1134,-36.63,88.00,319.63,5.9814,8.5228,0.2643,10.4156
24,8,1,3,0,23.754,23754,6.6600,7.9900,0.2800,10.4055,0.0535,-0.0709,0.0284,-37.25,87.19,320.50,6.0708,8.4526,0.2663,10.4102
24,8,1,3,0,23.884,23884,6.5300,8.9000,0.4400,11.0474,0.0207,-0.0633,-0.3196,-36.06,86.63,319.50,6.1313,8.5116,0.2892,10.4940
24,8,1,3,0,24.018,24018,6.6700,9.2400,0.1600,11.3970,-0.0055,-0.0676,-0.4647,-32.88,86.13,316.63,6.2023,8.6076,0.2722,10.6128
24,9,1,3,0,24.149,24149,4.0900,8.0300,0.8300,9.0497,0.0338,-0.0807,-0.5825,-28.38,85.75,312.56,5.9239,8.5315,0.3457,10.3922
24,9,1,3,0,24.279,24279,1.7400,4.1700,-0.2000,4.5229,0.0273,-0.0567,-0.3523,-25.00,85.44,309.56,5.3726,7.9567,0.2738,9.6047
24,9,1,3,0,24.452,24452,3.5400,10.0400,0.8100,10.6766,-0.0796,-0.0425,-0.0654,-23.13,85.94,308.13,5.1311,8.2312,0.3444,9.7057
24,9,1,3,0,24.583,24583,3.6400,9.5600,0.3200,10.2345,-0.0207,-0.0371,0.0873,-23.69,85.94,308.94,4.9346,8.4063,0.3412,9.7536
24,9,1,3,0,24.713,24713,3.5000,7.8000,0.6300,8.5725,0.0164,-0.0262,0.1614,-24.75,85.69,310.19,4.7456,8.3264,0.3793,9.5914
24,9,1,3,0,24.843,24843,4.2400,9.3100,0.5900,10.2470,-0.0251,-0.0131,0.1374,-26.19,85.81,311.75,4.6790,8.4561,0.4070,9.6728
24,9,1,3,0,24.974,24974,4.0400,8.4900,0.4100,9.4112,0.0131,-0.0142,-0.0458,-26.56,85.63,312.19,4.5948,8.4605,0.4074,9.6363
24,9,1,3,0,25.104,25104,3.3100,6.8900,0.4100,7.6548,-0.0055,0.0033,0.0076,-26.31,85.44,311.94,4.4255,8.2536,0.4078,9.3740
24,9,1,3,0,25.235,25235,2.7900,6.2900,0.3600,6.8904,-0.0065,0.0458,0.3294,-27.56,85.56,313.06,4.2099,7.9948,0.4015,9.0444
24,9,1,3,0,25.365,25365,5.7700,8.3700,0.4700,10.1770,-0.0611,0.0600,0.4789,-30.81,86.13,316.06,4.4155,8.0443,0.4105,9.1856
24,9,1,3,0,25.538,25538,5.7200,8.4600,0.2000,10.2142,-0.0545,0.0807,0.3480,-34.63,86.31,319.44,4.5874,8.0990,0.3828,9.3159
24,9,1,3,0,25.672,25672,5.3300,7.4700,0.7600,9.2080,0.1069,-0.0240,-0.0087,-35.81,86.44,320.38,4.6853,8.0162,0.4325,9.2950
24,9,1,3,0,25.803,25803,5.4400,7.9200,0.0900,9.6088,-0.0109,0.0535,-0.1069,-35.44,86.69,319.81,4.7847,8.0035,0.3873,9.3327
24,9,1,3,0,25.934,25934,6.0000,8.6400,0.1900,10.5207,-0.0022,0.0044,-0.0175,-34.88,86.88,319.19,4.9449,8.0874,0.3613,9.4862
24,9,1,3,0,26.064,26064,6.3400,9.5100,0.3600,11.4353,-0.0327,0.0491,0.1713,-35.44,86.88,319.63,5.1287,8.2748,0.3612,9.7420
24,9,1,3,0,26.194,26194,6.4000,9.9000,0.3500,11.7937,0.0545,-0.0087,-0.0371,-36.25,86.81,320.31,5.2962,8.4890,0.3597,10.0121
24,9,1,3,0,26.325,26325,7.0200,9.7600,0.6600,12.0405,0.0447,-0.0120,-0.2105,-35.31,86.75,319.31,5.5234,8.6565,0.3993,10.2763
24,10,1,3,0,26.455,26455,4.9400,8.1400,0.5200,9.5359,0.0415,-0.0196,-0.2476,-33.44,86.56,317.44,5.4465,8.5884,0.4152,10.1783
24,10,1,3,0,26.628,26628,4.5900,7.6600,0.7000,8.9573,0.0425,-0.0153,0.0491,-32.44,86.19,316.38,5.3336,8.4661,0.4527,10.0163
24,10,1,3,0,26.758,26758,6.0500,8.3200,0.4500,10.2970,-0.0273,0.0196,0.3294,-34.06,86.06,318.00,5.4280,8.4468,0.4524,10.0507
24,10,1,3,0,26.889,26889,6.3500,8.2400,0.6300,10.4219,-0.0022,0.0022,0.2062,-36.19,86.13,320.06,5.5495,8.4196,0.4758,10.0952
24,10,1,3,0,27.019,27019,6.5700,8.8000,0.3500,10.9876,-0.0327,0.0033,-0.1734,-36.00,86.25,320.00,5.6840,8.4697,0.4592,10.2105
24,10,1,3,0,27.150,27150,6.3100,9.2000,0.4000,11.1632,-0.0098,-0.0305,-0.4123,-33.69,86.38,317.75,5.7665,8.5659,0.4514,10.3359
24,10,1,3,0,27.281,27281,5.6400,9.4300,0.2200,10.9901,0.0033,-0.0251,-0.3567,-30.94,86.44,315.19,5.7498,8.6798,0.4209,10.4200
24,10,1,3,0,27.412,27412,4.3300,7.1700,0.1200,8.3769,-0.0218,-0.0469,-0.2825,-28.75,86.31,313.25,5.5627,8.4808,0.3812,10.1496
24,10,1,3,0,27.543,27543,1.9400,4.3200,0.2800,4.7439,-0.0196,-0.0229,-0.2782,-26.75,86.31,311.50,5.0853,7.9326,0.3679,9.4298
24,10,1,3,0,27.718,27718,4.0000,9.3500,0.6600,10.1911,0.0142,-0.0153,-0.2454,-24.38,86.94,309.38,4.9423,8.1193,0.4064,9.5140
24,10,1,3,0,27.848,27848,3.2000,9.5700,0.1400,10.0918,-0.0229,-0.0284,-0.2160,-22.50,86.94,307.69,4.7127,8.3105,0.3713,9.5610
24,10,1,3,0,27.980,27980,3.3500,8.6100,0.5900,9.2576,0.0207,-0.0164,0.0633,-22.13,86.50,307.25,4.5332,8.3500,0.4001,9.5095
24,10,1,3,0,28.110,28110,4.0300,9.1200,0.5700,9.9870,0.0873,-0.0131,0.1909,-23.19,85.94,308.25,4.4669,8.4514,0.4225,9.5686
24,10,1,3,0,28.240,28240,3.6000,7.8800,0.5400,8.6802,0.0556,-0.0098,0.2553,-24.69,85.50,309.69,4.3526,8.3761,0.4380,9.4497
24,10,1,3,0,28.370,28370,3.7000,6.4600,0.4100,7.4559,-0.0262,0.0284,0.3327,-26.94,85.38,311.75,4.2666,8.1236,0.4343,9.1862
24,10,1,3,0,28.501,28501,4.1100,7.3500,0.5800,8.4410,-0.0567,0.0753,0.3065,-29.25,85.88,313.94,4.2460,8.0217,0.4535,9.0874
24,10,1,3,0,28.631,28631,5.0400,7.9000,0.1900,9.3727,-0.0469,0.0644,0.4036,-31.81,86.50,316.25,4.3506,8.0057,0.4188,9.1211
24,10,1,3,0,28.804,28804,5.5600,8.7900,0.2900,10.4049,-0.0415,0.0589,0.1036,-34.44,86.81,318.50,4.5100,8.1090,0.4018,9.2875
24,10,1,3,0,28.935,28935,5.5400,8.5900,0.4800,10.2328,0.0295,-0.0022,-0.0774,-34.50,87.00,318.38,4.6457,8.1724,0.4121,9.4096
24,10,1,3,0,29.065,29065,4.7200,7.2400,0.8200,8.6815,0.0491,0.0164,-0.0229,-34.38,86.75,317.94,4.6555,8.0495,0.4659,9.3105
24,10,1,3,0,29.196,29196,6.3000,8.8600,0.2400,10.8742,0.0873,-0.0185,-0.0251,-34.19,86.38,317.63,4.8722,8.1563,0.4361,9.5107
24,10,1,3,0,29.326,29326,5.0600,8.3700,0.2700,9.7843,0.0818,-0.0458,-0.0196,-34.25,85.63,317.56,4.8970,8.1845,0.4142,9.5466
24,10,1,3,0,29.460,29460,6.5900,9.3900,1.0100,11.5161,0.0622,-0.0087,0.1091,-35.25,85.06,318.38,5.1201,8.3433,0.4927,9.8015
24,10,1,3,0,29.591,29591,6.1800,9.5100,0.8400,11.3727,0.0513,-0.0273,-0.1800,-35.00,84.69,318.06,5.2597,8.4971,0.5385,10.0077
24,10,1,3,0,29.724,29724,4.9800,8.6900,0.4200,10.0246,-0.0076,0.0185,-0.1734,-33.44,84.63,316.44,5.2229,8.5225,0.5229,10.0092
24,10,1,3,0,29.896,29896,5.4900,9.2000,1.1000,10.7699,-0.0393,0.0600,-0.0142,-32.06,85.00,314.88,5.2581,8.6118,0.5989,10.1079
24,10,1,3,0,30.026,30026,5.8900,8.0800,0.8400,10.0341,-0.0033,0.0458,0.0851,-32.44,85.38,315.00,5.3413,8.5417,0.6307,10.0940
24,10,1,3,0,30.156,30156,5.7300,7.7800,0.2300,9.6651,-0.0764,0.0709,0.1865,-33.31,85.94,315.69,5.3926,8.4413,0.5779,10.0334
24,10,1,3,0,30.286,30286,4.6500,7.7900,0.4000,9.0811,-0.0676,0.0458,0.1025,-34.31,86.63,316.56,5.2947,8.3555,0.5544,9.9074
24,10,1,3,0,30.416,30416,6.7700,8.3000,0.3100,10.7154,-0.0600,0.0262,-0.0894,-34.44,87.25,316.63,5.4891,8.3482,0.5222,10.0048
24,10,1,3,0,30.546,30546,5.5700,8.6200,0.8600,10.2990,0.0153,-0.0087,-0.3033,-32.94,87.63,315.25,5.4998,8.3840,0.5667,10.0429
24,10,1,3,0,30.677,30677,5.6100,8.9600,0.1600,10.5726,-0.0622,-0.0022,-0.3087,-30.69,87.94,313.13,5.5143,8.4599,0.5131,10.1114
24,10,1,3,0,30.807,30807,5.1100,9.9800,0.2100,11.2141,-0.0076,-0.0229,-0.2378,-28.63,88.00,311.19,5.4610,8.6602,0.4732,10.2492
24,10,1,3,0,30.980,30980,4.8800,9.7900,0.2400,10.9415,0.0807,-0.0436,0.0524,-27.75,87.75,310.50,5.3845,8.8091,0.4425,10.3338
24,10,1,3,0,31.112,31112,3.2500,4.5800,-0.2000,5.6195,0.0295,-0.0404,0.2542,-29.00,87.13,311.75,5.1032,8.2518,0.3578,9.7089
24,10,1,3,0,31.243,31243,3.9700,6.5200,0.7700,7.6723,-0.0295,-0.0218,0.1920,-30.31,86.88,313.19,4.9539,8.0236,0.4121,9.4387
24,10,1,3,0,31.378,31378,3.8100,8.6100,0.8400,9.4527,0.0709,-0.0436,-0.1647,-30.25,86.50,313.25,4.8031,8.1009,0.4685,9.4294
24,10,1,3,0,31.509,31509,4.6300,8.5900,-0.0100,9.7583,0.0011,0.0251,-0.3403,-28.00,86.00,310.94,4.7803,8.1653,0.4055,9.4704
24,10,1,3,0,31.639,31639,3.3100,8.8500,-0.5200,9.4630,0.0000,0.0600,-0.5083,-24.69,86.00,307.25,4.5866,8.2555,0.2835,9.4483
24,10,1,3,0,31.770,31770,3.7300,9.6100,0.4800,10.3197,0.0327,0.1080,-0.2182,-21.94,86.50,303.94,4.4737,8.4340,0.3094,9.5521
24,10,1,3,0,31.900,31900,3.7100,8.2900,0.5200,9.0972,0.0153,0.1342,0.0065,-21.50,86.69,302.56,4.3731,8.4151,0.3371,9.4895
24,10,1,3,0,32.073,32073,3.7800,8.4000,0.6000,9.2308,-0.0436,0.1920,0.3458,-23.50,87.31,303.19,4.2949,8.4131,0.3718,9.4533
24,10,1,3,0,32.204,32204,3.7300,5.6600,2.9000,7.3728,0.2182,0.1222,1.5250,-27.94,87.69,306.75,4.2205,8.0503,0.7049,9.1168
24,10,1,3,0,32.334,32334,3.7100,6.9500,0.8800,7.9272,0.1680,0.0175,0.6709,-33.19,87.50,311.88,4.1532,7.9053,0.7280,8.9595
24,10,1,3,0,32.469,32469,5.3000,8.6000,-0.4600,10.1124,-0.0862,0.0665,0.6490,-38.44,87.69,316.88,4.3043,7.9968,0.5715,9.0996
