participant,rep,equipment_code,exercise_code,quality_code,timestamp,timestamp_ms,accelX,accelY,accelZ,accelMag,gyroX,gyroY,gyroZ,roll,pitch,yaw,filteredX,filteredY,filteredZ,filteredMag
39,1,1,3,0,00.000,0,-7.5200,8.0200,0.5100,11.0059,0.0360,-0.0415,-0.0011,42.38,88.94,233.00,-7.2896,6.6039,0.2652,9.8397
39,1,1,3,0,00.130,130,-6.5200,7.5900,-0.4000,10.0139,0.0622,0.0305,0.0131,42.25,88.44,233.31,-7.1882,6.7338,0.1775,9.8512
39,1,1,3,0,00.260,260,-6.9600,7.3600,-0.8400,10.1645,0.0556,0.0338,0.0360,42.31,87.75,233.50,-7.1581,6.8164,0.0434,9.8845
39,1,1,3,0,00.390,390,-7.0200,6.7600,-0.9800,9.7948,0.0622,0.0076,-0.0753,42.94,89.63,233.06,-7.1399,6.8089,-0.0914,9.8665
39,1,1,3,0,00.521,521,-6.2700,6.0600,-0.7600,8.7529,0.0142,-0.0087,-0.1789,44.00,90.56,232.19,-7.0253,6.7102,-0.1795,9.7167
39,1,1,3,0,00.651,651,-8.2700,7.0800,-0.3900,10.8936,-0.0240,-0.0447,-0.3458,45.94,91.06,230.31,-7.1893,6.7590,-0.2073,9.8698
39,1,1,3,0,00.824,824,-6.4100,5.2200,1.1900,8.3518,-0.0360,-0.0349,-0.1254,48.19,91.50,228.00,-7.0866,6.5562,-0.0231,9.6542
39,1,1,3,0,00.954,954,-8.7200,6.3500,1.3100,10.8663,-0.0262,-0.0349,0.0644,48.38,92.63,227.75,-7.3019,6.5290,0.1525,9.7963
39,1,1,3,0,01.084,1084,-8.3500,7.2600,0.6000,11.0811,-0.0185,0.0753,0.2236,47.31,92.94,228.56,-7.4400,6.6253,0.2115,9.9646
39,1,1,3,0,01.214,1214,-6.5500,6.7500,-0.0100,9.4056,0.0240,0.0807,0.2629,45.63,92.25,230.00,-7.3227,6.6418,0.1823,9.8878
39,1,1,3,0,01.344,1344,-7.0100,7.5600,-1.5900,10.4318,-0.0305,0.0513,0.1331,44.19,91.56,231.19,-7.2815,6.7628,-0.0512,9.9377
39,1,1,3,0,01.474,1474,-7.5000,7.4600,-0.4300,10.5871,0.0513,0.0240,-0.1473,44.06,90.88,231.06,-7.3103,6.8546,-0.1011,10.0218
39,1,1,3,0,01.604,1604,-6.0700,5.9900,0.6000,8.5490,-0.0153,0.0556,-0.1124,45.06,90.38,229.88,-7.1468,6.7407,-0.0088,9.8242
39,1,1,3,0,01.734,1734,-7.1100,6.7400,0.3700,9.8039,-0.0644,0.0076,-0.1134,45.81,90.56,228.88,-7.1420,6.7406,0.0412,9.8207
39,1,1,3,0,01.907,1907,-7.0600,6.6800,0.6000,9.7379,-0.0818,-0.0044,-0.2400,47.50,90.06,226.75,-7.1312,6.7326,0.1148,9.8079
39,1,1,3,0,02.037,2037,-7.9500,6.3900,0.4600,10.2101,-0.0720,-0.0185,-0.3338,49.56,89.94,224.31,-7.2391,6.6875,0.1603,9.8566
39,1,1,3,0,02.167,2167,-7.6800,5.5100,0.0600,9.4523,-0.0971,-0.0120,-0.3316,52.00,90.56,221.44,-7.2972,6.5323,0.1471,9.7950
39,1,1,3,0,02.297,2297,-8.2200,5.6200,-0.5300,9.9716,-0.1047,-0.0218,-0.2040,54.25,91.56,218.75,-7.4188,6.4121,0.0579,9.8060
39,1,1,3,0,02.427,2427,-8.2500,5.3700,-0.0100,9.8438,-0.0567,-0.0055,0.1484,54.63,92.56,217.94,-7.5283,6.2748,0.0489,9.8005
39,1,1,3,0,02.557,2557,-7.8600,6.3300,-0.2500,10.0951,-0.1004,0.0240,0.5465,52.06,92.75,220.00,-7.5720,6.2820,0.0095,9.8387
39,1,1,3,0,02.688,2688,-7.7300,7.0000,-0.3600,10.4347,-0.0262,0.0829,0.6218,47.75,92.38,223.81,-7.5928,6.3767,-0.0392,9.9154
39,1,1,3,0,02.818,2818,-5.9200,6.9800,-0.1300,9.1533,0.0131,0.0796,0.5051,43.56,91.50,227.56,-7.3724,6.4562,-0.0511,9.7998
39,1,1,3,0,02.991,2991,-6.2200,7.5400,0.1600,9.7758,0.0109,0.0469,-0.0491,41.56,90.94,229.25,-7.2205,6.5990,-0.0233,9.7818
39,1,1,3,0,03.121,3121,-6.4500,7.0200,0.2600,9.5368,0.0218,0.0196,-0.3862,42.94,90.50,227.81,-7.1190,6.6545,0.0140,9.7449
39,1,1,3,0,03.251,3251,-7.1300,6.9100,0.2200,9.9314,0.0240,0.0131,-0.4811,46.25,90.25,224.56,-7.1205,6.6881,0.0412,9.7690
39,1,1,3,0,03.381,3381,-7.2500,5.9900,0.1100,9.4050,0.0076,-0.0044,-0.2345,48.94,90.06,221.94,-7.1375,6.5961,0.0502,9.7188
39,1,1,3,0,03.511,3511,-7.2500,5.4200,-0.0500,9.0521,0.0000,-0.0022,-0.0076,49.81,90.06,221.19,-7.1523,6.4412,0.0370,9.6253
39,1,1,3,0,03.641,3641,-4.7600,3.8500,0.2500,6.1272,-0.0142,-0.0251,0.1244,49.38,89.75,221.75,-6.8371,6.0997,0.0651,9.1628
39,1,1,3,0,03.771,3771,-5.7900,5.6500,-0.4300,8.1013,-0.0665,-0.0218,0.1178,48.44,89.88,222.63,-6.6991,6.0404,-0.0002,9.0203
39,2,1,3,0,03.902,3902,-8.3200,6.9100,0.5000,10.8268,-0.0393,0.0196,-0.0916,48.44,90.00,222.69,-6.9127,6.1550,0.0658,9.2560
39,2,1,3,0,04.075,4075,-7.8800,5.7300,0.8200,9.7775,0.0709,0.0175,-0.1124,49.69,89.31,221.50,-7.0402,6.0990,0.1651,9.3161
39,2,1,3,0,04.206,4206,-7.8700,6.6500,0.1500,10.3045,0.0415,-0.0033,0.0687,49.81,89.13,221.38,-7.1495,6.1716,0.1631,9.4462
39,2,1,3,0,04.336,4336,-9.4500,8.8900,-0.1900,12.9758,-0.1407,0.0098,0.4189,48.19,89.38,222.88,-7.4527,6.5298,0.1166,9.9093
39,2,1,3,0,04.467,4467,-11.6000,10.7900,0.0200,15.8425,0.0164,0.0273,0.5465,44.75,89.81,226.19,-7.9992,7.0912,0.1039,10.6903
39,2,1,3,0,04.597,4597,-7.7200,9.7400,0.2100,12.4302,0.0109,0.0338,0.5269,40.56,89.69,230.06,-7.9624,7.4403,0.1179,10.8982
39,2,1,3,0,04.731,4731,-5.0900,8.3700,-0.2100,9.7984,-0.0938,0.0164,0.1844,38.00,89.75,232.31,-7.5839,7.5628,0.0747,10.7106
39,2,1,3,0,04.862,4862,-6.0700,7.3200,0.3200,9.5147,-0.0600,-0.0338,-0.2934,38.69,90.19,231.44,-7.3844,7.5308,0.1070,10.5477
39,2,1,3,0,04.995,4995,-6.9700,6.8900,0.0300,9.8007,-0.0404,-0.0251,-0.3698,41.50,90.81,228.44,-7.3298,7.4463,0.0968,10.4491
39,2,1,3,0,05.168,5168,-5.7500,5.4300,0.0900,7.9092,-0.0055,-0.0087,-0.0567,43.31,91.44,226.44,-7.1216,7.1806,0.0959,10.1138
39,2,1,3,0,05.298,5298,-3.9900,3.7300,0.0300,5.4620,-0.0927,0.0033,-0.0338,43.69,91.63,225.88,-6.7089,6.7259,0.0873,9.5003
39,2,1,3,0,05.428,5428,-7.6100,8.6900,-0.5800,11.5657,-0.1167,-0.0240,0.0055,43.75,92.50,225.50,-6.8277,6.9848,-0.0007,9.7675
39,2,1,3,0,05.558,5558,-6.5800,5.9500,-0.1600,8.8727,0.0349,0.0142,-0.2323,44.88,92.56,224.19,-6.7950,6.8484,-0.0217,9.6475
39,2,1,3,0,05.688,5688,-7.8300,7.5900,-0.6400,10.9237,-0.0774,-0.0196,-0.2400,46.44,92.81,222.44,-6.9314,6.9461,-0.1031,9.8135
39,2,1,3,0,05.818,5818,-7.0700,6.2900,-0.0500,9.4632,0.0447,0.0600,-0.1353,48.13,92.38,220.75,-6.9497,6.8597,-0.0961,9.7654
39,2,1,3,0,05.949,5949,-7.6400,6.8600,-0.3000,10.2723,0.0905,0.0502,-0.0316,48.75,91.56,220.25,-7.0407,6.8597,-0.1230,9.8306
39,2,1,3,0,06.079,6079,-7.4800,6.5900,-0.0500,9.9690,0.1407,0.0742,0.1953,48.06,90.38,221.13,-7.0985,6.8242,-0.1134,9.8474
39,2,1,3,0,06.252,6252,-6.8300,6.5500,0.1100,9.4638,0.0567,0.0229,0.2389,45.75,89.00,223.75,-7.0632,6.7880,-0.0840,9.7966
39,2,1,3,0,06.383,6383,-6.0500,5.2800,0.1400,8.0312,0.0556,0.0022,0.0687,44.75,88.44,225.06,-6.9296,6.5893,-0.0544,9.5625
39,2,1,3,0,06.514,6514,-4.8900,3.9200,0.2500,6.2722,0.0404,-0.0175,-0.0807,44.88,88.25,225.25,-6.6609,6.2376,-0.0143,9.1255
39,2,1,3,0,06.644,6644,-5.2100,5.4200,0.2500,7.5222,-0.0098,-0.0535,0.0589,45.19,88.56,225.19,-6.4697,6.1298,0.0205,8.9125
39,3,1,3,0,06.775,6775,-6.8800,6.7800,0.1800,9.6610,-0.0076,-0.0513,0.1418,44.88,89.06,225.81,-6.5238,6.2155,0.0415,9.0108
39,3,1,3,0,06.907,6907,-7.2600,7.2700,0.0700,10.2745,0.0262,-0.0240,0.1898,43.63,89.38,227.31,-6.6208,6.3545,0.0453,9.1769
39,3,1,3,0,07.041,7041,-7.2000,7.9800,0.3300,10.7531,-0.0469,-0.0218,0.2236,41.94,89.56,229.13,-6.6971,6.5687,0.0828,9.3811
39,3,1,3,0,07.172,7172,-9.5200,9.6700,0.0000,13.5698,0.0480,0.0164,0.1494,40.63,89.63,230.50,-7.0691,6.9773,0.0719,9.9328
39,3,1,3,0,07.345,7345,-9.2900,10.7900,-0.2500,14.2405,0.0055,0.0774,0.0960,39.44,89.44,231.50,-7.3617,7.4798,0.0295,10.4949
39,3,1,3,0,07.476,7476,-6.7200,8.6200,0.5700,10.9448,0.0305,0.0545,0.1069,38.81,88.94,231.88,-7.2772,7.6300,0.1007,10.5444
39,3,1,3,0,07.606,7606,-5.7600,7.5700,0.2500,9.5155,-0.0360,0.0131,0.0927,37.94,88.75,232.44,-7.0773,7.6221,0.1204,10.4018
39,3,1,3,0,07.737,7737,-6.0300,7.7000,0.3100,9.7850,-0.0687,-0.0142,0.0098,37.56,89.00,232.69,-6.9393,7.6324,0.1454,10.3164
39,3,1,3,0,07.868,7868,-6.2500,7.7500,0.3700,9.9630,-0.0196,-0.0458,-0.1189,38.06,89.50,232.13,-6.8484,7.6479,0.1750,10.2675
39,3,1,3,0,07.998,7998,-5.9500,7.0300,0.1900,9.2119,-0.0251,-0.0545,-0.1734,39.06,90.13,231.13,-6.7300,7.5664,0.1769,10.1280
39,3,1,3,0,08.128,8128,-4.8300,4.9300,0.1100,6.9026,-0.0055,-0.0196,-0.3589,41.19,90.63,229.19,-6.4797,7.2190,0.1681,9.7020
39,3,1,3,0,08.258,8258,-5.3600,5.2000,-0.0200,7.4679,-0.0262,-0.0371,-0.4254,44.13,91.13,226.31,-6.3321,6.9530,0.1433,9.4053
39,3,1,3,0,08.431,8431,-7.7700,6.9000,-0.2900,10.3955,0.0196,0.0076,-0.2847,47.50,91.63,223.00,-6.5216,6.9460,0.0862,9.5281
39,3,1,3,0,08.566,8566,-7.2900,5.6800,-0.0400,9.2417,0.0545,0.0065,-0.1625,49.06,91.44,221.56,-6.6229,6.7792,0.0696,9.4776
39,3,1,3,0,08.697,8697,-8.2600,6.5200,-0.1700,10.5246,0.0535,0.0360,-0.0687,49.81,91.06,220.88,-6.8386,6.7450,0.0380,9.6054
39,3,1,3,0,08.827,8827,-7.8300,6.2500,0.0000,10.0186,0.0327,0.0425,0.0033,50.06,90.31,220.63,-6.9692,6.6798,0.0330,9.6535
39,3,1,3,0,08.958,8958,-7.5400,6.0000,0.1000,9.6365,0.0316,0.0338,0.0338,49.94,89.63,220.75,-7.0444,6.5902,0.0418,9.6466
39,3,1,3,0,09.089,9089,-6.9600,5.0400,0.3000,8.5984,0.0491,0.0349,0.0218,49.81,89.13,220.88,-7.0333,6.3859,0.0759,9.5002
39,3,1,3,0,09.220,9220,-4.6600,3.2400,0.4300,5.6919,-0.0240,0.0000,0.0829,49.50,88.63,221.19,-6.7206,5.9714,0.1225,8.9910
39,3,1,3,0,09.350,9350,-6.0100,5.0700,0.3900,7.8726,-0.0753,-0.0295,0.1374,48.75,88.81,221.88,-6.6269,5.8526,0.1578,8.8427
39,4,1,3,0,09.523,9523,-7.3400,5.8100,0.3800,9.3689,-0.0305,0.0295,0.2094,47.13,89.00,223.25,-6.7209,5.8470,0.1871,8.9103
39,4,1,3,0,09.653,9653,-6.8600,7.5500,-0.0400,10.2012,-0.0829,-0.0065,0.2869,45.06,89.13,224.94,-6.7392,6.0714,0.1571,9.0721
39,4,1,3,0,09.783,9783,-7.6400,7.1300,0.5900,10.4668,0.0295,0.0240,0.2313,42.94,89.00,226.81,-6.8579,6.2109,0.2142,9.2549
39,4,1,3,0,09.913,9913,-8.2000,10.7600,-0.1500,13.5292,-0.0916,0.0251,0.1800,41.25,89.13,228.06,-7.0348,6.8104,0.1662,9.7927
39,4,1,3,0,10.043,10043,-11.0900,11.6000,0.2100,16.0497,-0.0055,0.0633,-0.0142,41.06,89.06,227.94,-7.5692,7.4415,0.1720,10.6159
39,4,1,3,0,10.173,10173,-7.3700,8.7800,0.3800,11.4695,-0.0131,0.0371,0.0338,41.06,88.56,227.63,-7.5429,7.6179,0.1994,10.7223
39,4,1,3,0,10.303,10303,-5.7000,7.4700,-0.0400,9.3964,-0.0600,-0.0065,0.1276,40.38,88.63,228.13,-7.3001,7.5984,0.1678,10.5382
39,4,1,3,0,10.433,10433,-5.9800,7.3700,0.2500,9.4942,-0.0425,-0.0535,0.0589,39.69,89.13,228.81,-7.1261,7.5683,0.1787,10.3968
39,4,1,3,0,10.606,10606,-6.5200,7.7600,-0.1100,10.1361,-0.0436,-0.0654,-0.1767,40.06,90.06,228.44,-7.0462,7.5936,0.1406,10.3601
39,4,1,3,0,10.736,10736,-6.4100,6.6700,-0.0600,9.2510,-0.0295,-0.0633,-0.3949,42.19,90.81,226.50,-6.9624,7.4719,0.1142,10.2136
39,4,1,3,0,10.866,10866,-4.1700,3.4400,0.1200,5.4071,-0.0065,-0.0480,-0.5378,45.56,91.19,223.31,-6.5944,6.9406,0.1150,9.5745
39,4,1,3,0,10.996,10996,-7.5900,5.7200,-0.0300,9.5041,-0.0774,-0.0851,-0.4941,49.44,92.25,219.63,-6.7256,6.7797,0.0958,9.5503
39,4,1,3,0,11.126,11126,-8.0400,5.6200,-0.1000,9.8100,0.0393,0.0262,-0.2803,52.31,92.56,216.75,-6.8988,6.6269,0.0700,9.5663
39,4,1,3,0,11.256,11256,-7.8400,5.6900,-0.2700,9.6910,0.0164,0.0087,-0.0458,53.25,92.25,215.88,-7.0228,6.5034,0.0252,9.5716
39,4,1,3,0,11.386,11386,-8.5000,5.9400,-0.0700,10.3701,0.0480,0.0556,0.0753,53.13,91.63,216.06,-7.2175,6.4292,0.0127,9.6658
39,4,1,3,0,11.517,11517,-7.8200,5.7700,-0.0500,9.7184,0.0502,0.0480,0.1778,52.19,90.56,217.13,-7.2969,6.3423,0.0044,9.6680
39,4,1,3,0,11.690,11690,-7.6400,5.8900,0.0700,9.6471,0.0185,0.0229,0.0807,51.06,89.56,218.31,-7.3421,6.2827,0.0131,9.6633
39,4,1,3,0,11.820,11820,-7.5700,5.8500,0.1400,9.5680,0.0229,0.0076,0.0404,50.81,89.31,218.69,-7.3721,6.2257,0.0298,9.6493
39,4,1,3,0,11.950,11950,-6.1400,4.1900,0.2500,7.4376,0.0447,0.0404,-0.0338,50.88,89.00,218.69,-7.2098,5.9574,0.0588,9.3528
39,4,1,3,0,12.080,12080,-5.0300,3.7200,0.1300,6.2575,-0.0415,-0.0076,-0.1331,51.50,88.63,218.00,-6.9225,5.6626,0.0682,8.9438
39,5,1,3,0,12.210,12210,-8.1900,5.7800,0.1900,10.0260,0.0240,-0.0131,-0.2094,52.81,88.88,216.63,-7.0896,5.6781,0.0842,9.0835
39,5,1,3,0,12.340,12340,-7.8900,5.3200,0.5300,9.5308,0.0240,0.0404,0.1364,53.00,88.56,216.44,-7.1950,5.6309,0.1430,9.1376
39,5,1,3,0,12.470,12470,-8.0600,6.6300,0.0000,10.4365,-0.0044,-0.0011,0.3436,51.13,88.25,218.31,-7.3090,5.7626,0.1241,9.3083
39,5,1,3,0,12.601,12601,-7.8500,6.6900,0.2400,10.3168,0.0884,0.0240,0.5607,47.75,87.81,221.75,-7.3803,5.8848,0.1394,9.4403
39,5,1,3,0,12.773,12773,-10.2900,11.1900,0.0600,15.2021,-0.0535,-0.0436,0.5247,41.75,88.25,227.69,-7.7637,6.5839,0.1289,10.1803
39,5,1,3,0,12.903,12903,-8.9800,11.0700,0.7500,14.2740,0.0436,0.0425,0.1887,39.38,88.38,230.06,-7.9240,7.1750,0.2108,10.6918
39,5,1,3,0,13.033,13033,-6.0500,8.0600,0.4500,10.0880,0.0033,-0.0164,-0.1244,39.31,88.38,230.06,-7.6771,7.2916,0.2423,10.5907
39,5,1,3,0,13.163,13163,-6.4400,7.1300,0.1700,9.6093,-0.0545,-0.0742,-0.3131,40.75,88.88,228.69,-7.5140,7.2703,0.2328,10.4581
39,5,1,3,0,13.293,13293,-6.9500,7.3300,0.1800,10.1027,-0.0480,-0.0535,-0.3534,43.13,89.56,226.38,-7.4397,7.2782,0.2258,10.4102
39,5,1,3,0,13.423,13423,-7.4700,7.4300,-0.1900,10.5376,-0.0109,-0.0502,-0.3480,45.75,90.19,223.81,-7.4437,7.2982,0.1710,10.4260
39,5,1,3,0,13.554,13554,-5.9000,4.4700,-0.1100,7.4029,0.0273,-0.0218,-0.3436,48.38,90.56,221.44,-7.2403,6.9255,0.1340,10.0201
39,5,1,3,0,13.684,13684,-4.7000,2.9900,0.1400,5.5722,-0.0175,-0.0327,-0.1636,50.31,90.69,219.56,-6.9055,6.4069,0.1348,9.4209
39,5,1,3,0,13.857,13857,-9.0500,7.0000,-0.2800,11.4447,0.0305,0.0229,0.1658,50.25,91.25,219.69,-7.1881,6.4851,0.0801,9.6815
39,5,1,3,0,13.988,13988,-7.0000,6.0400,0.0300,9.2457,0.0284,0.0207,0.3098,48.44,90.50,221.63,-7.1633,6.4264,0.0735,9.6238
39,5,1,3,0,14.118,14118,-7.3200,6.3000,0.2400,9.6607,0.0229,-0.0098,0.1625,46.81,90.06,223.31,-7.1840,6.4098,0.0955,9.6283
39,5,1,3,0,14.249,14249,-7.1100,6.7600,0.0900,9.8111,0.0044,0.0011,-0.0142,46.56,90.00,223.69,-7.1742,6.4559,0.0947,9.6518
39,5,1,3,0,14.380,14380,-7.5300,6.6000,0.0000,10.0130,0.0076,-0.0055,-0.1298,47.19,89.94,223.06,-7.2211,6.4749,0.0823,9.6993
39,5,1,3,0,14.511,14511,-7.6900,6.3900,0.0600,9.9986,0.0142,0.0044,-0.1854,48.50,89.88,221.75,-7.2829,6.4637,0.0793,9.7379
39,5,1,3,0,14.642,14642,-7.5800,6.0700,0.1400,9.7119,0.0044,0.0109,-0.0829,49.81,89.56,220.50,-7.3221,6.4118,0.0873,9.7330
39,5,1,3,0,14.777,14777,-5.7900,4.1300,0.2100,7.1151,0.0469,0.0393,-0.0164,50.19,89.19,220.13,-7.1202,6.1111,0.1035,9.3837
39,5,1,3,0,14.949,14949,-4.6900,3.3600,0.5000,5.7910,0.0175,0.0098,0.0207,50.19,88.94,220.06,-6.7999,5.7486,0.1557,8.9056
39,6,1,3,0,15.079,15079,-8.4100,7.1500,-0.3700,11.0448,-0.0840,-0.0164,-0.0087,50.13,89.44,219.94,-7.0121,5.9333,0.0865,9.1859
39,6,1,3,0,15.209,15209,-7.9600,5.6600,0.4900,9.7794,0.0927,0.0371,-0.0022,50.38,89.25,219.75,-7.1370,5.8973,0.1396,9.2593
39,6,1,3,0,15.340,15340,-7.7300,5.8700,0.0100,9.7062,-0.0436,0.0109,0.1789,49.69,89.19,220.31,-7.2151,5.8937,0.1226,9.3171
39,6,1,3,0,15.470,15470,-9.3400,8.9200,-0.1700,12.9163,-0.0742,-0.0120,0.3992,47.50,89.44,222.38,-7.4951,6.2925,0.0840,9.7867
39,6,1,3,0,15.600,15600,-10.5400,10.2700,-0.1200,14.7166,-0.0807,-0.0109,0.3698,44.38,89.81,225.19,-7.8964,6.8166,0.0571,10.4318
39,6,1,3,0,15.731,15731,-9.0000,10.2200,0.1900,13.6193,0.0055,0.0589,0.1407,42.81,89.88,226.50,-8.0418,7.2651,0.0746,10.8378
39,6,1,3,0,15.861,15861,-6.9700,7.9100,-0.1100,10.5433,-0.0196,0.0175,-0.0295,42.75,89.94,226.31,-7.9006,7.3501,0.0503,10.7910
39,6,1,3,0,16.034,16034,-6.6500,7.0200,-0.0200,9.6697,-0.0480,0.0000,-0.0862,43.06,90.25,225.75,-7.7358,7.3066,0.0410,10.6410
39,6,1,3,0,16.165,16165,-7.0800,7.2300,-0.1000,10.1197,-0.0109,0.0044,-0.0458,43.50,90.38,225.19,-7.6494,7.2965,0.0225,10.5713
39,6,1,3,0,16.296,16296,-7.3500,7.4400,-0.2000,10.4602,0.0469,0.0142,-0.0458,43.75,90.38,224.94,-7.6099,7.3154,-0.0069,10.5558
39,6,1,3,0,16.426,16426,-6.0600,5.7000,0.1400,8.3206,0.0709,0.0262,-0.0862,44.06,90.00,224.81,-7.4057,7.1025,0.0125,10.2611
39,6,1,3,0,16.557,16557,-4.0100,3.6900,0.3300,5.4594,0.0065,-0.0033,-0.1080,44.69,89.44,224.25,-6.9582,6.6528,0.0543,9.6270
39,6,1,3,0,16.687,16687,-8.5500,8.0400,0.0900,11.7368,-0.0207,-0.0251,-0.1407,45.44,89.81,223.56,-7.1680,6.8356,0.0590,9.9050
39,6,1,3,0,16.821,16821,-6.6900,6.4500,-0.1100,9.2936,0.0513,0.0218,-0.2029,46.75,89.38,222.31,-7.1050,6.7848,0.0368,9.8243
39,6,1,3,0,16.952,16952,-7.5600,6.2100,0.1700,9.7850,-0.0011,0.0011,-0.2967,48.56,89.13,220.63,-7.1649,6.7091,0.0543,9.8159
39,6,1,3,0,17.126,17126,-7.4400,5.5600,0.2500,9.2914,0.0055,0.0109,-0.1429,51.25,88.69,217.94,-7.2012,6.5577,0.0801,9.7399
39,6,1,3,0,17.256,17256,-7.9900,5.9600,0.2500,9.9712,0.0131,-0.0207,0.0698,51.56,88.69,217.75,-7.3051,6.4789,0.1025,9.7648
39,6,1,3,0,17.386,17386,-7.6800,6.2000,0.0400,9.8704,-0.0044,-0.0360,0.2596,50.44,88.94,219.00,-7.3545,6.4421,0.0943,9.7775
39,6,1,3,0,17.517,17517,-7.4900,6.2500,0.1700,9.7566,-0.0295,-0.0360,0.2149,48.75,89.25,220.81,-7.3724,6.4168,0.1042,9.7744
39,6,1,3,0,17.648,17648,-6.1400,4.9300,0.2200,7.8774,0.0240,0.0011,0.0153,48.00,89.31,221.63,-7.2100,6.2209,0.1195,9.5235
39,6,1,3,0,17.778,17778,-5.2300,4.2200,0.1600,6.7221,-0.0153,-0.0011,-0.0622,48.38,89.38,221.31,-6.9491,5.9572,0.1248,9.1539
39,7,1,3,0,17.908,17908,-7.3200,6.3100,-0.2500,9.6675,0.0327,0.0196,-0.0338,48.69,89.50,220.94,-6.9980,6.0037,0.0754,9.2207
39,7,1,3,0,18.039,18039,-8.0500,6.7100,-0.0700,10.4801,0.0185,0.0360,0.0218,48.81,89.25,220.88,-7.1366,6.0968,0.0563,9.3864
39,7,1,3,0,18.211,18211,-7.4400,6.4200,0.0700,9.8273,0.0218,0.0393,0.1440,48.00,88.56,221.69,-7.1766,6.1394,0.0581,9.4445
39,7,1,3,0,18.341,18341,-8.3600,7.9900,0.1600,11.5653,-0.0098,0.0076,0.3033,46.31,88.38,223.31,-7.3325,6.3832,0.0715,9.7220
39,7,1,3,0,18.471,18471,-10.3800,10.0000,0.2000,14.4147,-0.0447,-0.0196,0.2847,44.00,88.63,225.50,-7.7341,6.8598,0.0884,10.3383
39,7,1,3,0,18.601,18601,-9.8900,10.6500,0.3600,14.5384,-0.0044,0.0273,0.1549,42.63,88.88,226.75,-8.0182,7.3593,0.1242,10.8842
39,7,1,3,0,18.731,18731,-7.0700,8.3400,0.2600,10.9365,-0.0120,-0.0185,0.0665,41.88,88.94,227.38,-7.8932,7.4885,0.1421,10.8812
39,7,1,3,0,18.861,18861,-5.9400,7.0000,0.3000,9.1855,-0.0404,-0.0240,0.0545,41.44,89.19,227.81,-7.6359,7.4241,0.1629,10.6513
39,7,1,3,0,18.992,18992,-6.6600,7.2200,0.0700,9.8229,-0.0305,-0.0327,-0.0731,41.69,89.69,227.56,-7.5073,7.3972,0.1507,10.5404
39,7,1,3,0,19.122,19122,-7.2600,7.8100,-0.0900,10.6636,-0.0185,-0.0251,-0.1680,42.56,90.06,226.69,-7.4747,7.4516,0.1190,10.5552
39,7,1,3,0,19.295,19295,-6.4200,6.4700,0.0800,9.1150,0.0185,-0.0196,-0.3327,44.81,90.25,224.63,-7.3357,7.3223,0.1138,10.3654
39,7,1,3,0,19.425,19425,-4.1700,3.2400,0.0600,5.2811,0.0316,-0.0011,-0.4320,47.69,90.00,221.94,-6.9185,6.7843,0.1067,9.6905
39,7,1,3,0,19.555,19555,-7.9700,6.2700,0.0300,10.1407,-0.0469,-0.0971,-0.3360,50.06,90.69,219.69,-7.0571,6.7166,0.0966,9.7429
39,7,1,3,0,19.685,19685,-7.7900,5.7300,-0.0900,9.6708,0.0360,0.0327,-0.1167,51.75,90.63,218.19,-7.1537,6.5866,0.0720,9.7244
39,7,1,3,0,19.815,19815,-7.5100,5.4200,0.0700,9.2618,0.0142,-0.0142,0.0055,51.88,90.38,218.19,-7.2006,6.4328,0.0718,9.6559
39,7,1,3,0,19.945,19945,-8.4900,6.3700,-0.1300,10.6148,0.0436,0.0218,0.0371,51.63,90.31,218.50,-7.3705,6.4246,0.0452,9.7776
39,7,1,3,0,20.076,20076,-7.2200,5.8600,-0.0200,9.2988,0.0044,0.0240,-0.0644,51.81,89.75,218.31,-7.3507,6.3502,0.0366,9.7138
39,7,1,3,0,20.206,20206,-8.1700,6.0800,0.1600,10.1853,0.0240,0.0098,-0.1473,52.63,89.56,217.56,-7.4587,6.3146,0.0529,9.7728
39,7,1,3,0,20.379,20379,-7.9700,5.1600,0.2900,9.4990,0.0305,-0.0011,-0.2214,54.44,89.25,215.81,-7.5260,6.1624,0.0841,9.7275
39,7,1,3,0,20.509,20509,-8.3300,5.2500,0.0200,9.8464,-0.0153,-0.0087,-0.1396,56.06,89.13,214.19,-7.6320,6.0422,0.0757,9.7345
39,7,1,3,0,20.639,20639,-5.2100,3.3300,0.3200,6.1916,0.0033,0.0229,0.0938,56.31,88.56,214.00,-7.3128,5.6848,0.1079,9.2631
39,7,1,3,0,20.769,20769,-6.0400,3.2900,0.2900,6.8840,0.0393,0.0284,0.1625,55.38,88.50,214.94,-7.1451,5.3692,0.1319,8.9386
39,8,1,3,0,20.899,20899,-8.4900,5.8600,-0.2200,10.3183,-0.0491,0.0218,0.2247,53.94,88.63,216.25,-7.3223,5.4339,0.0855,9.1187
39,8,1,3,0,21.029,21029,-8.6800,6.7900,-0.0200,11.0203,-0.0458,-0.0076,0.3349,51.88,88.38,218.25,-7.5012,5.6126,0.0716,9.3688
39,8,1,3,0,21.160,21160,-7.9600,7.2300,0.0300,10.7534,0.0229,-0.0120,0.3403,49.31,88.44,220.75,-7.5617,5.8257,0.0661,9.5458
39,8,1,3,0,21.290,21290,-8.2300,7.2500,0.3900,10.9749,-0.0382,-0.0251,0.3065,46.94,88.75,223.00,-7.6498,6.0134,0.1088,9.7310
39,8,1,3,0,21.463,21463,-10.8700,10.8900,-0.1700,15.3876,-0.0971,-0.0371,0.1069,44.63,89.81,225.06,-8.0741,6.6560,0.0721,10.4642
39,8,1,3,0,21.593,21593,-8.6100,8.9700,-0.0100,12.4335,-0.0262,0.0305,-0.1167,45.06,90.06,224.38,-8.1447,6.9609,0.0612,10.7142
39,8,1,3,0,21.723,21723,-7.5000,7.3400,-0.1100,10.4947,-0.0273,0.0240,-0.1473,46.31,90.25,222.88,-8.0598,7.0109,0.0387,10.6824
39,8,1,3,0,21.853,21853,-6.9100,6.6400,-0.0800,9.5835,0.0131,0.0087,-0.0447,46.75,90.25,222.25,-7.9083,6.9620,0.0230,10.5362
39,8,1,3,0,21.983,21983,-7.1100,6.4700,0.0500,9.6133,-0.0022,0.0109,0.1080,46.44,90.13,222.56,-7.8031,6.8972,0.0266,10.4144
39,8,1,3,0,22.113,22113,-7.5200,6.8600,0.2100,10.1811,0.0087,-0.0076,0.1364,45.56,90.13,223.44,-7.7658,6.8923,0.0508,10.3833
39,8,1,3,0,22.243,22243,-6.8200,6.8000,0.1900,9.6327,0.0338,0.0065,0.0633,44.75,89.94,224.25,-7.6411,6.8801,0.0691,10.2824
39,8,1,3,0,22.373,22373,-6.4000,5.8400,0.1400,8.6652,0.0349,0.0120,-0.1833,45.31,89.75,223.81,-7.4776,6.7431,0.0784,10.0692
39,8,1,3,0,22.546,22546,-6.4600,5.8300,-0.0100,8.7018,-0.1091,-0.0753,-0.2902,48.13,89.81,221.13,-7.3435,6.6227,0.0668,9.8890
39,8,1,3,0,22.676,22676,-8.8600,6.6100,0.0100,11.0540,0.0513,0.0295,-0.1920,50.19,90.06,219.19,-7.5433,6.6211,0.0593,10.0371
39,8,1,3,0,22.806,22806,-6.3700,5.3800,0.2900,8.3430,0.0098,-0.0164,0.0927,50.19,89.75,219.25,-7.3887,6.4575,0.0897,9.8133
39,8,1,3,0,22.936,22936,-8.3300,6.8300,-0.0100,10.7721,0.0295,0.0164,0.0567,49.69,89.88,219.81,-7.5128,6.5066,0.0766,9.9390
39,8,1,3,0,23.066,23066,-6.9200,5.9000,0.1000,9.0943,-0.0044,-0.0011,-0.0098,49.56,89.56,220.06,-7.4346,6.4267,0.0797,9.8276
39,8,1,3,0,23.197,23197,-8.1400,6.2500,0.1400,10.2636,0.0295,-0.0044,-0.1789,50.19,89.63,219.50,-7.5276,6.4034,0.0876,9.8831
39,8,1,3,0,23.327,23327,-7.6900,5.5500,0.0400,9.4837,-0.0022,-0.0251,-0.3229,52.19,89.56,217.63,-7.5490,6.2909,0.0813,9.8270
39,8,1,3,0,23.457,23457,-8.3900,5.5400,0.0200,10.0541,-0.0033,-0.0284,-0.1298,53.94,89.88,215.94,-7.6598,6.1920,0.0733,9.8498
39,8,1,3,0,23.630,23630,-5.8600,3.4500,0.1100,6.8010,0.0447,0.0207,-0.0273,54.50,89.56,215.56,-7.4226,5.8307,0.0781,9.4392
39,8,1,3,0,23.760,23760,-5.8700,3.6600,-0.0400,6.9177,0.0175,0.0295,-0.0665,54.88,89.31,215.31,-7.2180,5.5446,0.0625,9.1020
39,9,1,3,0,23.890,23890,-8.3000,5.4500,0.1100,9.9300,0.0185,0.0142,0.0720,55.13,89.25,215.06,-7.3606,5.5322,0.0688,9.2080
39,9,1,3,0,24.020,24020,-8.4400,5.7900,0.1500,10.2362,0.0491,0.0382,0.2465,53.94,88.88,216.31,-7.5029,5.5661,0.0795,9.3424
39,9,1,3,0,24.150,24150,-7.7200,6.0100,-0.0200,9.7836,-0.0371,0.0098,0.2662,52.00,88.50,218.25,-7.5315,5.6246,0.0664,9.4002
39,9,1,3,0,24.280,24280,-8.2300,6.6200,0.2600,10.5653,0.0109,-0.0044,0.3174,49.88,88.38,220.31,-7.6235,5.7558,0.0919,9.5528
39,9,1,3,0,24.410,24410,-10.5900,9.9500,-0.1200,14.5315,-0.0033,-0.0109,0.3589,47.19,88.75,222.88,-8.0144,6.3085,0.0640,10.1996
39,9,1,3,0,24.541,24541,-10.9900,10.4300,-0.1300,15.1520,-0.0251,0.0589,0.0196,46.00,88.94,224.00,-8.4065,6.8516,0.0384,10.8451
39,9,1,3,0,24.714,24714,-6.8400,6.9900,0.0500,9.7800,-0.0382,0.0164,-0.0065,46.38,88.75,223.44,-8.2001,6.8698,0.0399,10.6976
39,9,1,3,0,24.845,24845,-6.7900,6.1000,0.4100,9.1369,-0.0415,-0.0207,0.1309,45.81,88.94,223.94,-8.0143,6.7684,0.0887,10.4904
39,9,1,3,0,24.976,24976,-6.8200,6.7800,0.1800,9.6184,0.0142,-0.0218,0.2563,44.44,89.13,225.31,-7.8569,6.7699,0.1007,10.3717
39,9,1,3,0,25.106,25106,-7.0600,7.5500,-0.2000,10.3386,-0.0175,-0.0371,0.1538,42.88,89.50,226.94,-7.7519,6.8727,0.0611,10.3600
39,9,1,3,0,25.236,25236,-6.8800,7.3400,0.2900,10.0645,-0.0240,-0.0207,-0.1080,42.81,89.75,227.25,-7.6370,6.9343,0.0913,10.3158
39,9,1,3,0,25.366,25366,-6.0600,5.6300,0.1700,8.2734,0.0480,-0.0065,-0.4265,44.94,89.63,225.25,-7.4292,6.7624,0.1016,10.0466
39,9,1,3,0,25.497,25497,-5.4100,3.6500,0.3200,6.5340,-0.0251,-0.0327,-0.4178,48.38,89.50,222.00,-7.1631,6.3523,0.1304,9.5749
39,9,1,3,0,25.628,25628,-9.1700,6.5500,0.1400,11.2699,0.0218,-0.0491,-0.1800,50.44,90.31,220.00,-7.4276,6.3783,0.1317,9.7913
39,9,1,3,0,25.804,25804,-6.9800,5.5600,-0.0800,8.9241,-0.0065,-0.0011,0.1909,50.00,90.19,220.63,-7.3686,6.2705,0.1038,9.6761
39,9,1,3,0,25.935,25935,-8.3600,6.5300,0.0600,10.6082,-0.0109,0.0087,0.1014,48.88,90.25,221.69,-7.4992,6.3047,0.0980,9.7978
39,9,1,3,0,26.066,26066,-7.1900,6.1200,-0.0300,9.4420,0.0011,0.0142,-0.0524,48.88,89.94,221.63,-7.4585,6.2804,0.0811,9.7508
39,9,1,3,0,26.196,26196,-7.8900,6.4400,-0.1500,10.1857,0.0229,0.0087,-0.0982,49.50,90.00,221.00,-7.5153,6.3014,0.0507,9.8077
39,9,1,3,0,26.327,26327,-7.5700,6.2000,-0.0400,9.7850,-0.0153,0.0065,-0.0665,50.31,89.94,220.19,-7.5226,6.2880,0.0387,9.8046
39,9,1,3,0,26.458,26458,-7.8000,6.2100,0.0100,9.9702,-0.0087,0.0142,-0.0098,50.63,89.88,219.88,-7.5591,6.2777,0.0350,9.8261
39,9,1,3,0,26.588,26588,-7.1300,5.5500,0.0400,9.0355,0.0218,0.0262,0.0393,50.56,89.69,219.88,-7.5026,6.1819,0.0356,9.7214
39,9,1,3,0,26.718,26718,-4.7000,3.4200,0.1200,5.8138,-0.0295,0.0022,0.0251,50.38,89.13,220.06,-7.1333,5.8179,0.0467,9.2051
39,10,1,3,0,26.891,26891,-7.3700,5.7400,0.3200,9.3470,-0.0425,-0.0011,0.0240,50.25,89.06,220.00,-7.1645,5.8076,0.0827,9.2231
39,10,1,3,0,27.021,27021,-8.0600,6.3100,0.1400,10.2372,0.0305,0.0393,0.1440,49.56,88.81,220.50,-7.2825,5.8738,0.0903,9.3565
39,10,1,3,0,27.151,27151,-6.9200,6.1600,0.1600,9.2659,-0.0284,0.0316,0.2007,48.19,88.44,221.75,-7.2347,5.9115,0.0995,9.3433
39,10,1,3,0,27.281,27281,-7.4000,6.4400,0.4000,9.8180,0.0120,0.0185,0.1091,47.13,88.31,222.63,-7.2565,5.9812,0.1391,9.4048
39,10,1,3,0,27.411,27411,-8.6900,8.6800,-0.0400,12.2825,-0.0894,0.0055,0.1734,46.31,88.38,223.19,-7.4454,6.3368,0.1155,9.7776
39,10,1,3,0,27.541,27541,-12.2200,11.0000,0.4400,16.4476,-0.0273,-0.0076,0.0382,45.69,88.88,223.69,-8.0746,6.9513,0.1582,10.6557
39,10,1,3,0,27.672,27672,-7.9200,8.4500,0.2100,11.5833,0.0229,0.0393,0.0415,45.44,88.56,223.75,-8.0542,7.1488,0.1651,10.7704
39,10,1,3,0,27.802,27802,-6.5300,6.7700,0.0900,9.4065,-0.0316,0.0120,0.1156,45.00,88.44,224.06,-7.8533,7.0989,0.1552,10.5874
39,10,1,3,0,27.975,27975,-6.5000,6.4800,0.3200,9.1838,-0.0131,-0.0109,0.0993,43.75,88.56,225.25,-7.6750,7.0173,0.1769,10.4010
39,10,1,3,0,28.105,28105,-7.2100,7.0400,0.1700,10.0784,-0.0218,-0.0229,-0.0055,43.56,88.75,225.44,-7.6137,7.0203,0.1760,10.3578
39,10,1,3,0,28.235,28235,-7.4200,7.5500,0.0100,10.5858,0.0000,-0.0153,-0.1156,44.00,88.94,225.06,-7.5882,7.0901,0.1541,10.3863
39,10,1,3,0,28.365,28365,-6.6100,6.5700,-0.0600,9.3199,-0.0131,-0.0218,-0.2280,45.25,88.88,223.88,-7.4593,7.0216,0.1259,10.2450
39,10,1,3,0,28.495,28495,-5.4300,4.1000,0.2100,6.8073,0.0175,-0.0055,-0.2716,47.38,88.63,222.00,-7.1919,6.6366,0.1370,9.7870
39,10,1,3,0,28.625,28625,-7.3700,5.8500,0.3000,9.4143,-0.0131,-0.0567,-0.1789,48.88,88.94,220.63,-7.2154,6.5329,0.1585,9.7348
39,10,1,3,0,28.755,28755,-8.1500,6.0500,0.1300,10.1510,0.0153,0.0120,-0.1854,50.19,88.94,219.50,-7.3385,6.4693,0.1547,9.7842
39,10,1,3,0,28.886,28886,-7.3100,5.5300,0.1100,9.1667,0.0142,-0.0120,-0.0044,50.81,88.75,218.94,-7.3348,6.3455,0.1488,9.6998
39,10,1,3,0,29.058,29058,-8.1200,6.1200,0.1900,10.1698,0.0316,-0.0033,0.0153,50.75,88.75,219.13,-7.4382,6.3158,0.1542,9.7591
39,10,1,3,0,29.188,29188,-7.6100,6.0900,0.0600,9.7470,-0.0033,-0.0011,0.0425,50.69,88.63,219.31,-7.4609,6.2860,0.1418,9.7570
39,10,1,3,0,29.318,29318,-7.7100,6.1800,0.1600,9.8824,0.0131,0.0000,-0.0513,50.69,88.56,219.38,-7.4937,6.2721,0.1442,9.7732
39,10,1,3,0,29.448,29448,-7.6400,5.9500,0.2400,9.6866,0.0087,-0.0109,-0.1494,51.56,88.50,218.56,-7.5130,6.2296,0.1568,9.7610
39,10,1,3,0,29.578,29578,-8.0500,5.8400,0.2000,9.9473,-0.0109,-0.0120,-0.1058,52.56,88.56,217.56,-7.5837,6.1783,0.1625,9.7832
39,10,1,3,0,29.708,29708,-7.8300,5.4200,0.2500,9.5262,-0.0055,-0.0098,-0.1091,53.63,88.44,216.56,-7.6162,6.0784,0.1741,9.7459
39,10,1,3,0,29.839,29839,-5.7300,3.3100,0.1300,6.6186,0.0142,0.0076,-0.1014,54.50,88.25,215.69,-7.3676,5.7136,0.1683,9.3250
39,10,1,3,0,29.969,29969,-6.2700,3.7500,0.2000,7.3086,0.0251,0.0393,-0.0098,54.88,88.25,215.19,-7.2230,5.4548,0.1724,9.0530
39,10,1,3,0,30.142,30142,-8.2700,5.8100,0.0300,10.1069,0.0022,0.0327,0.1822,54.00,88.19,215.88,-7.3610,5.5016,0.1537,9.1910
39,10,1,3,0,30.272,30272,-8.0900,6.4300,0.1600,10.3353,-0.0153,0.0382,0.2618,52.38,87.88,217.38,-7.4570,5.6240,0.1545,9.3413
39,10,1,3,0,30.402,30402,-7.7700,5.9900,0.3700,9.8178,0.0131,0.0436,0.1778,50.69,87.50,218.88,-7.4983,5.6722,0.1829,9.4038
39,10,1,3,0,30.532,30532,-8.4800,6.7200,0.4000,10.8272,-0.0196,-0.0044,0.0262,50.00,87.38,219.38,-7.6276,5.8103,0.2115,9.5909
39,10,1,3,0,30.662,30662,-11.8900,9.8300,0.0800,15.4275,-0.0654,-0.0513,0.1091,49.44,88.19,219.69,-8.1893,6.3400,0.1942,10.3585
39,10,1,3,0,30.792,30792,-10.6200,8.6100,0.2300,13.6737,-0.0240,0.0305,0.0164,49.06,88.63,219.94,-8.5096,6.6391,0.1989,10.7949
39,10,1,3,0,30.923,30923,-7.9300,6.8900,0.1600,10.5063,-0.0305,-0.0033,0.0851,48.63,88.75,220.13,-8.4332,6.6722,0.1938,10.7552
39,10,1,3,0,31.053,31053,-6.6200,6.7600,0.0300,9.4617,-0.0262,0.0098,0.2302,47.00,88.94,221.56,-8.1943,6.6837,0.1722,10.5758
39,10,1,3,0,31.226,31226,-6.8900,6.8900,0.0400,9.7440,-0.0262,-0.0120,-0.0131,45.88,89.19,222.63,-8.0224,6.7109,0.1548,10.4604
39,10,1,3,0,31.357,31357,-7.9100,7.2600,0.0200,10.7367,0.0109,-0.0185,-0.2553,47.00,89.44,221.56,-8.0076,6.7833,0.1370,10.4954
39,10,1,3,0,31.487,31487,-8.3000,6.9600,-0.1900,10.8336,-0.0087,-0.0153,-0.4167,49.56,89.56,219.06,-8.0461,6.8066,0.0939,10.5394
39,10,1,3,0,31.617,31617,-4.7000,3.1200,0.2600,5.6473,0.0687,0.0393,-0.2956,52.50,89.06,216.38,-7.6052,6.3208,0.1158,9.8896
39,10,1,3,0,31.748,31748,-6.4600,4.0700,0.5400,7.6543,0.0240,-0.1418,-0.2345,53.88,89.50,215.13,-7.4543,6.0242,0.1717,9.5858
39,10,1,3,0,31.878,31878,-9.4000,5.7100,0.6700,11.0188,0.0055,0.0284,0.0633,54.13,90.13,215.00,-7.7107,5.9828,0.2374,9.7624
39,10,1,3,0,32.009,32009,-7.4200,4.3700,1.1000,8.6812,0.0905,0.0218,0.0578,53.56,89.50,215.56,-7.6724,5.7702,0.3510,9.6065
39,10,1,3,0,32.139,32139,-8.8000,5.8600,0.0000,10.5726,-0.0229,0.0742,-0.2203,54.13,89.13,214.81,-7.8210,5.7821,0.3048,9.7310
39,10,1,3,0,32.312,32312,-8.4200,4.4000,-0.2300,9.5031,-0.0218,0.0731,-0.3436,57.44,87.69,211.31,-7.8999,5.6000,0.2343,9.6862
39,10,1,3,0,32.447,32447,-10.4500,4.4700,-1.1000,11.4190,0.0382,0.0774,-0.0894,58.94,86.81,209.56,-8.2359,5.4511,0.0585,9.8767
39,10,1,3,0,32.578,32578,-7.4000,3.9400,-0.3000,8.3889,0.0589,0.0611,0.1887,58.44,85.44,209.81,-8.1258,5.2519,0.0112,9.6753
39,10,1,3,0,32.708,32708,-10.6800,6.3300,-0.4400,12.4228,0.0229,0.0305,0.3131,56.56,85.69,211.50,-8.4624,5.3940,-0.0482,10.0354
