participant,rep,equipment_code,exercise_code,quality_code,timestamp,timestamp_ms,accelX,accelY,accelZ,accelMag,gyroX,gyroY,gyroZ,roll,pitch,yaw,filteredX,filteredY,filteredZ,filteredMag
39,1,0,0,0,00.000,0,-7.7000,6.5100,0.9000,10.1232,0.0764,-0.0022,0.1178,47.19,88.06,245.63,-6.8840,6.4252,0.1540,9.4179
39,1,0,0,0,00.130,130,-6.5500,6.5100,0.8300,9.2721,-0.0404,-0.0480,0.1451,45.88,88.44,246.88,-6.8400,6.4363,0.2430,9.3953
39,1,0,0,0,00.303,303,-6.6000,6.8400,0.3900,9.5130,-0.0120,-0.0142,0.1778,44.00,88.69,248.94,-6.8084,6.4895,0.2624,9.4094
39,1,0,0,0,00.433,433,-6.4400,6.6800,-0.0900,9.2792,0.0316,-0.0087,-0.0807,43.69,88.63,249.44,-6.7598,6.5146,0.2160,9.3905
39,1,0,0,0,00.563,563,-6.9700,6.7600,-0.3000,9.7143,0.0524,0.0229,-0.3512,45.25,88.56,247.88,-6.7875,6.5470,0.1480,9.4316
39,1,0,0,0,00.693,693,-6.0400,6.0200,-0.5900,8.5481,-0.0415,-0.0665,-0.3982,47.94,88.56,245.25,-6.6890,6.4775,0.0507,9.3115
39,1,0,0,0,00.823,823,-7.0200,6.1900,0.2500,9.3626,-0.0840,-0.0916,-0.2323,50.13,89.50,243.19,-6.7326,6.4396,0.0770,9.3168
39,1,0,0,0,00.954,954,-7.5000,6.2500,0.2800,9.7668,-0.0676,-0.0884,-0.1320,51.25,90.44,242.13,-6.8338,6.4146,0.1037,9.3733
39,1,0,0,0,01.084,1084,-8.4500,5.9300,-0.0400,10.3232,0.0196,0.0164,-0.0295,51.94,90.88,241.50,-7.0467,6.3508,0.0848,9.4866
39,1,0,0,0,01.214,1214,-7.6600,5.8200,-0.3200,9.6255,0.0098,0.0687,0.0611,51.75,90.44,241.50,-7.1275,6.2808,0.0315,9.5001
39,1,0,0,0,01.387,1387,-7.2100,5.8500,-0.1800,9.2865,-0.0087,0.0469,0.2018,50.63,90.13,242.25,-7.1384,6.2241,0.0036,9.4708
39,1,0,0,0,01.518,1518,-7.3800,6.1900,0.3400,9.6383,-0.0098,0.0393,0.3098,48.81,89.63,243.94,-7.1702,6.2196,0.0479,9.4920
39,1,0,0,0,01.648,1648,-6.9100,6.8100,-0.1800,9.7034,-0.0404,0.0207,0.1233,47.13,89.56,245.31,-7.1360,6.2974,0.0179,9.5173
39,1,0,0,0,01.779,1779,-6.4600,6.3900,-0.0600,9.0867,-0.0524,-0.0175,-0.1680,47.25,89.81,245.00,-7.0469,6.3096,0.0076,9.4588
39,1,0,0,0,01.909,1909,-7.1000,6.5900,0.0800,9.6873,-0.0469,-0.0087,-0.2618,48.88,90.19,243.19,-7.0539,6.3465,0.0172,9.4887
39,1,0,0,0,02.039,2039,-7.3100,5.9500,0.0500,9.4256,-0.0109,0.0131,-0.2400,50.75,90.31,241.13,-7.0876,6.2943,0.0215,9.4791
39,1,0,0,0,02.169,2169,-7.5300,5.6600,-0.0600,9.4202,-0.0382,0.0175,-0.2018,52.31,90.25,239.44,-7.1459,6.2107,0.0108,9.4677
39,1,0,0,0,02.299,2299,-6.8200,4.4600,-0.2400,8.1524,0.0131,0.0447,-0.0458,53.13,90.06,238.44,-7.1030,5.9800,-0.0223,9.2851
39,1,0,0,0,02.472,2472,-5.8500,4.1200,0.1100,7.1560,-0.0185,0.0109,0.2258,52.06,89.75,239.25,-6.9379,5.7349,-0.0049,9.0013
39,1,0,0,0,02.602,2602,-7.5200,6.0800,0.0000,9.6704,-0.0044,0.0044,0.3196,49.94,89.75,241.13,-7.0146,5.7804,-0.0042,9.0894
39,1,0,0,0,02.736,2736,-6.7100,6.2800,0.0000,9.1903,-0.0545,0.0447,0.2629,47.63,89.50,243.13,-6.9744,5.8462,-0.0037,9.1006
39,1,0,0,0,02.867,2867,-6.9200,6.1400,0.6800,9.2762,-0.0153,0.0273,0.0109,46.44,89.25,244.06,-6.9673,5.8849,0.0864,9.1205
39,1,0,0,0,03.000,3000,-6.9000,7.6600,-0.3100,10.3142,-0.0774,0.0153,-0.1331,47.06,89.50,243.00,-6.9584,6.1188,0.0342,9.2661
39,1,0,0,0,03.131,3131,-10.7400,8.0200,-0.1800,13.4052,-0.0774,-0.0044,-0.4276,49.38,90.06,240.44,-7.4567,6.3694,0.0060,9.8067
39,1,0,0,0,03.261,3261,-10.6300,9.1000,-0.4200,13.9994,-0.1276,0.0207,-0.1680,51.31,90.50,238.00,-7.8749,6.7292,-0.0502,10.3585
39,1,0,0,0,03.392,3392,-9.3000,7.2700,-0.2000,11.8061,-0.0011,0.0316,0.0884,51.81,90.63,237.13,-8.0627,6.8005,-0.0699,10.5479
39,2,0,0,0,03.565,3565,-6.7500,5.6100,0.0400,8.7770,0.0000,0.0502,0.1931,49.75,90.44,238.56,-7.8897,6.6436,-0.0554,10.3144
39,2,0,0,0,03.695,3695,-6.2100,5.5100,0.2600,8.3061,-0.0524,0.0589,0.0469,48.75,90.19,239.19,-7.6684,6.4942,-0.0139,10.0488
39,2,0,0,0,03.826,3826,-7.5400,6.7700,-0.2600,10.1367,-0.0360,0.0055,-0.0665,48.88,90.13,238.75,-7.6514,6.5305,-0.0463,10.0596
39,2,0,0,0,03.959,3959,-8.3900,7.3800,0.2000,11.1757,0.0175,-0.0185,0.0676,48.88,90.31,238.69,-7.7488,6.6425,-0.0138,10.2062
39,2,0,0,0,04.093,4093,-8.4300,7.8400,-0.4000,11.5191,-0.0044,-0.0578,-0.0556,48.56,90.81,239.06,-7.8385,6.8003,-0.0647,10.3774
39,2,0,0,0,04.224,4224,-5.3300,4.1100,0.0100,6.7306,-0.0109,-0.0087,-0.2334,49.75,91.13,238.13,-7.5080,6.4458,-0.0549,9.8955
39,2,0,0,0,04.355,4355,-2.2000,1.9200,0.6300,2.9872,-0.0927,-0.0884,-0.0742,50.31,91.63,237.63,-6.8085,5.8494,0.0354,8.9762
39,2,0,0,0,04.485,4485,-10.2400,7.6800,-0.1000,12.8004,0.0305,-0.0185,0.0251,50.69,93.38,237.31,-7.2607,6.0906,0.0175,9.4770
39,2,0,0,0,04.658,4658,-6.1000,5.7000,-1.4300,8.4702,-0.0862,0.0098,-0.4483,52.38,93.25,235.63,-7.1077,6.0391,-0.1732,9.3285
39,2,0,0,0,04.789,4789,-9.3400,4.8500,-0.0800,10.5245,0.1080,0.0262,-0.6349,56.63,93.69,231.38,-7.4019,5.8824,-0.1609,9.4561
39,2,0,0,0,04.920,4920,-8.5900,5.0000,-0.7400,9.9667,0.0055,0.0633,-0.2913,59.88,93.31,228.00,-7.5585,5.7662,-0.2372,9.5097
39,2,0,0,0,05.050,5050,-8.4900,4.9600,-0.5900,9.8504,-0.0055,0.0829,-0.0491,60.88,92.38,227.06,-7.6812,5.6599,-0.2837,9.5455
39,2,0,0,0,05.181,5181,-8.1500,3.9400,0.4200,9.0621,0.1014,0.0873,-0.0164,60.94,90.81,227.13,-7.7430,5.4333,-0.1910,9.4610
39,2,0,0,0,05.311,5311,-6.8200,2.8600,0.4000,7.4062,0.0687,0.0654,0.1702,60.31,89.56,227.81,-7.6214,5.0942,-0.1131,9.1678
39,2,0,0,0,05.445,5445,-6.0900,3.8100,-0.2000,7.1864,-0.0458,-0.0425,0.4080,57.94,89.13,230.19,-7.4196,4.9250,-0.1246,8.9062
39,2,0,0,0,05.576,5576,-6.7300,4.7600,0.2100,8.2459,0.0415,-0.0480,0.5323,54.56,89.44,233.63,-7.3287,4.9032,-0.0805,8.8181
39,2,0,0,0,05.750,5750,-7.3200,6.7600,-0.2500,9.9671,0.0251,-0.0524,0.2225,50.88,90.19,237.50,-7.3276,5.1479,-0.1028,8.9557
39,2,0,0,0,05.880,5880,-7.0600,5.7900,0.3100,9.1359,0.0164,0.0142,-0.0338,50.44,90.44,238.19,-7.2923,5.2325,-0.0484,8.9755
39,2,0,0,0,06.010,6010,-8.1500,6.6100,-0.0900,10.4939,0.0284,-0.0371,-0.2749,52.00,90.94,236.81,-7.4053,5.4140,-0.0539,9.1735
39,2,0,0,0,06.141,6141,-12.1100,9.4800,-0.6200,15.3918,-0.0982,-0.0709,-0.1287,53.69,91.69,235.19,-8.0253,5.9498,-0.1285,9.9911
39,2,0,0,0,06.272,6272,-12.2800,8.4400,0.0000,14.9007,0.0011,0.0295,0.1298,53.63,91.63,235.38,-8.5859,6.2780,-0.1116,10.6369
39,3,0,0,0,06.402,6402,-8.1300,6.6900,0.0700,10.5289,0.0600,0.0175,0.1418,52.63,91.19,236.44,-8.5259,6.3323,-0.0876,10.6205
39,3,0,0,0,06.532,6532,-6.9400,5.6100,-0.1700,8.9255,-0.0033,-0.0109,0.1233,51.50,91.13,237.56,-8.3169,6.2371,-0.0985,10.3962
39,3,0,0,0,06.663,6663,-7.0300,6.4100,-0.2100,9.5159,-0.0545,-0.0153,0.0567,50.75,91.25,238.25,-8.1473,6.2599,-0.1132,10.2751
39,3,0,0,0,06.835,6835,-7.0900,5.8700,-0.2700,9.2086,-0.0393,0.0109,-0.2694,52.19,91.44,236.81,-8.0080,6.2085,-0.1338,10.1337
39,3,0,0,0,06.965,6965,-5.2100,3.7900,-0.0500,6.4429,0.0196,0.0458,-0.3327,54.56,91.19,234.38,-7.6393,5.8898,-0.1228,9.6469
39,3,0,0,0,07.095,7095,-5.8800,3.4400,0.3800,6.8229,-0.0360,0.0011,-0.2225,56.75,90.88,232.13,-7.4074,5.5670,-0.0565,9.2663
39,3,0,0,0,07.225,7225,-10.4400,5.4500,0.3800,11.7831,0.0796,0.0305,-0.0742,57.88,91.38,230.88,-7.8071,5.5516,0.0010,9.5797
39,3,0,0,0,07.355,7355,-7.4000,4.1900,0.8300,8.5443,0.0458,0.0633,0.1625,57.69,90.44,230.94,-7.7534,5.3721,0.1102,9.4333
39,3,0,0,0,07.486,7486,-8.0300,5.4600,-0.5600,9.7266,-0.0665,0.0327,0.3294,56.06,89.81,232.31,-7.7899,5.3837,0.0219,9.4693
39,3,0,0,0,07.617,7617,-7.5500,5.2200,0.5100,9.1930,0.0240,0.0153,0.3720,53.44,89.63,234.81,-7.7583,5.3621,0.0862,9.4314
39,3,0,0,0,07.747,7747,-7.1600,6.0100,0.1600,9.3494,-0.0305,-0.0044,0.1625,51.38,89.75,236.69,-7.6794,5.4475,0.0959,9.4158
39,3,0,0,0,07.920,7920,-7.1000,6.0100,-0.1800,9.3039,-0.0600,-0.0611,-0.2160,51.50,90.38,236.56,-7.6031,5.5216,0.0596,9.3967
39,3,0,0,0,08.050,8050,-7.0300,4.6500,0.0900,8.4292,-0.0033,-0.0611,-0.3992,53.88,91.25,234.38,-7.5276,5.4068,0.0636,9.2683
39,3,0,0,0,08.181,8181,-4.7800,3.2600,0.2500,5.7912,-0.0545,-0.0829,-0.2160,56.25,91.69,232.06,-7.1655,5.1239,0.0882,8.8094
39,3,0,0,0,08.311,8311,-7.6300,4.8100,-0.7100,9.0475,-0.0960,-0.0393,-0.1254,57.69,92.44,230.81,-7.2267,5.0825,-0.0170,8.8350
39,3,0,0,0,08.442,8442,-8.8300,4.8900,0.4900,10.1055,-0.0305,-0.0022,0.3196,56.63,92.25,232.06,-7.4380,5.0572,0.0498,8.9945
39,3,0,0,0,08.572,8572,-8.0900,5.5000,0.0600,9.7827,0.1473,0.0142,0.4396,53.56,91.63,235.19,-7.5239,5.1155,0.0511,9.0984
39,3,0,0,0,08.703,8703,-7.4200,7.4300,-1.1400,10.5622,-0.1200,0.0251,0.4461,50.25,91.13,238.44,-7.5102,5.4205,-0.1058,9.2626
39,3,0,0,0,08.834,8834,-9.4800,7.9100,1.0300,12.3895,0.0327,0.0076,0.1996,47.94,91.00,240.81,-7.7698,5.7486,0.0438,9.6653
39,3,0,0,0,09.010,9010,-10.4200,9.5700,0.0700,14.1480,0.0971,0.0404,-0.1342,47.81,91.19,240.88,-8.1190,6.2521,0.0473,10.2474
39,3,0,0,0,09.141,9141,-7.6700,7.9100,-0.5700,11.0328,0.0938,0.0131,-0.2313,49.38,91.00,239.38,-8.0598,6.4706,-0.0340,10.3359
39,4,0,0,0,09.272,9272,-6.8100,5.2900,0.5000,8.6377,-0.0840,-0.0131,-0.2051,50.94,91.00,237.75,-7.8951,6.3150,0.0363,10.1101
39,4,0,0,0,09.402,9402,-7.6700,4.8400,0.6400,9.0920,0.0229,-0.0305,-0.2367,52.38,91.19,236.44,-7.8655,6.1206,0.1159,9.9670
39,4,0,0,0,09.533,9533,-7.7300,5.5800,-0.4000,9.5420,-0.0175,-0.0371,-0.1222,53.69,91.81,235.13,-7.8476,6.0494,0.0479,9.9087
39,4,0,0,0,09.663,9663,-6.5900,4.4100,-0.2800,7.9344,-0.0207,0.0120,-0.1353,54.44,91.94,234.31,-7.6819,5.8334,0.0047,9.6457
39,4,0,0,0,09.793,9793,-3.6300,2.4100,0.2700,4.3655,-0.0153,-0.0087,0.0818,54.63,91.75,233.94,-7.1480,5.3823,0.0396,8.9478
39,4,0,0,0,09.924,9924,-10.2300,6.9100,-0.4100,12.3519,-0.0480,-0.0360,0.2193,53.63,92.69,234.63,-7.5541,5.5836,-0.0196,9.3937
39,4,0,0,0,10.096,10096,-6.3100,5.8500,-0.3200,8.6105,-0.0687,0.0175,0.3382,50.75,92.25,237.38,-7.3902,5.6187,-0.0592,9.2837
39,4,0,0,0,10.227,10227,-7.8400,6.8000,-0.0200,10.3782,0.0044,0.0175,0.1156,48.75,92.25,239.19,-7.4494,5.7744,-0.0540,9.4255
39,4,0,0,0,10.358,10358,-6.3000,5.8200,-0.2000,8.5792,0.0229,0.0164,-0.2225,49.19,92.06,238.63,-7.2980,5.7804,-0.0733,9.3101
39,4,0,0,0,10.489,10489,-7.9000,6.3400,-0.4200,10.1381,-0.0676,0.0055,-0.5040,52.06,92.31,235.63,-7.3773,5.8541,-0.1190,9.4186
39,4,0,0,0,10.619,10619,-7.4500,4.6600,0.1200,8.7882,0.0382,0.0065,-0.4276,55.56,92.38,232.13,-7.3869,5.6968,-0.0875,9.3288
39,4,0,0,0,10.750,10750,-5.9700,3.0800,0.3700,6.7279,0.0458,0.0316,-0.1429,57.69,92.25,230.06,-7.2002,5.3519,-0.0272,8.9714
39,4,0,0,0,10.880,10880,-5.3900,3.7800,-0.3500,6.5926,-0.0644,0.0131,0.0851,57.88,92.00,229.88,-6.9616,5.1448,-0.0697,8.6567
39,4,0,0,0,11.014,11014,-7.3500,4.3000,0.2600,8.5194,0.0611,-0.0142,0.2018,56.75,91.94,231.06,-7.0128,5.0335,-0.0263,8.6323
39,4,0,0,0,11.188,11188,-8.5500,6.0800,-0.3900,10.4986,0.0087,0.0164,0.2236,54.31,91.31,233.44,-7.2154,5.1714,-0.0742,8.8775
39,4,0,0,0,11.318,11318,-7.9900,6.2100,0.2600,10.1228,0.0295,0.0295,0.1451,53.00,90.81,234.75,-7.3175,5.3082,-0.0302,9.0401
39,4,0,0,0,11.449,11449,-9.5100,7.6600,0.0900,12.2116,-0.0185,-0.0240,0.0338,52.50,90.69,235.25,-7.6064,5.6181,-0.0143,9.4562
39,4,0,0,0,11.579,11579,-12.5200,9.2200,-0.1500,15.5493,-0.0251,-0.0382,0.0262,52.38,91.25,235.31,-8.2539,6.0928,-0.0322,10.2591
39,4,0,0,0,11.710,11710,-9.1600,7.4700,0.0000,11.8198,-0.0055,-0.0120,0.0371,52.19,91.38,235.44,-8.3733,6.2743,-0.0280,10.4632
39,5,0,0,0,11.840,11840,-7.7200,5.9600,0.2000,9.7550,-0.0480,-0.0240,0.1385,51.81,91.75,235.88,-8.2872,6.2328,0.0021,10.3695
39,5,0,0,0,11.971,11971,-7.3500,6.2600,-0.1100,9.6552,-0.0087,-0.0295,0.2683,50.13,92.06,237.50,-8.1637,6.2364,-0.0127,10.2732
39,5,0,0,0,12.101,12101,-7.1900,6.7900,0.0700,9.8896,-0.1025,-0.0513,0.1069,48.69,92.50,238.81,-8.0354,6.3094,-0.0018,10.2164
39,5,0,0,0,12.274,12274,-7.1800,6.2700,-0.0300,9.5324,-0.0240,-0.0567,-0.2782,49.69,93.38,238.00,-7.9227,6.3042,-0.0055,10.1248
39,5,0,0,0,12.405,12405,-5.8700,4.4000,-0.3900,7.3464,0.0109,-0.0425,-0.4909,52.69,94.19,235.06,-7.6522,6.0533,-0.0562,9.7571
39,5,0,0,0,12.535,12535,-4.3500,2.5600,-0.1200,5.0488,-0.0818,-0.0273,-0.5858,57.00,95.00,230.81,-7.2170,5.5929,-0.0646,9.1308
39,5,0,0,0,12.666,12666,-9.5700,4.5300,-0.1100,10.5886,0.0316,-0.0218,-0.4516,60.63,96.50,227.06,-7.5271,5.4529,-0.0706,9.2949
39,5,0,0,0,12.797,12797,-8.3200,3.7700,-0.3100,9.1396,0.0316,0.0796,-0.1734,62.69,96.13,224.94,-7.6316,5.2311,-0.1021,9.2529
39,5,0,0,0,12.927,12927,-9.1800,4.6100,-0.4400,10.2819,-0.0360,0.0600,-0.0415,63.13,95.25,224.38,-7.8356,5.1493,-0.1466,9.3773
39,5,0,0,0,13.058,13058,-8.5800,3.8300,0.3200,9.4015,0.0633,0.1014,0.0251,63.19,93.69,224.25,-7.9337,4.9754,-0.0852,9.3651
39,5,0,0,0,13.188,13188,-8.1400,4.2700,-0.2100,9.1944,0.0087,0.0654,0.1527,62.56,92.31,224.63,-7.9609,4.8825,-0.1016,9.3394
39,5,0,0,0,13.361,13361,-7.9400,4.5300,-0.1300,9.1423,-0.0349,0.0196,0.1724,60.81,91.50,226.19,-7.9581,4.8360,-0.1053,9.3129
39,5,0,0,0,13.495,13495,-6.5900,3.6400,0.1700,7.5304,-0.0098,0.0109,0.1309,59.75,91.19,227.13,-7.7779,4.6784,-0.0691,9.0767
39,5,0,0,0,13.626,13626,-6.7500,3.6600,0.0700,7.6787,0.0055,-0.0065,-0.0065,59.19,91.13,227.56,-7.6424,4.5442,-0.0507,8.8915
39,5,0,0,0,13.756,13756,-7.7200,4.0900,0.2500,8.7401,0.0022,0.0404,-0.0011,59.13,90.94,227.50,-7.6526,4.4844,-0.0111,8.8697
39,5,0,0,0,13.887,13887,-7.9700,4.9700,0.0600,9.3928,0.0480,0.0076,0.1800,58.63,90.94,227.94,-7.6945,4.5484,-0.0017,8.9382
39,5,0,0,0,14.018,14018,-8.3000,5.8200,-0.7200,10.1627,-0.0033,0.0469,0.2651,57.13,90.75,229.38,-7.7743,4.7159,-0.0964,9.0933
39,5,0,0,0,14.149,14149,-7.9700,5.6300,0.5200,9.7718,-0.0185,0.0076,0.4112,54.38,90.56,232.13,-7.8000,4.8364,-0.0152,9.1778
39,5,0,0,0,14.279,14279,-10.1800,7.2600,0.4300,12.5110,0.0894,-0.0556,0.2585,51.94,90.81,234.69,-8.1137,5.1557,0.0435,9.6133
39,5,0,0,0,14.452,14452,-12.0300,8.9900,0.5000,15.0263,0.0676,-0.0295,-0.0404,51.06,91.81,235.69,-8.6297,5.6610,0.1037,10.3213
39,5,0,0,0,14.582,14582,-8.1300,7.0900,-0.0600,10.7874,0.0425,-0.0218,-0.0109,51.25,91.88,235.81,-8.5639,5.8493,0.0821,10.3712
39,6,0,0,0,14.713,14713,-6.5300,5.5700,0.2000,8.5852,-0.0665,-0.0338,-0.0415,51.38,92.06,235.81,-8.2959,5.8125,0.0976,10.1300
39,6,0,0,0,14.843,14843,-7.1300,5.5300,0.2100,9.0256,0.0327,-0.0535,-0.1091,51.94,92.25,235.38,-8.1422,5.7753,0.1124,9.9831
39,6,0,0,0,14.974,14974,-8.0500,6.1300,-0.3100,10.1230,-0.0142,-0.0295,-0.2683,53.19,92.75,234.25,-8.1301,5.8220,0.0568,9.9999
39,6,0,0,0,15.104,15104,-7.0200,4.5300,-0.2200,8.3576,-0.0044,-0.0120,-0.3087,55.19,93.00,232.38,-7.9838,5.6518,0.0203,9.7818
39,6,0,0,0,15.234,15234,-4.3500,2.1100,0.1200,4.8362,0.0055,-0.0109,-0.2596,57.44,93.00,230.19,-7.5050,5.1851,0.0334,9.1220
39,6,0,0,0,15.364,15364,-9.3600,5.3800,-0.0600,10.7962,0.0120,-0.0556,-0.0676,58.38,93.88,229.19,-7.7494,5.2107,0.0211,9.3384
39,6,0,0,0,15.541,15541,-7.5100,4.7200,-0.6000,8.8904,-0.0175,0.0469,-0.0273,58.69,93.31,228.81,-7.7179,5.1461,-0.0607,9.2764
39,6,0,0,0,15.671,15671,-8.4900,4.7000,-0.3100,9.7091,-0.0665,-0.0033,-0.1331,59.31,93.25,228.13,-7.8196,5.0873,-0.0936,9.3293
39,6,0,0,0,15.804,15804,-8.2600,3.7000,0.6200,9.0720,-0.0371,0.0316,-0.1484,60.56,93.06,226.88,-7.8776,4.9045,0.0005,9.2796
39,6,0,0,0,15.935,15935,-8.3700,4.7700,-0.3000,9.6385,0.0425,0.0273,0.0109,61.06,92.56,226.25,-7.9425,4.8868,-0.0391,9.3255
39,6,0,0,0,16.065,16065,-8.3100,4.7300,-0.1500,9.5630,-0.0207,0.0196,0.1669,60.38,92.19,226.81,-7.9909,4.8661,-0.0537,9.3561
39,6,0,0,0,16.196,16196,-8.0600,4.5000,0.3700,9.2385,-0.0196,0.0229,0.1953,59.06,91.31,228.06,-8.0000,4.8179,0.0021,9.3388
39,6,0,0,0,16.326,16326,-6.2300,3.4300,0.3200,7.1190,0.0665,0.0360,0.0698,58.06,90.75,229.06,-7.7668,4.6350,0.0440,9.0448
39,6,0,0,0,16.457,16457,-5.9700,3.2500,-0.1400,6.7987,-0.0033,0.0185,-0.0676,58.06,90.63,229.06,-7.5300,4.4525,0.0197,8.7479
39,6,0,0,0,16.629,16629,-8.9900,4.5600,0.3900,10.0879,0.0916,-0.0273,-0.0829,58.75,90.94,228.38,-7.7224,4.4666,0.0685,8.9214
39,6,0,0,0,16.759,16759,-7.8600,4.8800,0.0900,9.2521,-0.0142,0.0044,0.0698,58.69,90.75,228.44,-7.7405,4.5211,0.0714,8.9645
39,6,0,0,0,16.889,16889,-7.7900,4.9300,0.1900,9.2209,-0.0022,0.0087,0.3632,57.00,90.56,230.25,-7.7471,4.5750,0.0870,8.9975
39,6,0,0,0,17.019,17019,-7.8900,6.1400,0.0300,9.9976,-0.0349,-0.0218,0.4625,53.88,90.56,233.31,-7.7659,4.7812,0.0795,9.1201
39,6,0,0,0,17.149,17149,-11.0500,8.6700,-0.4600,14.0529,-0.0513,-0.0404,0.2345,51.31,91.19,235.81,-8.1987,5.2937,0.0084,9.7591
39,6,0,0,0,17.279,17279,-12.0800,9.1800,0.1400,15.1729,0.0022,0.0044,0.0022,50.63,91.75,236.50,-8.7101,5.8058,0.0257,10.4678
39,6,0,0,0,17.410,17410,-7.9600,7.3400,-0.3000,10.8318,-0.0175,-0.0022,-0.0218,50.56,91.81,236.44,-8.6113,6.0080,-0.0172,10.5000
39,7,0,0,0,17.540,17540,-6.6000,5.8000,0.0400,8.7864,-0.0284,-0.0033,-0.0458,50.88,91.88,236.13,-8.3462,5.9806,-0.0097,10.2678
39,7,0,0,0,17.713,17713,-7.3700,5.7400,0.1100,9.3422,-0.0011,-0.0131,-0.0982,51.44,92.00,235.50,-8.2176,5.9489,0.0061,10.1448
39,7,0,0,0,17.843,17843,-7.9800,5.9700,-0.0600,9.9662,0.0098,-0.0076,-0.2203,52.75,92.06,234.31,-8.1863,5.9516,-0.0026,10.1211
39,7,0,0,0,17.973,17973,-6.5800,4.5000,0.0000,7.9716,0.0295,0.0044,-0.3469,54.88,92.06,232.31,-7.9746,5.7603,-0.0023,9.8375
39,7,0,0,0,18.103,18103,-4.4300,2.6100,0.0600,5.1420,-0.0055,0.0087,-0.2345,57.13,91.75,230.13,-7.5075,5.3452,0.0059,9.2160
39,7,0,0,0,18.233,18233,-9.3900,5.0000,0.3700,10.6447,0.0055,-0.0229,-0.0316,58.00,92.31,229.25,-7.7556,5.2997,0.0539,9.3936
39,7,0,0,0,18.363,18363,-7.3900,4.8200,-0.2000,8.8252,0.0229,0.0524,0.1374,57.44,91.56,229.75,-7.7074,5.2365,0.0205,9.3180
39,7,0,0,0,18.494,18494,-7.8600,5.5000,-0.1800,9.5949,-0.0469,0.0033,0.0589,56.63,91.25,230.56,-7.7275,5.2712,-0.0060,9.3542
39,7,0,0,0,18.624,18624,-7.7600,5.1900,-0.3400,9.3418,-0.0120,0.0109,-0.1254,56.94,91.19,230.25,-7.7318,5.2605,-0.0500,9.3518
39,7,0,0,0,18.797,18797,-8.5300,5.1800,-0.2700,9.9833,0.0044,-0.0251,-0.2280,58.94,91.75,228.25,-7.8370,5.2499,-0.0790,9.4332
39,7,0,0,0,18.928,18928,-8.1300,4.6300,-0.0800,9.3563,-0.0556,-0.0185,-0.1276,60.38,91.94,226.81,-7.8756,5.1682,-0.0791,9.4203
39,7,0,0,0,19.058,19058,-8.4100,4.3000,0.3000,9.4503,0.0524,-0.0196,0.0545,60.75,91.88,226.50,-7.9460,5.0538,-0.0291,9.4171
39,7,0,0,0,19.188,19188,-6.4000,3.2500,0.0000,7.1779,0.0316,0.0305,0.0982,60.13,91.56,227.19,-7.7423,4.8161,-0.0253,9.1180
39,7,0,0,0,19.318,19318,-5.5600,2.8400,-0.0300,6.2434,-0.0087,0.0065,0.1614,59.38,91.38,228.06,-7.4547,4.5557,-0.0259,8.7366
39,7,0,0,0,19.448,19448,-7.6100,4.5800,0.0400,8.8820,-0.0284,-0.0262,0.2454,58.06,91.56,229.44,-7.4752,4.5589,-0.0172,8.7557
39,7,0,0,0,19.578,19578,-8.6800,4.9800,0.6300,10.0269,0.0415,-0.0087,0.3087,56.00,91.50,231.56,-7.6339,4.6144,0.0681,8.9205
39,7,0,0,0,19.708,19708,-8.2800,6.1400,-0.0200,10.3082,0.0098,-0.0087,0.2683,53.69,91.44,233.81,-7.7191,4.8154,0.0564,9.0981
39,7,0,0,0,19.881,19881,-7.8300,6.5500,-0.0900,10.2088,-0.0360,-0.0218,0.1200,51.69,91.44,235.75,-7.7337,5.0440,0.0372,9.2333
39,7,0,0,0,20.011,20011,-11.5400,8.9400,-0.5000,14.6063,-0.0807,-0.0305,-0.1200,51.69,92.13,235.63,-8.2353,5.5574,-0.0336,9.9351
39,7,0,0,0,20.141,20141,-11.5300,8.0100,0.0500,14.0394,0.0480,0.0273,-0.1963,52.81,92.50,234.38,-8.6694,5.8806,-0.0226,10.4757
39,8,0,0,0,20.271,20271,-8.3200,5.8800,-0.0800,10.1884,-0.0251,0.0327,-0.1549,54.19,92.31,232.81,-8.6234,5.8805,-0.0302,10.4376
39,8,0,0,0,20.401,20401,-7.7100,5.8500,-0.0600,9.6783,-0.0218,0.0175,0.0502,54.56,92.13,232.25,-8.5030,5.8765,-0.0341,10.3361
39,8,0,0,0,20.531,20531,-7.3600,5.7400,-0.2400,9.3367,0.0218,0.0349,0.2073,53.38,91.69,233.38,-8.3524,5.8585,-0.0612,10.2024
39,8,0,0,0,20.661,20661,-7.8100,6.5800,-0.1400,10.2133,0.0044,0.0229,0.1953,51.75,91.19,234.94,-8.2809,5.9536,-0.0716,10.1992
39,8,0,0,0,20.791,20791,-7.9500,6.5200,0.3700,10.2883,0.0044,0.0295,-0.0011,51.00,90.75,235.69,-8.2373,6.0282,-0.0134,10.2075
39,8,0,0,0,20.964,20964,-4.9400,3.2300,0.6600,5.9390,0.0927,0.0415,-0.2738,52.38,89.88,234.44,-7.8028,5.6595,0.0753,9.6395
39,8,0,0,0,21.094,21094,-4.5700,3.4200,0.3700,5.7200,-0.0251,-0.0458,-0.1963,54.13,89.75,232.75,-7.3768,5.3644,0.1141,9.1218
39,8,0,0,0,21.224,21224,-9.8300,6.1100,-0.1600,11.5753,-0.0338,-0.0076,-0.1593,55.44,90.56,231.44,-7.7001,5.4626,0.0780,9.4413
39,8,0,0,0,21.354,21354,-7.1100,4.1300,0.2600,8.2266,0.0622,0.0000,-0.2182,56.88,90.38,230.00,-7.6223,5.2870,0.1020,9.2770
39,8,0,0,0,21.484,21484,-8.4400,5.3100,-0.3600,9.9779,-0.0644,-0.0262,-0.1462,58.31,90.94,228.44,-7.7301,5.2901,0.0411,9.3670
39,8,0,0,0,21.614,21614,-8.1000,4.2800,0.2700,9.1652,-0.0513,-0.0316,0.0360,58.94,91.50,227.88,-7.7788,5.1570,0.0713,9.3332
39,8,0,0,0,21.745,21745,-8.3500,4.7800,0.3900,9.6293,0.0284,-0.0622,0.2062,57.63,92.13,229.13,-7.8541,5.1073,0.1133,9.3693
39,8,0,0,0,21.875,21875,-7.6900,5.8500,-0.4800,9.6741,-0.0196,-0.0327,0.2422,55.63,92.63,231.13,-7.8325,5.2052,0.0351,9.4044
39,8,0,0,0,22.048,22048,-7.8500,5.8100,-0.4900,9.7785,-0.0720,-0.0142,-0.1025,55.06,92.88,231.81,-7.8348,5.2849,-0.0341,9.4506
39,8,0,0,0,22.178,22178,-7.5900,4.3700,0.2000,8.7604,0.0862,0.0349,-0.2858,56.69,92.56,230.31,-7.8025,5.1643,-0.0032,9.3568
39,8,0,0,0,22.308,22308,-4.5600,2.7200,0.1200,5.3110,0.0469,0.0295,-0.2302,58.63,91.81,228.50,-7.3752,4.8422,0.0130,8.8228
39,8,0,0,0,22.438,22438,-6.7000,4.2300,-0.1300,7.9246,-0.0338,-0.0076,-0.0600,59.63,91.50,227.63,-7.2863,4.7615,-0.0058,8.7041
39,8,0,0,0,22.568,22568,-9.5400,5.0100,0.2500,10.7784,0.1418,0.0502,0.2334,58.75,91.06,228.63,-7.5832,4.7943,0.0279,8.9717
39,8,0,0,0,22.698,22698,-7.6100,4.8800,0.1800,9.0421,0.0098,0.0469,0.3971,56.19,90.13,231.25,-7.5868,4.8056,0.0479,8.9808
39,8,0,0,0,22.829,22829,-7.4100,5.7300,0.1900,9.3689,0.0393,0.0284,0.3502,53.38,89.63,234.06,-7.5635,4.9274,0.0666,9.0272
39,8,0,0,0,22.959,22959,-9.5900,7.7200,0.0400,12.3113,-0.0589,-0.0218,0.1658,51.50,89.69,235.88,-7.8305,5.2954,0.0631,9.4532
39,8,0,0,0,23.132,23132,-11.8300,9.0600,0.4000,14.9061,-0.0284,0.0000,-0.2051,51.88,90.50,235.38,-8.3576,5.7915,0.1075,10.1686
39,8,0,0,0,23.262,23262,-8.0000,6.3500,-0.0900,10.2142,-0.0131,0.0022,-0.1680,53.50,90.63,233.50,-8.3104,5.8651,0.0815,10.1720
39,9,0,0,0,23.392,23392,-7.1200,5.2100,0.1100,8.8233,-0.0404,-0.0262,0.0960,53.63,90.94,233.25,-8.1536,5.7787,0.0852,9.9941
39,9,0,0,0,23.522,23522,-7.1700,5.6100,-0.1600,9.1053,-0.0862,-0.0491,0.1582,52.44,91.50,234.31,-8.0240,5.7565,0.0529,9.8754
39,9,0,0,0,23.652,23652,-8.1500,6.0800,-0.1900,10.1698,-0.1004,-0.0513,0.0098,51.75,92.38,234.88,-8.0406,5.7991,0.0209,9.9137
39,9,0,0,0,23.782,23782,-8.0200,5.6300,0.1900,9.8007,-0.0044,-0.0055,-0.1309,52.38,92.94,234.06,-8.0379,5.7768,0.0432,9.8985
39,9,0,0,0,23.912,23912,-6.4600,5.1200,-0.2900,8.2480,-0.0142,0.0273,-0.1669,53.50,93.13,232.75,-7.8299,5.6903,-0.0007,9.6792
39,9,0,0,0,24.042,24042,-4.1900,3.0500,0.2000,5.1864,-0.0436,0.0120,-0.1091,54.63,92.88,231.44,-7.3503,5.3424,0.0257,9.0867
39,9,0,0,0,24.215,24215,-9.2400,5.6600,-0.0200,10.8358,0.0404,0.0491,-0.0938,55.56,93.25,230.25,-7.5993,5.3842,0.0197,9.3134
39,9,0,0,0,24.345,24345,-6.9800,5.1700,-0.2200,8.6889,-0.0175,0.0371,-0.1451,56.38,92.69,229.31,-7.5177,5.3560,-0.0119,9.2305
39,9,0,0,0,24.475,24475,-8.4600,5.4700,-0.1600,10.0756,-0.0022,0.0218,-0.2040,57.56,92.44,228.06,-7.6419,5.3710,-0.0314,9.3406
39,9,0,0,0,24.605,24605,-7.8300,4.4800,0.1600,9.0225,0.0491,0.0065,-0.2094,59.13,92.13,226.56,-7.6667,5.2536,-0.0062,9.2940
39,9,0,0,0,24.735,24735,-8.5000,4.8500,-0.2200,9.7888,-0.0120,-0.0196,-0.1407,60.44,91.94,225.31,-7.7765,5.2004,-0.0344,9.3552
39,9,0,0,0,24.866,24866,-8.1200,4.4000,0.0600,9.2357,0.0295,-0.0120,0.0731,60.75,91.88,225.25,-7.8217,5.0949,-0.0219,9.3348
39,9,0,0,0,24.996,24996,-8.1800,4.4800,0.1200,9.3272,0.0469,0.0022,0.2160,59.56,91.56,226.56,-7.8689,5.0139,-0.0032,9.3306
39,9,0,0,0,25.126,25126,-5.9100,3.2400,0.1800,6.7423,0.0109,0.0142,0.1014,58.63,90.88,227.75,-7.6108,4.7802,0.0209,8.9875
39,9,0,0,0,25.299,25299,-5.8600,3.7000,0.3500,6.9392,0.0044,-0.0065,0.1571,58.00,90.44,228.63,-7.3801,4.6378,0.0643,8.7166
39,9,0,0,0,25.429,25429,-8.1900,5.4600,0.0000,9.8432,0.0011,-0.0338,0.2814,56.44,90.63,230.25,-7.4868,4.7462,0.0558,8.8646
39,9,0,0,0,25.559,25559,-7.7000,5.4500,0.0700,9.4338,0.0262,0.0055,0.2825,54.31,90.50,232.56,-7.5149,4.8389,0.0577,8.9382
39,9,0,0,0,25.689,25689,-7.1700,5.2000,0.2900,8.8619,0.0109,0.0055,0.1854,52.56,90.50,234.38,-7.4695,4.8865,0.0883,8.9263
39,9,0,0,0,25.819,25819,-7.5500,6.7600,-0.3500,10.1401,-0.0578,-0.0295,0.1374,51.38,90.69,235.56,-7.4801,5.1334,0.0305,9.0722
39,9,0,0,0,25.949,25949,-10.9000,8.3500,0.2800,13.7336,-0.0033,-0.0349,-0.0600,51.06,91.13,235.94,-7.9307,5.5572,0.0634,9.6842
39,9,0,0,0,26.080,26080,-12.4600,9.5300,-0.3600,15.6908,0.0065,0.0415,-0.2945,52.38,91.50,234.50,-8.5276,6.0807,0.0076,10.4735
39,9,0,0,0,26.210,26210,-8.3200,6.5800,-0.3100,10.6120,-0.0415,0.0131,-0.2127,54.31,91.19,232.50,-8.5002,6.1465,-0.0342,10.4898
39,10,0,0,0,26.383,26383,-7.4700,5.6400,0.0100,9.3601,0.0033,-0.0022,0.1778,54.31,91.25,232.50,-8.3645,6.0798,-0.0284,10.3406
39,10,0,0,0,26.514,26514,-7.7000,6.0300,0.0400,9.7802,-0.0207,0.0011,0.2629,52.56,91.25,234.19,-8.2769,6.0732,-0.0194,10.2660
39,10,0,0,0,26.645,26645,-7.9600,6.5900,0.0900,10.3343,-0.0065,0.0175,0.1800,50.88,91.13,235.94,-8.2351,6.1413,-0.0050,10.2730
39,10,0,0,0,26.775,26775,-7.2200,4.8000,0.4900,8.6838,0.0785,0.0502,-0.0458,50.50,90.50,236.31,-8.1014,5.9646,0.0602,10.0604
39,10,0,0,0,26.906,26906,-4.4500,3.5200,0.0600,5.6742,-0.0404,0.0164,-0.2629,51.81,90.00,235.00,-7.6202,5.6424,0.0602,9.4820
39,10,0,0,0,27.036,27036,-6.6900,4.9600,0.2300,8.3313,-0.0611,-0.0556,-0.3043,53.81,90.31,233.00,-7.4976,5.5525,0.0826,9.3302
39,10,0,0,0,27.170,27170,-8.2500,5.2500,-0.0600,9.7790,0.0458,-0.0120,-0.2291,55.69,90.81,231.13,-7.5968,5.5126,0.0638,9.3864
39,10,0,0,0,27.301,27301,-7.8500,5.1100,-0.2100,9.3690,-0.0556,-0.0382,-0.2247,57.13,91.25,229.69,-7.6301,5.4596,0.0277,9.3823
39,10,0,0,0,27.474,27474,-8.3900,4.9100,0.1500,9.7223,-0.0404,-0.0196,-0.1854,59.00,91.94,227.75,-7.7303,5.3872,0.0438,9.4224
39,10,0,0,0,27.605,27605,-8.5400,4.5500,0.2400,9.6794,0.0218,-0.0120,-0.1004,60.13,92.00,226.75,-7.8370,5.2769,0.0697,9.4482
39,10,0,0,0,27.735,27735,-8.4800,4.8900,-0.2200,9.7914,0.0218,0.0175,0.0884,60.25,91.75,226.63,-7.9217,5.2259,0.0315,9.4902
39,10,0,0,0,27.866,27866,-7.1900,4.2400,-0.2300,8.3502,-0.0011,0.0349,0.0905,59.50,91.13,227.38,-7.8253,5.0960,-0.0030,9.3383
39,10,0,0,0,27.996,27996,-5.3700,2.9800,0.3300,6.1503,0.0022,-0.0076,0.0774,58.88,90.50,228.00,-7.5017,4.8171,0.0409,8.9153
39,10,0,0,0,28.127,28127,-7.4500,4.1600,0.1400,8.5339,0.0415,0.0087,0.1691,58.00,90.44,228.81,-7.4949,4.7305,0.0540,8.8631
39,10,0,0,0,28.257,28257,-7.7700,5.6800,-0.4500,9.6352,-0.0578,0.0415,0.3851,55.81,90.25,230.94,-7.5312,4.8557,-0.0124,8.9608
39,10,0,0,0,28.388,28388,-6.9600,5.2400,0.3100,8.7175,-0.0305,-0.0251,0.3611,53.00,90.06,233.75,-7.4559,4.9063,0.0301,8.9254
39,10,0,0,0,28.560,28560,-6.3100,4.6000,1.1800,7.8974,0.1538,0.0153,0.2923,50.25,90.13,236.50,-7.3049,4.8659,0.1816,8.7791
39,10,0,0,0,28.690,28690,-6.9000,8.5200,-1.0200,11.0109,-0.2182,-0.0327,0.2247,48.88,90.69,237.69,-7.2516,5.3474,0.0233,9.0100
39,10,0,0,0,28.820,28820,-11.4700,8.7400,0.7900,14.4420,0.0153,-0.0436,-0.0371,48.44,91.19,238.13,-7.8074,5.7945,0.1243,9.7236
39,10,0,0,0,28.950,28950,-10.3600,9.2100,-1.2800,13.9209,-0.1080,0.0164,-0.3000,49.88,91.81,236.50,-8.1438,6.2446,-0.0608,10.2625
39,10,0,0,0,29.080,29080,-7.9200,5.3100,1.1300,9.6021,0.1887,-0.0109,-0.1985,51.81,92.19,234.38,-8.1143,6.1214,0.0962,10.1648
39,10,0,0,0,29.210,29210,-6.9200,7.1000,-0.9800,9.9628,-0.1505,0.0033,0.1265,51.88,92.56,233.94,-7.9569,6.2504,-0.0457,10.1184
39,10,0,0,0,29.341,29341,-6.7900,5.0500,0.8200,8.5017,-0.0120,0.0098,0.1985,50.63,92.25,235.19,-7.8032,6.0922,0.0684,9.8999
39,10,0,0,0,29.471,29471,-7.2600,5.8600,0.7200,9.3576,0.0916,-0.0098,0.0774,49.69,92.31,236.06,-7.7316,6.0616,0.1543,9.8257
39,10,0,0,0,29.644,29644,-8.4300,6.2800,0.2400,10.5148,-0.0327,-0.0196,-0.1702,50.38,92.63,235.44,-7.8236,6.0904,0.1656,9.9161
39,10,0,0,0,29.775,29775,-4.6100,4.5500,-0.4800,6.4950,-0.0011,0.0524,-0.3043,52.38,92.69,233.44,-7.4001,5.8874,0.0805,9.4567
39,10,0,0,0,29.906,29906,-3.8000,2.6300,0.4500,4.6432,-0.0447,-0.0415,-0.1625,54.31,92.69,231.63,-6.9257,5.4582,0.1292,8.8190
39,10,0,0,0,30.036,30036,-10.5700,6.8200,-0.7800,12.6034,0.0415,0.0120,0.0262,54.75,93.63,231.13,-7.4060,5.6376,0.0094,9.3076
39,10,0,0,0,30.169,30169,-7.2100,4.6500,0.4900,8.5934,0.0109,0.0185,-0.0011,54.69,93.00,231.31,-7.3801,5.5075,0.0727,9.2089
39,10,0,0,0,30.304,30304,-8.5700,5.1600,0.4100,10.0119,0.0273,0.0044,-0.0338,54.88,93.00,231.06,-7.5369,5.4617,0.1172,9.3085
39,10,0,0,0,30.434,30434,-7.6200,5.1100,0.1000,9.1753,0.0404,0.0305,0.0033,54.88,92.50,231.06,-7.5479,5.4153,0.1149,9.2903
39,10,0,0,0,30.565,30565,-8.5600,5.4500,-0.7600,10.1761,0.0033,0.0273,0.0185,54.75,91.88,231.06,-7.6812,5.4199,-0.0004,9.4009
39,10,0,0,0,30.738,30738,-7.1500,4.3200,-1.0900,8.4245,0.0098,0.0764,-0.0949,55.06,90.63,230.63,-7.6112,5.2750,-0.1440,9.2616
39,10,0,0,0,30.869,30869,-10.1600,6.1800,-0.2500,11.8946,-0.0447,0.0273,-0.0862,55.81,90.69,229.75,-7.9471,5.3942,-0.1579,9.6062
39,10,0,0,0,30.999,30999,-7.3600,5.1500,0.6700,9.0078,0.0000,-0.0295,0.0185,56.06,90.75,229.50,-7.8697,5.3620,-0.0488,9.5230
39,10,0,0,0,31.131,31131,-7.1100,5.7200,0.6000,9.1450,-0.0076,-0.0196,0.1953,55.25,91.38,230.31,-7.7696,5.4092,0.0367,9.4672
39,10,0,0,0,31.262,31262,-8.0700,6.3400,0.5200,10.2757,0.0142,-0.0229,0.3338,53.25,92.06,232.38,-7.8092,5.5319,0.1004,9.5705
39,10,0,0,0,31.397,31397,-8.1800,6.1000,0.1400,10.2050,0.0327,-0.0098,0.1625,51.25,92.38,234.56,-7.8581,5.6067,0.1056,9.6538
39,10,0,0,0,31.528,31528,-6.5600,5.2100,-0.1400,8.3784,0.0458,-0.0720,-0.2018,51.38,92.81,234.50,-7.6870,5.5545,0.0732,9.4841
39,10,0,0,0,31.659,31659,-7.5300,6.1000,-0.4000,9.6990,-0.0371,-0.0654,-0.2956,53.38,93.88,232.69,-7.6663,5.6263,0.0109,9.5094
