participant,rep,equipment_code,exercise_code,timestamp,timestamp_ms,accelX,accelY,accelZ,accelMag,gyroX,gyroY,gyroZ,roll,pitch,yaw,filteredX,filteredY,filteredZ,filteredMag
1,1,0,0,00.000,0,-3.5100,8.8500,1.0400,9.5773,0.0349,0.0164,0.4767,20.31,83.50,57.81,-2.5784,9.1839,0.8728,9.5789
1,1,0,0,00.120,120,-3.0000,9.1400,1.0100,9.6726,-0.0600,0.0949,0.0545,18.50,83.56,59.19,-2.6340,9.1782,0.8909,9.5901
1,1,0,0,00.241,241,-3.1600,9.2300,0.9700,9.8040,-0.0033,0.1047,-0.0218,18.69,83.63,58.31,-2.7033,9.1850,0.9013,9.6169
1,1,0,0,00.363,363,-2.8600,9.2000,1.0600,9.6924,0.0142,0.0175,0.1963,17.94,83.44,58.69,-2.7240,9.1870,0.9222,9.6266
1,1,0,0,00.526,526,-2.9000,9.4000,0.9200,9.8801,-0.0393,-0.0785,0.0502,16.88,83.81,60.00,-2.7472,9.2150,0.9219,9.6599
1,1,0,0,00.650,650,-2.8800,9.2700,1.0000,9.7584,0.0578,-0.0665,0.0480,16.50,83.81,61.00,-2.7647,9.2223,0.9322,9.6728
1,1,0,0,00.770,770,-2.9600,9.1600,1.0300,9.6813,-0.0305,-0.0513,-0.0578,16.50,83.81,61.38,-2.7904,9.2141,0.9451,9.6736
1,1,0,0,00.892,892,-3.0600,9.2400,0.9600,9.7807,-0.0284,0.0109,-0.0971,17.13,84.13,60.81,-2.8259,9.2175,0.9471,9.6874
1,1,0,0,01.013,1013,-3.1600,9.2000,1.0400,9.7830,-0.0327,0.0665,-0.0873,17.63,84.19,59.94,-2.8699,9.2152,0.9593,9.6993
1,1,0,0,01.134,1134,-3.5000,9.3400,1.1000,10.0347,-0.0011,0.0447,-0.3905,19.13,84.06,57.94,-2.9530,9.2316,0.9778,9.7416
1,1,0,0,01.255,1255,-4.8500,9.0800,1.1700,10.3604,0.1134,-0.0142,-0.9512,24.06,83.44,53.00,-3.2030,9.2117,1.0032,9.8041
1,1,0,0,01.375,1375,-5.9400,8.4600,1.1800,10.4042,0.1593,0.1200,-1.1956,31.13,81.75,46.38,-3.5636,9.1126,1.0265,9.8383
1,1,0,0,01.542,1542,-7.5200,7.3200,1.6100,10.6172,0.1614,0.3796,-1.5719,42.50,76.81,34.06,-4.0850,8.8764,1.1034,9.8333
1,1,0,0,01.663,1663,-8.2400,5.7600,2.2000,10.2915,0.2782,0.5694,-1.9068,53.63,67.00,20.69,-4.6325,8.4657,1.2479,9.7307
1,1,0,0,01.784,1784,-8.6700,4.2000,2.5600,9.9681,0.3316,0.2923,-1.9373,63.19,49.63,7.88,-5.1645,7.9036,1.4208,9.5477
1,1,0,0,01.905,1905,-9.1700,2.1600,2.5700,9.7652,0.5149,0.0807,-1.8730,69.94,21.44,358.00,-5.6924,7.1467,1.5722,9.2710
1,1,0,0,02.026,2026,-8.9900,-0.3100,2.7600,9.4092,0.4516,0.0851,-1.8806,69.94,-17.19,349.00,-6.1269,6.1641,1.7287,8.8614
1,1,0,0,02.147,2147,-7.9500,-2.1500,2.8000,8.6986,0.3872,0.1124,-1.8217,63.44,-42.81,339.94,-6.3671,5.0685,1.8699,8.3503
1,1,0,0,02.268,2268,-7.3000,-3.5000,2.7000,8.5340,0.4309,0.0862,-1.2337,54.56,-56.25,331.69,-6.4901,3.9394,1.9793,7.8459
1,1,0,0,02.394,2394,-6.2500,-6.1000,2.6300,9.1208,0.4800,-0.0862,-1.4955,47.38,-65.06,325.56,-6.4584,2.6165,2.0650,7.2679
1,1,0,0,02.557,2557,-4.2600,-7.6000,2.1400,8.9715,0.1538,-0.0796,-1.2294,34.56,-73.13,312.19,-6.1687,1.2702,2.0749,6.6311
1,1,0,0,02.677,2677,-3.7500,-7.0800,2.4300,8.3722,-0.1625,0.3676,0.0665,30.06,-72.88,308.13,-5.8500,0.1699,2.1217,6.2252
1,1,0,0,02.798,2798,-3.9100,-7.1700,2.4200,8.5178,-0.1189,0.6327,1.5686,35.00,-68.81,316.75,-5.5944,-0.7973,2.1610,6.0500
1,2,0,0,02.919,2919,-6.5100,-4.8400,2.5400,8.5004,-0.4974,0.4625,2.1457,45.56,-58.44,331.13,-5.7150,-1.3301,2.2110,6.2705
1,2,0,0,03.042,3042,-7.1000,-3.5500,3.2900,8.5928,-0.5400,-0.0458,1.8315,54.69,-44.31,342.69,-5.8975,-1.6226,2.3531,6.5537
1,2,0,0,03.164,3164,-8.5600,-0.2700,2.8000,9.0104,-0.6807,-0.4112,1.9231,63.19,-25.56,351.44,-6.2484,-1.4444,2.4120,6.8517
1,2,0,0,03.287,3287,-9.5900,1.9300,3.2500,10.3080,-0.5356,-0.4112,1.7988,68.50,9.38,2.63,-6.6887,-0.9997,2.5225,7.2181
1,2,0,0,03.409,3409,-10.1500,2.7400,3.0900,10.9580,-0.4723,-0.3011,1.4268,67.00,35.88,10.38,-7.1448,-0.5069,2.5972,7.6191
1,2,0,0,03.571,3571,-9.3700,4.8000,2.7800,10.8888,-0.3916,-0.0949,0.9785,58.81,58.81,20.38,-7.4380,0.1924,2.6213,7.8888
1,2,0,0,03.691,3691,-8.1900,4.7400,2.3600,9.7526,-0.3011,-0.0731,0.6752,54.69,65.38,24.06,-7.5371,0.7917,2.5869,8.0079
1,2,0,0,03.812,3812,-7.7200,5.8400,1.7700,9.8406,-0.2345,-0.2062,0.7374,50.81,70.25,28.13,-7.5612,1.4569,2.4792,8.0896
1,2,0,0,03.933,3933,-7.2700,6.4900,1.5300,9.8648,-0.2531,-0.2313,0.4658,47.44,75.19,31.94,-7.5229,2.1201,2.3542,8.1627
1,2,0,0,04.060,4060,-6.6900,6.8600,1.4800,9.6957,-0.2902,-0.0960,0.7538,44.06,78.63,35.31,-7.4131,2.7447,2.2390,8.2159
1,2,0,0,04.181,4181,-6.2200,7.8800,0.4400,10.0487,-0.3872,-0.0742,0.8465,37.63,82.63,40.81,-7.2559,3.4214,2.0019,8.2681
1,2,0,0,04.301,4301,-6.0600,7.5000,0.8500,9.6797,-0.3905,0.0251,0.5934,33.44,85.63,43.75,-7.0983,3.9589,1.8501,8.3356
1,2,0,0,04.422,4422,-5.8400,9.0300,0.0100,10.7539,-0.5356,0.1920,0.5443,29.69,88.88,44.88,-6.9325,4.6271,1.6076,8.4885
1,2,0,0,04.584,4584,-5.2900,8.4800,0.3300,10.0002,-0.3752,0.4036,-0.0262,27.13,90.13,42.75,-6.7160,5.1348,1.4393,8.5757
1,2,0,0,04.722,4722,-5.6700,9.2300,0.0000,10.8324,0.0055,0.3480,-0.5520,30.38,90.19,35.31,-6.5782,5.6745,1.2496,8.7769
1,2,0,0,04.843,4843,-5.9400,8.2600,0.7400,10.2009,0.5596,0.0491,-0.8705,35.31,86.56,30.44,-6.4941,6.0152,1.1825,8.9305
1,2,0,0,04.963,4963,-7.5700,7.3800,1.2800,10.6493,0.5727,-0.0600,-1.2250,42.56,82.50,25.69,-6.6359,6.1950,1.1953,9.1565
1,2,0,0,05.085,5085,-8.2200,6.6200,1.5900,10.6734,0.6665,0.3916,-1.2566,50.25,75.81,20.06,-6.8446,6.2510,1.2473,9.3531
1,2,0,0,05.205,5205,-8.7400,5.3300,2.2000,10.4707,0.5989,0.7090,-1.3035,57.19,61.94,12.00,-7.0944,6.1297,1.3729,9.4756
1,2,0,0,05.326,5326,-8.6400,3.8100,2.5800,9.7889,0.7221,0.5345,-1.5435,62.00,42.00,4.25,-7.2981,5.8240,1.5319,9.4619
1,2,0,0,05.447,5447,-8.1600,1.4300,2.8800,8.7707,0.7799,0.1756,-1.4737,64.94,17.44,357.50,-7.4116,5.2450,1.7096,9.2393
1,2,0,0,05.615,5615,-8.2800,-0.6300,3.1400,8.8778,0.4003,-0.0720,-1.4573,64.56,-17.25,347.25,-7.5261,4.4708,1.8981,8.9573
1,2,0,0,05.736,5736,-8.2700,-2.6600,3.2800,9.2858,0.2367,-0.2269,-1.4803,60.44,-38.63,337.69,-7.6241,3.5311,2.0802,8.6558
1,2,0,0,05.857,5857,-8.0600,-4.2900,3.2900,9.7052,0.2105,-0.3000,-1.6341,54.50,-53.31,328.00,-7.6815,2.5005,2.2396,8.3830
1,2,0,0,05.977,5977,-6.9500,-5.2800,3.0300,9.2391,0.1713,-0.0436,-1.5370,45.94,-62.38,317.44,-7.5851,1.4752,2.3438,8.0749
1,2,0,0,06.098,6098,-4.7000,-5.5200,2.6700,7.7259,0.3283,0.1560,-1.0428,37.94,-66.56,309.75,-7.2050,0.5534,2.3867,7.6101
1,2,0,0,06.220,6220,-3.2200,-7.1000,2.3300,8.1368,0.1854,0.1494,0.1724,35.00,-68.81,308.50,-6.6798,-0.4551,2.3793,7.1055
1,2,0,0,06.346,6346,-4.6400,-6.3600,1.4800,8.0106,-0.2302,0.2727,1.8184,41.00,-65.50,316.38,-6.4110,-1.2332,2.2608,6.9089
1,3,0,0,06.468,6468,-7.2100,-4.0000,2.4500,8.6015,-0.3818,-0.1254,1.7824,52.88,-54.50,329.38,-6.5163,-1.5978,2.2857,7.0880
1,3,0,0,06.631,6631,-9.5200,-1.5900,2.6800,10.0170,-0.6916,-0.4276,1.7148,65.25,-38.13,338.44,-6.9121,-1.5968,2.3377,7.4694
1,3,0,0,06.751,6751,-9.4100,0.1100,2.9900,9.8742,-0.5105,0.2116,1.9493,70.44,-3.75,349.06,-7.2413,-1.3719,2.4236,7.7584
1,3,0,0,06.873,6873,-8.4900,1.8800,3.0800,9.2250,-0.6643,0.0033,1.3504,67.56,25.13,356.19,-7.4058,-0.9433,2.5101,7.8764
1,3,0,0,06.999,6999,-8.6700,4.2600,2.6800,10.0249,-0.4549,-0.5432,1.4704,63.13,48.81,4.38,-7.5724,-0.2577,2.5325,7.9888
1,3,0,0,07.120,7120,-8.6700,4.6700,1.9700,10.0428,-0.2127,-0.5389,1.1105,57.56,66.44,14.31,-7.7171,0.3917,2.4584,8.1086
1,3,0,0,07.240,7240,-7.7700,5.8900,1.5600,9.8741,-0.3578,-0.1178,1.4454,50.69,74.63,22.00,-7.7240,1.1162,2.3400,8.1475
1,3,0,0,07.362,7362,-7.2300,7.8200,0.9900,10.6960,-0.2760,-0.1636,1.1203,42.31,79.94,29.81,-7.6589,1.9996,2.1621,8.2056
1,3,0,0,07.482,7482,-6.0100,7.7700,0.9800,9.8718,-0.2869,-0.2018,0.9850,35.69,83.31,36.50,-7.4416,2.7600,2.0063,8.1866
1,3,0,0,07.644,7644,-4.7200,8.8700,0.3400,10.0534,-0.3763,-0.2727,0.7036,27.50,88.00,45.38,-7.0830,3.5651,1.7867,8.1284
1,3,0,0,07.770,7770,-4.9000,8.9400,-0.0200,10.1948,-0.0938,-0.1778,0.4843,24.44,90.44,49.13,-6.7953,4.2734,1.5487,8.1754
1,3,0,0,07.890,7890,-4.2100,9.2600,0.0500,10.1722,-0.0731,0.0764,0.6709,20.88,90.69,51.69,-6.4547,4.9305,1.3512,8.2340
1,3,0,0,08.012,8012,-3.9500,9.2800,-0.0700,10.0859,-0.0458,0.0982,-0.1254,19.44,91.06,51.00,-6.1246,5.5037,1.1639,8.3160
1,3,0,0,08.133,8133,-4.5400,9.3600,0.3800,10.4099,0.1069,0.0600,-0.1822,20.81,90.31,47.94,-5.9158,6.0118,1.0606,8.5008
1,3,0,0,08.254,8254,-4.9700,9.1900,0.7700,10.4762,0.4036,0.0709,-1.2141,25.94,88.00,42.56,-5.7912,6.4306,1.0223,8.7141
1,3,0,0,08.375,8375,-7.6900,8.7400,1.1900,11.7021,0.8727,0.4418,-2.0060,37.63,82.06,31.38,-6.0414,6.7349,1.0444,9.1076
1,3,0,0,08.496,8496,-7.6300,6.2900,1.7900,10.0491,0.6349,0.7559,-1.7333,48.44,69.63,20.00,-6.2507,6.6763,1.1427,9.2169
1,3,0,0,08.663,8663,-8.1000,5.5400,1.8500,9.9862,0.5149,0.4920,-1.8282,59.13,47.13,4.06,-6.4944,6.5266,1.2359,9.2898
1,3,0,0,08.785,8785,-8.4900,1.6600,3.7100,9.4127,0.5291,-0.0971,-2.1184,65.88,18.50,353.00,-6.7574,5.8853,1.5619,9.0961
1,3,0,0,08.905,8905,-9.2500,-0.1100,2.9900,9.7219,0.6294,-0.1113,-1.7268,67.38,-15.75,342.50,-7.0858,5.0953,1.7501,8.9013
1,3,0,0,09.026,9026,-8.3700,-2.0200,2.9100,9.0888,0.3949,0.2651,-1.4966,62.06,-38.13,335.00,-7.2551,4.1576,1.9029,8.5757
1,3,0,0,09.148,9148,-7.0100,-3.2800,2.8700,8.2544,0.2323,0.3382,-1.4192,53.31,-49.00,327.00,-7.2228,3.1776,2.0304,8.1479
1,3,0,0,09.271,9271,-6.3800,-5.1300,3.5300,8.9153,0.2967,-0.1124,-1.3134,46.50,-56.31,320.75,-7.1117,2.0828,2.2280,7.7381
1,3,0,0,09.392,9392,-6.3600,-6.5100,2.8900,9.5489,0.2105,-0.2105,-1.4355,38.56,-63.94,311.81,-7.0127,0.9505,2.3152,7.4459
1,3,0,0,09.516,9516,-3.2200,-7.3200,2.8700,8.4963,-0.0098,0.0349,-0.8214,31.69,-67.19,304.00,-6.5129,-0.1393,2.3883,6.9384
1,3,0,0,09.679,9679,-4.3400,-6.3600,2.8100,8.1964,-0.2302,0.4156,1.6002,34.56,-62.81,308.88,-6.2266,-0.9591,2.4439,6.7574
1,4,0,0,09.800,9800,-5.7500,-5.4200,3.3700,8.5904,-0.2443,0.1265,1.8151,43.81,-55.06,321.31,-6.1638,-1.5469,2.5659,6.8534
1,4,0,0,09.921,9921,-7.2500,-3.1800,3.7100,8.7429,-0.5465,-0.2574,1.8108,52.88,-44.38,330.75,-6.3069,-1.7621,2.7167,7.0896
1,4,0,0,10.043,10043,-8.1200,-0.6700,3.1300,8.7281,-0.3414,-0.5367,1.9689,62.63,-27.69,340.75,-6.5458,-1.6182,2.7712,7.2901
1,4,0,0,10.168,10168,-9.7700,1.2100,2.7700,10.2269,-0.2171,-0.5574,1.9875,69.88,5.75,354.06,-6.9707,-1.2455,2.7710,7.6040
1,4,0,0,10.289,10289,-9.3400,2.7500,2.4800,10.0473,-0.2280,-0.4636,1.3701,68.81,36.75,4.00,-7.2829,-0.7190,2.7327,7.8118
1,4,0,0,10.409,10409,-9.3600,3.8300,2.1200,10.3331,-0.2902,-0.3611,1.3701,64.56,56.06,12.81,-7.5566,-0.1196,2.6519,8.0093
1,4,0,0,10.530,10530,-8.8200,5.7200,1.4300,10.6092,-0.2825,-0.2171,1.3526,57.13,69.00,21.50,-7.7231,0.6499,2.4909,8.1408
1,4,0,0,10.692,10692,-8.0100,6.3000,1.3200,10.2758,-0.3796,-0.0600,0.7352,49.38,76.44,28.69,-7.7609,1.3945,2.3366,8.2241
1,4,0,0,10.813,10813,-6.9400,7.0200,0.8400,9.9070,-0.4112,-0.0262,0.9436,43.19,80.63,33.63,-7.6527,2.1358,2.1394,8.2282
1,4,0,0,10.934,10934,-6.1800,7.5500,0.6500,9.7784,-0.1789,-0.0535,0.0851,40.81,83.25,34.94,-7.4587,2.8492,1.9431,8.2174
1,4,0,0,11.057,11057,-6.0300,7.8600,0.4900,9.9187,-0.1571,-0.1811,0.6512,38.25,85.25,37.44,-7.2704,3.5095,1.7516,8.2610
1,4,0,0,11.181,11181,-6.0100,7.7700,0.2000,9.8251,-0.2858,0.0665,0.6316,33.88,87.31,41.31,-7.1043,4.0709,1.5472,8.3329
1,4,0,0,11.302,11302,-4.5800,8.5700,-0.0600,9.7172,-0.3872,0.3523,0.6447,29.00,88.88,42.63,-6.7717,4.6638,1.3354,8.3301
1,4,0,0,11.423,11423,-4.3100,9.0400,0.0500,10.0150,-0.2760,0.1898,0.4811,25.63,90.13,42.13,-6.4473,5.2405,1.1660,8.3899
1,4,0,0,11.544,11544,-3.9600,9.6600,0.2900,10.4442,0.0687,-0.1462,0.1276,22.94,90.75,44.44,-6.1195,5.8229,1.0506,8.5122
1,4,0,0,11.706,11706,-6.2500,8.4900,0.5700,10.5578,0.5094,-0.3883,-0.8956,27.75,88.69,43.13,-6.1367,6.1743,0.9872,8.7611
1,4,0,0,11.833,11833,-6.8500,7.9000,-0.1000,10.4567,0.2825,0.0665,-0.9948,34.19,86.56,38.88,-6.2307,6.4017,0.8440,8.9731
1,4,0,0,11.954,11954,-6.5900,7.4300,0.5500,9.9466,0.2029,0.5432,-1.4824,42.63,82.13,29.13,-6.2781,6.5372,0.8052,9.0993
1,4,0,0,12.074,12074,-7.4000,7.1000,1.0700,10.3109,-0.0436,0.4691,-1.3984,52.25,75.81,16.75,-6.4259,6.6114,0.8401,9.2579
1,4,0,0,12.195,12195,-7.8200,5.1700,1.9200,9.5691,0.3447,0.1854,-1.4497,60.13,67.69,8.56,-6.6096,6.4214,0.9824,9.2675
1,4,0,0,12.316,12316,-9.2200,3.4800,1.9900,10.0538,0.3709,0.1669,-1.0036,67.19,54.50,2.31,-6.9536,6.0338,1.1152,9.2738
1,4,0,0,12.437,12437,-9.3900,2.0600,2.0500,9.8295,0.4222,0.2454,-1.4835,71.88,34.31,356.88,-7.2746,5.5102,1.2384,9.2096
1,4,0,0,12.558,12558,-9.6000,0.9100,2.2800,9.9089,0.3262,0.4429,-1.2403,72.63,1.94,349.31,-7.5811,4.9040,1.3756,9.1331
1,4,0,0,12.725,12725,-9.1200,-2.0100,2.8500,9.7641,0.4112,0.2313,-1.7966,66.00,-33.25,339.13,-7.7839,3.9929,1.5699,8.8880
1,4,0,0,12.847,12847,-8.1200,-3.4400,2.8600,9.2708,0.2847,0.3153,-1.5315,56.44,-49.81,329.44,-7.8282,3.0134,1.7399,8.5667
1,4,0,0,12.967,12967,-6.4600,-4.6000,3.1500,8.5331,0.4232,0.2203,-1.6308,46.88,-57.81,321.31,-7.6479,2.0102,1.9257,8.1387
1,4,0,0,13.088,13088,-5.6400,-6.0100,3.1300,8.8163,0.4963,0.1364,-1.2643,37.69,-64.50,313.56,-7.3833,0.9533,2.0844,7.7309
1,4,0,0,13.210,13210,-4.8600,-7.3700,2.8100,9.2646,0.4789,0.4058,-0.7614,31.13,-68.75,309.75,-7.0508,-0.1435,2.1800,7.3815
1,4,0,0,13.331,13331,-3.0200,-7.8100,2.5000,8.7388,0.1636,0.5280,-0.9032,24.94,-70.25,307.25,-6.5196,-1.1537,2.2222,6.9839
1,4,0,0,13.453,13453,-1.9300,-8.6300,2.4000,9.1631,-0.1593,0.6894,-0.0993,19.81,-69.44,306.19,-5.9148,-2.1389,2.2456,6.6785
1,4,0,0,13.578,13578,-1.5900,-7.2700,2.8500,7.9689,-0.7570,0.2083,1.4061,24.44,-63.19,313.88,-5.3449,-2.8151,2.3253,6.4730
1,5,0,0,13.740,13740,-5.6200,-5.0700,4.2700,8.6904,-0.4712,-0.4352,2.0475,39.19,-52.38,327.44,-5.3812,-3.1122,2.5815,6.7311
1,5,0,0,13.861,13861,-7.9300,-2.5500,3.6200,9.0825,-0.5978,-0.7581,1.8719,51.31,-43.75,336.56,-5.7170,-3.0381,2.7184,7.0217
1,5,0,0,13.987,13987,-10.8900,-0.4400,3.5900,11.4749,-0.4363,-0.7232,1.7846,63.25,-29.13,346.56,-6.3987,-2.6957,2.8332,7.4992
1,5,0,0,14.108,14108,-9.4900,-0.7300,3.5700,10.1655,-0.2127,-0.2018,1.0712,68.94,-11.50,354.19,-6.8061,-2.4367,2.9303,7.8004
1,5,0,0,14.230,14230,-8.6100,2.0100,2.5800,9.2102,-0.5301,-0.1462,2.0420,69.06,22.19,3.38,-7.0438,-1.8508,2.8842,7.8332
1,5,0,0,14.351,14351,-8.4700,4.3800,2.2600,9.7996,-0.3229,-0.4789,1.7311,62.69,51.13,15.00,-7.2317,-1.0297,2.8019,7.8236
1,5,0,0,14.472,14472,-8.3200,5.7000,1.4400,10.1875,-0.2771,-0.6512,1.6657,55.25,68.19,25.69,-7.3751,-0.1429,2.6224,7.8288
1,5,0,0,14.593,14593,-8.7800,6.4900,1.5300,11.0249,-0.2902,-0.3905,1.5795,45.56,78.31,37.63,-7.5602,0.7312,2.4785,7.9897
1,5,0,0,14.755,14755,-6.8200,8.3400,0.6900,10.7956,-0.4287,0.1265,0.4320,38.63,83.88,42.31,-7.4627,1.7338,2.2428,7.9830
1,5,0,0,14.882,14882,-5.6800,8.4400,0.5900,10.1904,-0.1582,-0.0404,0.7701,34.31,85.75,45.44,-7.2278,2.6175,2.0250,7.9494
1,5,0,0,15.003,15003,-5.2700,8.1500,0.6800,9.7292,-0.0993,-0.1025,0.4549,29.88,86.94,50.25,-6.9698,3.3465,1.8478,7.9493
1,5,0,0,15.123,15123,-5.8900,8.6400,0.2800,10.4604,-0.0884,0.1527,0.1505,28.50,87.56,50.69,-6.8275,4.0441,1.6412,8.1033
1,5,0,0,15.245,15245,-6.0100,8.6300,0.6700,10.5378,0.0949,0.4091,-0.3632,30.06,86.19,46.69,-6.7198,4.6484,1.5132,8.3098
1,5,0,0,15.365,15365,-6.4700,8.5700,1.0400,10.7883,0.2062,0.3589,-0.9468,34.31,83.38,40.19,-6.6869,5.1652,1.4508,8.5731
1,5,0,0,15.486,15486,-7.7400,7.0600,1.5600,10.5917,0.4178,0.2149,-1.6930,43.13,78.44,30.69,-6.8256,5.4149,1.4652,8.8350
1,5,0,0,15.607,15607,-8.5000,6.2300,1.4300,10.6352,0.3556,0.3076,-1.7442,53.81,70.38,20.00,-7.0463,5.5223,1.4606,9.0708
1,5,0,0,15.774,15774,-9.1300,3.7200,2.1400,10.0884,0.3785,0.5127,-2.1860,66.94,44.19,3.63,-7.3209,5.2848,1.5501,9.1612
1,5,0,0,15.896,15896,-7.9900,1.7800,2.7000,8.6197,0.3447,0.5323,-1.8599,69.31,4.69,350.63,-7.4090,4.8229,1.7016,9.0028
1,5,0,0,16.016,16016,-8.3700,-1.2000,3.0900,9.0025,0.4603,-0.0349,-1.9111,65.06,-28.13,339.56,-7.5357,4.0293,1.8846,8.7506
1,5,0,0,16.138,16138,-8.0800,-2.9700,2.8600,9.0712,0.4112,-0.0404,-1.5370,58.69,-47.94,330.25,-7.6074,3.1069,2.0131,8.4604
1,5,0,0,16.259,16259,-7.3700,-4.6800,3.0300,9.2412,0.2869,0.1614,-1.6384,49.69,-58.44,321.44,-7.5761,2.0808,2.1471,8.1448
1,5,0,0,16.380,16380,-6.0800,-5.9900,3.0000,9.0469,0.2673,0.2487,-1.4061,40.25,-63.94,313.31,-7.3790,1.0173,2.2595,7.7839
1,5,0,0,16.502,16502,-5.3300,-6.7400,2.7100,9.0100,0.3163,0.3742,-0.6654,33.69,-66.38,308.88,-7.1090,-0.0049,2.3189,7.4776
1,5,0,0,16.627,16627,-3.5300,-7.5300,2.5800,8.7074,0.2029,0.4091,-1.1181,27.25,-68.44,305.38,-6.6373,-0.9965,2.3533,7.1123
1,5,0,0,16.789,16789,-2.6800,-8.1300,3.2300,9.1494,-0.1854,0.2727,0.3872,22.06,-67.13,303.25,-6.1159,-1.9365,2.4688,6.8738
1,5,0,0,16.910,16910,-3.5700,-7.2000,3.5600,8.7897,-0.2531,0.1374,1.1159,26.94,-63.63,309.56,-5.7804,-2.6301,2.6126,6.8670
1,6,0,0,17.032,17032,-5.5300,-6.3800,3.7900,9.2547,-0.1604,-0.0884,1.3777,34.44,-60.06,318.13,-5.7474,-3.1243,2.7678,7.1031
1,6,0,0,17.154,17154,-6.5800,-4.8400,3.8100,9.0132,-0.2083,-0.1636,1.5773,43.38,-55.38,327.19,-5.8571,-3.3504,2.9051,7.3464
1,6,0,0,17.279,17279,-8.6200,-3.8400,3.7500,10.1544,-0.0273,-0.0491,1.7290,52.56,-47.75,337.75,-6.2212,-3.4149,3.0164,7.7113
1,6,0,0,17.400,17400,-8.1700,-3.5000,3.4600,9.5378,-0.1560,-0.0218,0.6250,58.13,-39.56,345.19,-6.4780,-3.4261,3.0749,7.9472
1,6,0,0,17.520,17520,-8.9800,-1.8500,3.4500,9.7962,-0.4003,-0.0502,0.9545,61.44,-30.00,349.44,-6.8077,-3.2184,3.1243,8.1526
1,6,0,0,17.642,17642,-8.3400,-0.9600,3.5500,9.1148,-0.3829,-0.1222,0.8279,64.31,-16.88,353.88,-7.0096,-2.9208,3.1804,8.2329
1,6,0,0,17.804,17804,-8.4600,0.9000,3.2100,9.0932,-0.5640,-0.3382,1.3603,67.38,6.81,0.13,-7.2007,-2.4173,3.1843,8.2361
1,6,0,0,17.925,17925,-9.0200,2.6600,3.0500,9.8863,-0.4080,-0.4058,1.4170,66.19,34.75,8.06,-7.4405,-1.7483,3.1666,8.2731
1,6,0,0,18.051,18051,-8.9800,3.7100,2.4700,10.0252,-0.4789,-0.3545,0.8759,63.25,52.31,13.63,-7.6433,-1.0290,3.0748,8.3026
1,6,0,0,18.173,18173,-8.7300,5.4400,2.1100,10.5004,-0.3109,-0.2825,1.1334,57.69,65.81,20.25,-7.7865,-0.1766,2.9477,8.3277
1,6,0,0,18.293,18293,-7.9200,5.3100,1.7600,9.6964,-0.1462,-0.2203,0.4276,53.81,72.06,24.88,-7.8041,0.5464,2.7912,8.3062
1,6,0,0,18.414,18414,-7.6200,6.3700,1.2100,10.0053,-0.1920,-0.1625,0.8934,50.38,76.13,28.50,-7.7799,1.3138,2.5828,8.3020
1,6,0,0,18.535,18535,-6.4100,7.1700,0.8400,9.6541,-0.2673,-0.2760,0.8018,43.69,81.13,35.25,-7.5993,2.0855,2.3532,8.2242
1,6,0,0,18.657,18657,-6.5700,7.0800,0.7100,9.6848,0.1058,-0.1953,0.4080,40.94,83.13,38.88,-7.4637,2.7437,2.1366,8.2341
1,6,0,0,18.820,18820,-5.1000,8.0500,0.5500,9.5454,0.0338,-0.1484,0.9599,34.31,84.25,46.38,-7.1522,3.4429,1.9276,8.1684
1,6,0,0,18.944,18944,-4.7800,8.7500,0.4800,9.9820,-0.1473,-0.2607,0.5378,29.13,85.88,51.88,-6.8396,4.1422,1.7368,8.1826
1,6,0,0,19.065,19065,-5.0000,8.4900,0.5500,9.8683,-0.1222,-0.1756,0.3960,26.81,87.75,54.56,-6.5972,4.7152,1.5804,8.2616
1,6,0,0,19.185,19185,-4.6700,9.0100,0.5100,10.1612,0.0807,0.1505,0.4592,23.69,87.75,57.50,-6.3433,5.2811,1.4394,8.3785
1,6,0,0,19.307,19307,-4.7900,9.4700,0.4500,10.6220,-0.1091,0.3207,-0.4407,23.75,86.88,55.13,-6.1386,5.8331,1.3090,8.5686
1,6,0,0,19.427,19427,-5.9300,8.3700,-0.0700,10.2580,-0.1691,-0.1156,-1.3843,30.19,88.00,46.94,-6.1111,6.1674,1.1273,8.7552
1,6,0,0,19.548,19548,-7.4700,7.5400,0.4300,10.6225,0.3392,0.2716,-1.1585,39.00,86.69,38.63,-6.2902,6.3483,1.0354,8.9966
1,6,0,0,19.669,19669,-6.9900,7.0200,0.9700,9.9540,-0.0753,0.7778,-1.4857,46.69,81.25,28.44,-6.3824,6.4368,1.0268,9.1226
1,6,0,0,19.836,19836,-7.0600,6.0600,1.4200,9.4119,0.2476,0.5509,-1.1988,58.44,68.50,11.56,-6.4717,6.3871,1.0786,9.1565
1,7,0,0,19.958,19958,-7.9400,3.9200,2.1400,9.1099,0.4909,-0.1265,-0.6752,62.81,59.06,7.81,-6.6652,6.0620,1.2185,9.0916
1,7,0,0,20.078,20078,-9.7800,2.6400,1.9700,10.3198,0.4560,-0.0338,-0.9796,68.19,49.81,5.44,-7.0756,5.6111,1.3175,9.1260
1,7,0,0,20.200,20200,-9.7600,1.9800,2.0500,10.1676,0.2902,0.3218,-1.0657,71.81,30.63,0.00,-7.4294,5.1326,1.4140,9.1399
1,7,0,0,20.320,20320,-9.1100,0.4400,2.5100,9.4597,0.1374,0.4014,-1.4454,71.81,1.88,353.06,-7.6508,4.5142,1.5584,9.0190
1,7,0,0,20.441,20441,-8.5000,-1.1600,2.9600,9.0751,0.1549,0.0829,-1.3090,68.38,-23.69,344.94,-7.7627,3.7665,1.7431,8.8026
1,7,0,0,20.562,20562,-8.4300,-1.7200,2.6000,8.9880,0.1407,-0.1767,-1.0450,65.13,-39.56,338.38,-7.8506,3.0435,1.8560,8.6221
1,7,0,0,20.687,20687,-9.0500,-3.6600,2.7500,10.1420,0.1931,-0.0938,-1.0690,60.44,-52.94,332.06,-8.0087,2.1602,1.9738,8.5265
1,7,0,0,20.850,20850,-8.3100,-4.9700,2.3600,9.9663,-0.1473,0.4974,-1.3701,51.06,-59.13,322.50,-8.0484,1.2206,2.0247,8.3885
1,7,0,0,20.971,20971,-6.7600,-5.4900,3.3700,9.3378,-0.3022,0.7167,-1.0625,41.06,-58.13,314.75,-7.8786,0.3363,2.2020,8.1875
1,7,0,0,21.092,21092,-4.4600,-5.5900,4.1400,8.2631,0.0862,0.3043,-0.9468,34.19,-57.50,310.31,-7.4281,-0.4446,2.4574,7.8367
1,7,0,0,21.213,21213,-3.4800,-6.1800,3.5300,7.9224,0.4156,-0.2847,-0.9948,28.25,-61.56,303.81,-6.9079,-1.2004,2.5987,7.4775
1,7,0,0,21.335,21335,-1.4700,-7.1100,3.3600,8.0002,0.1527,-0.3632,-0.1724,25.75,-66.13,298.94,-6.1913,-1.9791,2.6990,7.0380
1,7,0,0,21.460,21460,-5.0600,-5.9500,2.6200,8.2384,-0.0840,-0.0338,2.2711,32.06,-64.44,304.25,-6.0422,-2.5024,2.6886,7.0710
1,7,0,0,21.582,21582,-7.1800,-4.6100,3.2900,9.1449,0.0109,0.0349,2.8351,50.56,-54.63,325.88,-6.1922,-2.7801,2.7679,7.3303
1,7,0,0,21.704,21704,-9.0600,-2.8600,3.5800,10.1528,-0.3829,-0.0164,1.3537,60.44,-41.06,338.50,-6.5701,-2.7906,2.8749,7.6953
1,7,0,0,21.866,21866,-8.4100,0.4600,2.7400,8.8570,-0.4451,-0.2378,1.8053,67.88,-10.13,350.38,-6.8125,-2.3623,2.8571,7.7559
1,7,0,0,21.992,21992,-9.2800,1.8000,2.8700,9.8790,-0.5094,-0.4309,1.6482,69.06,21.50,359.63,-7.1377,-1.8138,2.8588,7.8999
1,7,0,0,22.114,22114,-8.8600,4.1800,2.2900,10.0606,-0.5967,-0.5552,1.9570,62.63,56.44,12.00,-7.3646,-1.0240,2.7839,7.9395
1,7,0,0,22.236,22236,-8.7600,5.6900,1.5500,10.5601,-0.4472,-0.4669,0.9676,56.25,71.56,20.06,-7.5485,-0.1392,2.6213,7.9919
1,7,0,0,22.357,22357,-7.8500,7.4400,0.8900,10.8521,-0.2291,-0.4134,1.4704,48.94,80.06,28.19,-7.5882,0.8595,2.3931,8.0029
1,7,0,0,22.477,22477,-6.4100,7.7900,0.5100,10.1011,-0.0055,-0.5607,1.0123,40.31,85.13,39.13,-7.4330,1.7728,2.1450,7.9368
1,7,0,0,22.598,22598,-6.7100,8.3700,0.3700,10.7340,0.1200,-0.3022,0.8519,35.38,87.19,46.31,-7.3377,2.6421,1.9111,8.0296
1,7,0,0,22.719,22719,-5.6000,8.2100,0.5000,9.9506,0.1669,-0.0720,0.7189,29.44,87.00,53.50,-7.1087,3.3758,1.7251,8.0564
1,7,0,0,22.882,22882,-6.2400,8.4400,0.8000,10.5267,-0.0305,-0.0185,-0.2662,28.19,86.50,54.19,-6.9942,4.0431,1.6032,8.2363
1,7,0,0,23.006,23006,-6.7400,8.4900,0.4700,10.8503,-0.0709,0.1298,-0.9839,34.38,86.38,47.13,-6.9607,4.6291,1.4539,8.4850
1,7,0,0,23.127,23127,-7.9400,7.7500,0.5000,11.1066,0.1658,0.5007,-1.6690,43.75,83.44,36.13,-7.0898,5.0404,1.3282,8.7997
1,7,0,0,23.248,23248,-8.2500,6.7200,0.9700,10.6847,0.0982,0.8476,-1.7671,54.38,74.50,22.31,-7.2427,5.2617,1.2810,9.0434
1,7,0,0,23.370,23370,-8.1000,5.2600,1.5300,9.7785,0.2313,0.7865,-1.8064,63.19,56.44,9.00,-7.3556,5.2615,1.3138,9.1386
1,8,0,0,23.490,23490,-8.0600,2.6800,2.4300,8.8346,0.3305,0.3872,-1.5424,68.13,30.25,358.81,-7.4485,4.9213,1.4609,9.0462
1,8,0,0,23.617,23617,-8.9600,0.6800,2.7400,9.3942,0.2694,-0.0044,-1.6188,70.13,0.63,349.94,-7.6476,4.3624,1.6294,8.9539
1,8,0,0,23.737,23737,-9.1800,-1.2600,3.1200,9.7772,0.2738,0.2858,-1.4693,66.94,-26.19,341.31,-7.8496,3.6215,1.8259,8.8354
1,8,0,0,23.900,23900,-8.1000,-3.0400,3.5400,9.3479,0.0382,0.4232,-1.3744,55.94,-43.69,330.06,-7.8826,2.7437,2.0517,8.5949
1,8,0,0,24.021,24021,-7.7300,-4.7600,3.7700,9.8297,0.2389,0.5640,-1.2763,47.44,-49.38,323.06,-7.8625,1.7549,2.2782,8.3719
1,8,0,0,24.143,24143,-5.7900,-5.2600,3.9300,8.7542,0.1102,0.4680,-1.1759,39.19,-52.44,317.94,-7.5894,0.8305,2.4958,8.0323
1,8,0,0,24.264,24264,-4.8400,-6.0300,4.1000,8.7519,0.2422,0.2040,-1.2686,31.19,-55.75,311.06,-7.2271,-0.0735,2.7072,7.7178
1,8,0,0,24.387,24387,-3.6600,-7.0700,4.0700,8.9412,0.3283,-0.0676,-1.1377,24.38,-60.00,304.00,-6.7570,-0.9955,2.8868,7.4150
1,8,0,0,24.511,24511,-3.6200,-7.5500,3.8700,9.2241,0.3185,-0.0611,-0.4505,19.56,-63.88,298.38,-6.3436,-1.8592,3.0164,7.2661
1,8,0,0,24.632,24632,-2.9000,-7.2700,3.3900,8.5297,0.1069,0.1014,-0.1222,18.81,-65.13,298.06,-5.8899,-2.5722,3.0656,7.1207
1,8,0,0,24.752,24752,-0.3200,-7.6800,3.3200,8.3730,-0.0262,0.1887,0.0011,17.06,-65.63,297.06,-5.1559,-3.2453,3.0991,6.8352
1,8,0,0,24.915,24915,-4.6000,-6.7200,3.8100,8.9908,-0.4396,0.1102,2.4882,29.25,-59.44,310.63,-5.0826,-3.7032,3.1928,7.0527
1,8,0,0,25.037,25037,-5.7000,-5.6700,4.5100,9.2184,-0.2323,0.0927,0.8421,37.13,-53.06,320.44,-5.1640,-3.9623,3.3664,7.3280
1,8,0,0,25.163,25163,-7.3700,-4.1900,4.6400,9.6645,-0.3949,-0.2171,1.9646,44.25,-46.00,328.13,-5.4547,-3.9923,3.5342,7.6278
1,8,0,0,25.284,25284,-7.4600,-2.2100,4.3800,8.9286,-0.1887,-0.3600,1.8282,55.56,-31.50,342.00,-5.7189,-3.7575,3.6457,7.7534
1,8,0,0,25.405,25405,-9.2400,-0.9300,5.0800,10.5853,-0.1385,-0.2520,1.5392,61.94,-15.81,351.81,-6.1829,-3.3849,3.8347,8.0244
1,8,0,0,25.525,25525,-8.7300,0.9500,3.9600,9.6331,0.0709,-0.1069,1.1868,64.00,1.75,0.44,-6.5186,-2.8137,3.8512,8.0771
1,8,0,0,25.646,25646,-9.0400,2.0400,3.0600,9.7594,0.1167,-0.2673,1.2719,63.94,16.69,9.00,-6.8508,-2.1741,3.7469,8.1055
1,8,0,0,25.767,25767,-8.5400,3.7600,3.0800,9.8263,-0.2247,-0.3872,1.7279,61.00,37.38,19.81,-7.0734,-1.3921,3.6590,8.0845
1,8,0,0,25.929,25929,-8.0100,5.0600,2.4700,9.7910,-0.1429,-0.6992,1.3134,54.56,58.56,32.50,-7.1968,-0.5419,3.5024,8.0221
1,8,0,0,26.055,26055,-8.1100,6.7800,1.7200,10.7098,-0.1527,-0.7734,1.3363,48.88,70.25,42.56,-7.3172,0.4230,3.2675,8.0247
1,8,0,0,26.177,26177,-7.1600,7.4700,1.1000,10.4056,-0.1025,-0.5443,0.8781,42.19,78.13,52.94,-7.2965,1.3516,2.9819,7.9973
1,8,0,0,26.297,26297,-6.7600,7.3200,1.0100,10.0150,-0.2531,-0.2891,0.7199,38.31,82.06,58.69,-7.2258,2.1381,2.7220,8.0120
1,8,0,0,26.418,26418,-6.0200,8.4400,0.6400,10.3867,-0.2629,0.0022,0.7712,33.38,85.06,62.81,-7.0669,2.9685,2.4477,8.0463
1,8,0,0,26.539,26539,-5.5500,8.7700,0.9600,10.4229,-0.0949,0.2073,0.2967,29.75,85.94,64.19,-6.8670,3.7330,2.2516,8.1339
1,8,0,0,26.660,26660,-6.2000,8.8100,1.1600,10.8352,-0.0458,0.2738,-0.2531,30.63,84.63,61.38,-6.7791,4.4020,2.1078,8.3532
1,8,0,0,26.781,26781,-7.0500,8.7800,1.0000,11.3045,0.1974,0.3109,-0.9163,34.56,82.50,55.25,-6.8148,4.9789,1.9618,8.6649
1,8,0,0,26.943,26943,-8.0900,7.3800,1.0000,10.9960,0.2553,0.6818,-1.9308,46.50,74.31,40.44,-6.9828,5.2953,1.8351,8.9536
1,8,0,0,27.068,27068,-8.3100,6.1500,1.5200,10.4494,0.2803,0.8508,-2.0497,57.06,59.63,25.44,-7.1577,5.4079,1.7935,9.1485
1,8,0,0,27.189,27189,-8.3900,3.4600,2.8100,9.5005,0.2313,0.6545,-2.3442,64.69,30.13,9.63,-7.3201,5.1513,1.9275,9.1561
1,9,0,0,27.310,27310,-8.5500,0.8700,3.3500,9.2240,0.2422,0.4440,-1.9613,64.56,-3.81,355.75,-7.4822,4.5871,2.1149,9.0276
1,9,0,0,27.432,27432,-8.7500,-1.1800,3.7600,9.5965,0.2138,0.3338,-1.2654,59.31,-24.50,345.69,-7.6492,3.8271,2.3317,8.8654
1,9,0,0,27.552,27552,-7.0100,-1.7500,4.3500,8.4336,0.3371,0.3927,-1.2403,54.06,-33.13,340.56,-7.5650,3.0922,2.5977,8.5755
1,9,0,0,27.673,27673,-6.7800,-4.7800,5.1200,9.7484,0.1113,0.2629,-1.9046,44.88,-44.00,330.13,-7.4616,2.0549,2.9301,8.2754
1,9,0,0,27.794,27794,-5.7000,-5.4200,4.9300,9.2828,0.1680,0.4298,-1.0439,36.56,-48.75,322.31,-7.2294,1.0699,3.1936,7.9755
1,9,0,0,27.961,27961,-4.7100,-6.0300,5.0200,9.1513,0.2967,0.3534,-0.9228,27.56,-52.19,316.38,-6.8974,0.1343,3.4343,7.7063
1,9,0,0,28.082,28082,-3.2400,-6.8600,4.3600,8.7502,0.3567,-0.1036,-0.7832,22.13,-56.25,311.69,-6.4155,-0.7874,3.5563,7.3774
1,9,0,0,28.203,28203,-3.0900,-7.6800,4.2000,9.2828,0.2062,-0.3600,-0.4712,19.38,-59.75,307.00,-5.9773,-1.6957,3.6411,7.2014
1,9,0,0,28.324,28324,-3.0500,-7.7500,4.4100,9.4241,-0.0284,-0.1080,-0.2574,18.19,-61.06,303.75,-5.5915,-2.4935,3.7424,7.1755
1,9,0,0,28.445,28445,-2.4200,-7.2300,4.5400,8.8736,-0.2291,0.2193,0.3414,17.75,-59.81,303.81,-5.1736,-3.1176,3.8475,7.1616
1,9,0,0,28.566,28566,-3.4500,-6.5400,4.6500,8.7348,-0.3120,0.2902,1.5741,22.75,-55.75,311.50,-4.9465,-3.5686,3.9533,7.2685
1,9,0,0,28.688,28688,-4.7400,-5.4200,5.0300,8.7832,-0.1963,0.0862,1.7879,31.25,-49.94,323.94,-4.9193,-3.8126,4.0951,7.4502
1,9,0,0,28.814,28814,-6.1600,-3.9900,4.8600,8.8026,-0.3316,-0.2749,1.5577,39.63,-43.38,333.75,-5.0828,-3.8359,4.1959,7.6259
1,9,0,0,28.977,28977,-7.8900,-1.7000,4.8600,9.4213,-0.2509,-0.3578,2.1871,53.25,-25.88,350.50,-5.4527,-3.5545,4.2834,7.7919
1,9,0,0,29.097,29097,-8.3900,0.3200,4.6500,9.5978,-0.4745,-0.2629,1.7988,58.81,-5.25,2.06,-5.8397,-3.0439,4.3317,7.8824
1,9,0,0,29.218,29218,-9.0500,2.5900,4.0800,10.2595,-0.5007,-0.4418,1.7879,59.88,17.88,11.56,-6.2628,-2.3015,4.2986,7.9371
1,9,0,0,29.356,29356,-8.7300,4.6300,3.5900,10.5137,-0.2487,-0.6120,1.5272,56.50,42.81,24.13,-6.5879,-1.3881,4.2052,7.9379
1,9,0,0,29.477,29477,-8.3900,4.9800,2.6200,10.1023,-0.3818,-0.6840,0.9272,53.81,56.81,31.81,-6.8254,-0.5490,3.9963,7.9283
1,9,0,0,29.598,29598,-7.2700,6.1100,1.6500,9.6389,-0.4712,-0.5411,1.1770,49.69,68.31,38.56,-6.8840,0.3285,3.6871,7.8161
1,9,0,0,29.718,29718,-6.6700,7.8200,1.0800,10.3348,-0.4898,-0.3502,1.3504,42.31,77.06,46.75,-6.8558,1.3157,3.3436,7.7403
1,9,0,0,29.839,29839,-5.8200,8.2600,0.9400,10.1481,-0.3600,-0.3229,1.0287,35.00,82.56,54.56,-6.7193,2.2308,3.0268,7.6998
1,9,0,0,30.001,30001,-4.8600,8.9200,0.3200,10.1631,-0.2640,-0.2236,0.9021,26.81,87.38,63.50,-6.4743,3.1123,2.6702,7.6637
1,9,0,0,30.124,30124,-4.4400,8.9400,0.2500,9.9850,-0.2160,0.0153,0.5531,22.31,89.31,67.25,-6.2062,3.8802,2.3512,7.6877
1,9,0,0,30.245,30245,-4.5500,9.4400,0.1600,10.4805,-0.1440,0.3153,0.2422,20.63,90.00,66.88,-5.9880,4.6128,2.0625,7.8350
1,9,0,0,30.369,30369,-4.8700,9.4700,0.2000,10.6507,0.0327,0.5760,-0.5051,23.25,88.81,59.88,-5.8406,5.2529,1.8171,8.0627
1,9,0,0,30.490,30490,-5.9500,9.0100,0.1200,10.7980,0.0949,0.7734,-1.3777,29.94,85.88,48.69,-5.8551,5.7480,1.5934,8.3582
1,9,0,0,30.610,30610,-7.1900,8.0600,0.2900,10.8048,0.1505,0.9828,-1.9210,40.75,79.81,32.94,-6.0310,6.0526,1.4217,8.6619
1,9,0,0,30.731,30731,-7.4900,7.5500,0.7600,10.6621,0.0371,0.9817,-2.0988,51.88,68.44,16.06,-6.2232,6.2500,1.3345,8.9203
1,9,0,0,30.852,30852,-7.6500,5.0200,2.3700,9.4520,0.1211,0.6360,-2.1937,61.69,49.38,0.00,-6.4112,6.0879,1.4709,8.9627
1,10,0,0,31.018,31018,-8.4500,2.0000,3.4100,9.3290,0.2291,0.5705,-1.6122,66.19,13.19,344.06,-6.6799,5.5492,1.7265,8.8541
1,10,0,0,31.141,31141,-8.2000,0.1100,4.0900,9.1641,0.1887,0.7178,-1.3406,61.63,-9.81,335.63,-6.8802,4.8325,2.0379,8.6512
1,10,0,0,31.262,31262,-8.1200,-1.1000,4.3100,9.2585,0.2040,0.6589,-1.2130,54.81,-22.69,328.88,-7.0436,4.0507,2.3373,8.4548
1,10,0,0,31.384,31384,-7.3400,-2.6800,4.7700,9.1548,0.2018,0.5869,-0.9425,48.31,-29.13,324.31,-7.0826,3.1638,2.6579,8.1999
1,10,0,0,31.505,31505,-7.1200,-3.8200,5.2300,9.6250,0.2738,0.4963,-1.2894,41.88,-34.44,319.25,-7.0876,2.2435,2.9968,8.0155
1,10,0,0,31.626,31626,-5.6000,-4.9400,5.5200,9.2862,0.3294,0.3632,-1.2457,34.13,-41.00,312.44,-6.8915,1.2969,3.3293,7.7627
1,10,0,0,31.746,31746,-4.3600,-5.4000,5.5700,8.8991,0.2182,0.0556,-1.1356,28.00,-45.44,305.75,-6.5579,0.4144,3.6246,7.5044
1,10,0,0,31.872,31872,-4.1500,-6.3600,5.4400,9.3416,0.2945,-0.2334,-0.8956,23.38,-49.56,298.88,-6.2406,-0.4783,3.8638,7.3555
1,10,0,0,32.034,32034,-2.9800,-7.3000,5.0600,9.3688,0.2880,-0.0513,-0.5465,20.00,-54.75,292.81,-5.8110,-1.3772,4.0214,7.1997
1,10,0,0,32.155,32155,-1.3600,-6.9200,4.6400,8.4419,-0.1756,-0.0022,-0.3512,17.50,-55.50,288.88,-5.2244,-2.1076,4.1029,6.9693
1,10,0,0,32.276,32276,-2.6300,-6.5400,5.4300,8.8979,-0.4156,0.0894,1.0919,18.38,-53.06,289.44,-4.8826,-2.6917,4.2778,7.0274
1,10,0,0,32.414,32414,-3.9600,-5.5700,5.4700,8.7537,-0.2574,0.3043,2.5427,29.25,-45.38,305.00,-4.7610,-3.0710,4.4349,7.1949
1,10,0,0,32.535,32535,-5.8600,-3.6700,5.5700,8.8788,-0.3971,0.1734,1.9166,37.94,-33.94,320.50,-4.9058,-3.1499,4.5845,7.4166
1,10,0,0,32.657,32657,-6.8800,-1.1600,5.7600,9.0475,-0.5334,-0.2553,2.1566,44.31,-20.19,333.13,-5.1660,-2.8877,4.7394,7.5821
1,10,0,0,32.777,32777,-8.4000,0.8800,5.2800,9.9606,-0.2956,-0.8083,1.5992,51.19,-4.69,344.75,-5.5921,-2.3912,4.8106,7.7545
1,10,0,0,32.898,32898,-9.6900,0.9200,4.9900,10.9381,-0.0480,-0.8367,0.9141,56.75,6.44,352.06,-6.1321,-1.9549,4.8343,8.0495
1,10,0,0,33.060,33060,-9.2500,2.1100,3.4500,10.0954,-0.3000,-0.4985,0.8934,61.13,21.44,359.81,-6.5430,-1.4192,4.6519,8.1526
1,10,0,0,33.186,33186,-7.8200,2.9700,3.2400,8.9706,-0.3731,-0.0589,1.0177,59.31,35.38,5.50,-6.7113,-0.8408,4.4658,8.1050
1,10,0,0,33.308,33308,-7.6800,4.8200,3.1100,9.5858,-0.5661,-0.1876,1.3221,54.44,49.06,11.56,-6.8389,-0.0949,4.2871,8.0721
1,10,0,0,33.429,33429,-6.8900,6.3400,2.5600,9.7068,-0.5072,-0.6512,1.1530,48.63,62.31,19.38,-6.8456,0.7531,4.0596,7.9944
1,10,0,0,33.550,33550,-7.4300,7.2700,1.7900,10.5481,-0.2258,-0.8672,0.8694,45.00,72.56,26.75,-6.9226,1.6118,3.7605,8.0413
1,10,0,0,33.670,33670,-6.5000,7.7900,1.0600,10.2009,-0.0502,-0.6654,0.8094,40.50,79.31,35.31,-6.8670,2.4260,3.4046,8.0394
1,10,0,0,33.791,33791,-5.9300,8.0500,0.7000,10.0228,0.0131,-0.4265,0.7232,36.19,82.88,42.56,-6.7435,3.1671,3.0482,8.0496
1,10,0,0,33.912,33912,-4.8800,8.2500,0.4900,9.5978,-0.0175,-0.2225,1.0199,30.50,84.69,49.75,-6.4979,3.8369,2.7111,8.0184
1,10,0,0,34.079,34079,-4.0900,9.4000,0.2700,10.2548,-0.1658,-0.1353,0.8029,21.44,86.75,59.19,-6.1806,4.5699,2.3894,8.0495
1,10,0,0,34.201,34201,-4.2400,9.6200,0.3900,10.5202,-0.1385,-0.0654,-0.0393,19.88,88.19,61.13,-5.9249,5.2354,2.1260,8.1874
1,10,0,0,34.321,34321,-5.3100,10.2900,0.4200,11.5869,0.7374,0.1451,-0.7101,22.44,86.75,57.69,-5.8439,5.9015,1.9012,8.5201
1,10,0,0,34.443,34443,-5.7600,6.9700,2.1700,9.2988,0.3872,0.3927,-1.7682,31.00,79.94,48.56,-5.8328,6.0423,1.9366,8.6187
1,10,0,0,34.563,34563,-6.6700,8.4800,0.7600,10.8156,-0.2694,0.4276,-1.6646,42.00,77.19,34.25,-5.9431,6.3635,1.7815,8.8876
1,10,0,0,34.684,34684,-6.7600,7.1400,1.4200,9.9345,0.4363,0.5334,-1.3908,50.63,70.00,23.06,-6.0508,6.4658,1.7339,9.0236
1,10,0,0,34.805,34805,-6.9200,5.0500,2.4200,8.9020,0.3971,0.1582,-1.3177,57.81,58.56,14.94,-6.1653,6.2793,1.8243,8.9871
1,10,0,0,34.929,34929,-7.8900,3.8000,2.2700,9.0468,0.4581,-0.1167,-0.8999,64.06,47.94,8.94,-6.3926,5.9526,1.8830,8.9355
1,10,0,0,35.093,35093,-8.9800,2.0400,2.4800,9.5369,0.3938,-0.0916,-0.8094,69.50,33.94,6.69,-6.7335,5.4370,1.9617,8.8741
1,10,0,0,35.214,35214,-9.7300,1.3100,2.3900,10.1045,0.1287,0.2138,-0.6807,71.31,18.63,3.13,-7.1284,4.8932,2.0181,8.8786
1,10,0,0,35.335,35335,-9.2600,0.9400,2.7700,9.7110,0.0327,0.3229,-0.6272,70.19,5.00,359.31,-7.4093,4.3722,2.1172,8.8598
1,10,0,0,35.457,35457,-8.9300,0.5100,2.8600,9.3907,0.1440,0.0469,-0.5378,68.94,-6.63,355.88,-7.6097,3.8633,2.2151,8.8170
1,10,0,0,35.578,35578,-9.0700,-0.8200,3.0000,9.5884,0.0829,-0.1505,-0.6665,68.63,-18.56,352.88,-7.8021,3.2461,2.3185,8.7628
