participant,rep,equipment_code,exercise_code,timestamp,timestamp_ms,accelX,accelY,accelZ,accelMag,gyroX,gyroY,gyroZ,roll,pitch,yaw,filteredX,filteredY,filteredZ,filteredMag
1,1,0,0,00.000,0,-7.8600,5.2800,1.0200,9.5236,-0.2127,0.1069,-0.1342,55.31,79.88,352.63,-7.7624,5.5687,0.7659,9.5840
1,1,0,0,00.121,121,-8.1700,5.5000,0.8900,9.8889,-0.3752,0.1778,-0.0393,55.88,80.44,349.63,-7.8161,5.5596,0.7823,9.6236
1,1,0,0,00.242,242,-7.7000,5.6500,0.8500,9.5883,-0.2443,0.1931,0.0556,55.38,80.56,346.75,-7.8008,5.5716,0.7912,9.6188
1,1,0,0,00.404,404,-7.8900,5.6000,0.7400,9.7036,-0.0196,-0.0273,0.0316,54.69,81.13,345.63,-7.8126,5.5753,0.7845,9.6299
1,1,0,0,00.530,530,-7.9400,5.5000,0.8100,9.6928,0.1134,-0.0142,-0.0469,54.81,80.88,345.88,-7.8294,5.5654,0.7878,9.6381
1,1,0,0,00.652,652,-7.8600,5.3900,0.9400,9.5768,0.0884,-0.0524,0.0316,54.88,80.44,346.31,-7.8334,5.5423,0.8079,9.6297
1,1,0,0,00.773,773,-7.9400,5.3700,0.9100,9.6285,0.0458,-0.0022,-0.0436,54.94,80.31,346.44,-7.8475,5.5196,0.8213,9.6293
1,1,0,0,00.894,894,-7.8800,5.3100,0.9900,9.5536,0.0185,-0.0033,-0.0076,55.19,80.06,346.13,-7.8517,5.4920,0.8436,9.6189
1,1,0,0,01.014,1014,-7.9800,5.5400,0.9400,9.7599,-0.0316,0.0022,0.0196,55.06,80.25,346.19,-7.8686,5.4983,0.8563,9.6374
1,1,0,0,01.136,1136,-7.9500,6.2900,1.1600,10.2035,-0.0164,0.0164,0.1025,54.75,80.25,346.25,-7.8794,5.6026,0.8963,9.7096
1,1,0,0,01.262,1262,-7.9500,6.9700,1.2100,10.6418,0.0818,-0.0284,0.7483,51.69,80.69,349.44,-7.8887,5.7828,0.9376,9.8260
1,1,0,0,01.424,1424,-5.9700,8.0500,1.4800,10.1308,0.1353,0.1145,1.5697,39.81,80.94,1.38,-7.6358,6.0816,1.0091,9.8138
1,1,0,0,01.545,1545,-5.4500,9.2800,1.4100,10.8540,0.1407,0.3000,1.3603,30.19,80.38,8.94,-7.3478,6.5030,1.0619,9.8695
1,1,0,0,01.666,1666,-4.2000,10.0800,1.7700,11.0625,0.3469,0.3458,1.7006,20.06,78.44,17.69,-6.9330,6.9744,1.1552,9.9017
1,1,0,0,01.787,1787,-2.2200,9.6200,2.5300,10.1918,0.5770,0.3338,1.9428,7.00,75.31,29.56,-6.3120,7.3230,1.3364,9.7598
1,1,0,0,01.911,1911,-0.4700,9.0700,2.8800,9.5279,0.1920,0.4745,2.0388,-6.50,72.63,40.81,-5.5421,7.5532,1.5398,9.4941
1,1,0,0,02.035,2035,2.4200,8.6200,2.3900,9.2668,-0.0273,0.1767,1.8577,-20.94,72.00,53.31,-4.4929,7.6938,1.6518,9.0614
1,1,0,0,02.156,2156,3.6100,7.2400,2.7900,8.5577,-0.0273,0.1538,1.5752,-31.38,70.63,63.56,-3.4252,7.6340,1.8018,8.5590
1,1,0,0,02.277,2277,5.2500,6.2500,2.8900,8.6589,-0.4800,0.2749,1.5501,-41.31,70.88,73.75,-2.2820,7.4516,1.9452,8.0323
1,1,0,0,02.439,2439,7.7500,3.6200,1.9500,8.7732,-0.5847,0.3709,0.9108,-54.25,76.06,87.69,-0.9600,6.9467,1.9458,7.2777
1,1,0,0,02.559,2559,7.4000,3.3900,1.3000,8.2427,-0.0284,-0.0545,0.0196,-57.31,78.19,92.19,0.1416,6.4780,1.8607,6.7415
1,1,0,0,02.680,2680,6.8900,4.5800,1.4700,8.4029,0.6021,-0.0065,-1.4214,-52.88,76.50,86.00,1.0309,6.2279,1.8092,6.5668
1,2,0,0,02.801,2801,5.7300,5.6800,1.8100,8.2687,0.4745,-0.1604,-1.9537,-41.88,75.00,72.81,1.6501,6.1557,1.8093,6.6249
1,2,0,0,02.927,2927,2.3300,7.8200,1.9200,8.3826,0.0055,-0.2280,-2.2766,-27.19,75.13,58.38,1.7397,6.3750,1.8239,6.8552
1,2,0,0,03.048,3048,1.3400,10.1100,1.8100,10.3578,-0.3272,-0.0087,-1.7486,-13.25,77.50,44.81,1.6870,6.8672,1.8221,7.3024
1,2,0,0,03.169,3169,-1.0600,10.2600,1.3700,10.4052,-0.3316,-0.2705,-2.2340,0.06,80.13,32.44,1.3250,7.3143,1.7625,7.6394
1,2,0,0,03.290,3290,-3.8800,9.9500,1.4700,10.7804,-0.1516,-0.2858,-1.8424,14.63,81.56,19.56,0.6391,7.6616,1.7240,7.8791
1,2,0,0,03.453,3453,-5.4100,9.3000,1.2800,10.8350,-0.0873,-0.2913,-1.5970,28.13,82.75,7.81,-0.1580,7.8775,1.6655,8.0532
1,2,0,0,03.577,3577,-6.1700,8.2900,1.1500,10.3979,-0.0295,-0.2934,-1.0450,37.44,83.56,359.81,-0.9502,7.9319,1.5975,8.1467
1,2,0,0,03.698,3698,-6.7000,7.5900,0.7700,10.1534,0.0698,-0.1745,-0.7581,42.94,84.31,355.75,-1.7079,7.8868,1.4885,8.2057
1,2,0,0,03.820,3820,-7.1900,6.6700,0.6000,9.8257,0.1451,-0.1811,-0.7789,48.50,84.19,351.56,-2.4303,7.7265,1.3714,8.2149
1,2,0,0,03.941,3941,-7.9000,6.0400,0.4900,9.9565,0.1014,-0.1724,-0.3731,52.44,84.44,349.00,-3.1511,7.5042,1.2553,8.2352
1,2,0,0,04.062,4062,-8.0700,6.4000,0.5700,10.3155,0.0589,-0.0927,-0.2520,54.06,84.88,348.38,-3.7992,7.3587,1.1650,8.3631
1,2,0,0,04.183,4183,-8.0600,6.5700,0.8900,10.4365,-0.0131,0.0371,0.3142,53.63,84.50,348.94,-4.3607,7.2548,1.1287,8.5394
1,2,0,0,04.304,4304,-7.4700,7.7200,0.8700,10.7776,-0.1178,0.2073,1.0876,47.94,84.63,354.31,-4.7704,7.3161,1.0946,8.8023
1,2,0,0,04.471,4471,-6.1900,8.3000,1.0800,10.4102,-0.0447,0.3960,1.4573,36.63,83.31,2.44,-4.9575,7.4457,1.0927,9.0117
1,2,0,0,04.593,4593,-4.8500,8.2300,0.9600,9.6009,0.2236,0.4298,1.4301,26.19,81.69,10.38,-4.9433,7.5491,1.0752,9.0874
1,2,0,0,04.713,4713,-4.0900,8.6600,1.6000,9.7100,0.3251,0.2334,1.0057,18.00,79.38,17.50,-4.8309,7.6955,1.1444,9.1579
1,2,0,0,04.834,4834,-2.4900,9.0300,2.0000,9.5782,0.0938,0.4014,1.0123,11.19,77.75,22.69,-4.5224,7.8713,1.2571,9.1646
1,2,0,0,04.956,4956,-0.9100,9.3600,1.8500,9.5844,0.1244,0.3000,0.9065,3.88,77.25,27.69,-4.0464,8.0675,1.3352,9.1236
1,2,0,0,05.076,5076,-0.4000,8.7900,2.3800,9.1153,0.2913,0.2149,0.7527,-1.50,75.75,31.75,-3.5659,8.1627,1.4729,9.0286
1,2,0,0,05.198,5198,0.6800,9.4500,2.8400,9.8909,0.1680,0.0927,0.6272,-6.94,74.25,36.38,-3.0064,8.3323,1.6531,9.0110
1,2,0,0,05.324,5324,1.7700,9.4500,3.1000,10.1018,0.1593,0.2160,0.6818,-11.75,73.06,38.63,-2.3770,8.4796,1.8437,8.9974
1,2,0,0,05.487,5487,2.6900,8.6800,3.0300,9.5791,0.0338,0.2498,0.7603,-17.88,72.63,43.00,-1.7093,8.5060,2.0001,8.9036
1,2,0,0,05.607,5607,3.7600,8.4800,2.8300,9.6983,0.2651,0.1080,0.7963,-23.75,71.44,46.31,-0.9886,8.5026,2.1094,8.8160
1,2,0,0,05.728,5728,3.6200,8.1300,3.2300,9.4675,0.3567,0.0993,0.8018,-27.88,68.56,47.25,-0.3813,8.4535,2.2571,8.7579
1,2,0,0,05.850,5850,5.3200,7.6300,3.8200,10.0554,0.0807,0.1963,0.6610,-33.56,66.31,49.88,0.3700,8.3450,2.4630,8.7087
1,2,0,0,05.976,5976,5.3900,7.1900,3.2100,9.5421,0.0262,0.2105,0.7101,-37.75,65.88,52.38,1.0315,8.1928,2.5615,8.6456
1,2,0,0,06.098,6098,6.2300,6.6900,3.3600,9.7395,0.1276,0.1265,0.7101,-43.13,64.31,56.56,1.7165,7.9948,2.6667,8.6008
1,2,0,0,06.218,6218,6.6700,6.0800,3.3000,9.6096,0.1080,0.0818,0.6447,-47.25,62.19,59.88,2.3693,7.7424,2.7501,8.5512
1,2,0,0,06.339,6339,7.2800,5.4100,3.3600,9.6724,0.0185,0.2203,0.6905,-52.06,59.38,64.50,3.0164,7.4351,2.8305,8.5083
1,2,0,0,06.502,6502,7.5600,3.1400,2.5000,8.5594,-0.1680,-0.1429,0.4647,-57.88,56.88,70.94,3.6151,6.8691,2.7870,8.2475
1,2,0,0,06.624,6624,7.3000,3.2400,2.7900,8.4600,0.0175,-0.0207,-0.8378,-56.50,56.94,70.38,4.1007,6.3909,2.7874,8.0888
1,3,0,0,06.749,6749,6.9700,4.5900,3.0600,8.8889,-0.0851,-0.0785,-1.3635,-48.88,63.06,61.44,4.4788,6.1536,2.8233,8.1177
1,3,0,0,06.870,6870,5.1700,7.0600,2.7700,9.1785,-0.2073,-0.1560,-1.6024,-39.25,67.25,51.25,4.5699,6.2730,2.8163,8.2563
1,3,0,0,06.991,6991,3.7800,8.2400,2.8000,9.4882,-0.3240,-0.0949,-1.3603,-29.81,70.81,42.63,4.4658,6.5322,2.8141,8.3984
1,3,0,0,07.111,7111,2.4400,9.0700,2.7000,9.7728,-0.4581,-0.1145,-1.4726,-20.38,74.56,34.25,4.1988,6.8666,2.7991,8.5215
1,3,0,0,07.232,7232,1.2500,9.6000,2.1000,9.9062,-0.3065,-0.0764,-1.2446,-11.44,77.88,26.31,3.8103,7.2268,2.7070,8.6065
1,3,0,0,07.353,7353,-0.5800,10.0600,1.7500,10.2275,-0.0884,-0.1931,-1.5403,-2.00,79.25,17.94,3.2317,7.6002,2.5809,8.6526
1,3,0,0,07.516,7516,-2.4100,9.0800,1.8100,9.5672,-0.0611,-0.2683,-1.4628,10.81,79.50,6.75,2.4883,7.7952,2.4793,8.5500
1,3,0,0,07.641,7641,-4.4100,9.1700,1.5700,10.2957,-0.1614,-0.1669,-1.4966,21.44,80.13,357.25,1.5793,7.9763,2.3595,8.4666
1,3,0,0,07.762,7762,-5.3000,8.9300,1.1400,10.4467,-0.1429,-0.2018,-1.1203,30.50,81.44,348.75,0.6728,8.1020,2.1988,8.4220
1,3,0,0,07.883,7883,-5.9400,7.9000,0.8400,9.9196,0.0938,-0.4211,-0.9872,37.44,82.31,343.56,-0.1986,8.0754,2.0197,8.3265
1,3,0,0,08.004,8004,-7.2700,6.9100,0.7800,10.0603,0.2629,-0.3589,-0.9730,44.38,82.63,339.56,-1.1305,7.9218,1.8564,8.2146
1,3,0,0,08.125,8125,-7.6700,6.0400,0.7700,9.7930,0.1658,-0.4549,-0.8367,50.50,83.44,336.44,-1.9922,7.6738,1.7132,8.1112
1,3,0,0,08.246,8246,-8.2200,5.9200,0.4000,10.1378,0.2913,-0.3851,-0.7363,56.00,85.38,333.88,-2.8129,7.4427,1.5402,8.1042
1,3,0,0,08.367,8367,-8.6100,5.6800,0.7000,10.3385,0.6360,-0.3523,-0.4222,60.13,85.19,333.81,-3.5768,7.2104,1.4294,8.1748
1,3,0,0,08.530,8530,-8.8100,5.8100,0.8900,10.5908,0.2323,-0.1505,0.8094,57.94,85.50,341.13,-4.2664,7.0259,1.3584,8.3313
1,3,0,0,08.655,8655,-8.1900,6.8500,0.8300,10.7092,-0.1167,0.5072,1.2021,50.06,84.31,348.06,-4.7834,7.0027,1.2887,8.5779
1,3,0,0,08.776,8776,-6.5800,7.5400,1.0400,10.0613,-0.3534,0.7450,1.5959,39.81,82.50,356.19,-5.0202,7.0735,1.2560,8.7644
1,3,0,0,08.896,8896,-5.0500,8.5200,0.9300,9.9478,-0.2378,0.4723,1.4344,29.13,82.88,2.44,-5.0241,7.2641,1.2130,8.9152
1,3,0,0,09.018,9018,-4.2200,9.2900,0.8800,10.2414,0.1778,0.2738,1.0297,21.19,82.50,8.38,-4.9181,7.5311,1.1691,9.0704
1,3,0,0,09.138,9138,-3.0700,9.3200,1.5500,9.9343,0.3480,0.4418,1.5403,13.38,80.31,14.56,-4.6746,7.7668,1.2193,9.1467
1,3,0,0,09.259,9259,-1.1000,9.3900,2.0600,9.6760,0.0065,0.4745,1.4879,2.31,78.81,22.63,-4.2036,7.9807,1.3301,9.1176
1,3,0,0,09.380,9380,0.9000,9.1900,1.5800,9.3682,-0.0305,0.4396,1.6406,-8.38,79.44,30.50,-3.5310,8.1401,1.3630,8.9770
1,3,0,0,09.547,9547,2.5800,8.7500,1.5200,9.2482,0.1385,0.2509,1.2774,-21.06,79.00,40.81,-2.7258,8.2204,1.3837,8.7704
1,3,0,0,09.669,9669,4.5500,7.8400,1.7500,9.2320,0.1364,0.1974,1.1399,-30.00,77.69,47.75,-1.7670,8.1703,1.4320,8.4810
1,3,0,0,09.789,9789,5.1400,6.9200,1.7800,8.8020,-0.1069,0.1702,1.0177,-36.88,77.25,54.06,-0.8568,8.0056,1.4778,8.1858
1,3,0,0,09.910,9910,6.7400,7.1600,1.4500,9.9396,-0.1353,0.0611,0.8323,-43.38,78.13,60.44,0.1442,7.8941,1.4742,8.0319
1,3,0,0,10.032,10032,6.7700,6.7300,1.8200,9.7179,0.2356,0.0774,0.5181,-47.31,76.94,63.88,1.0173,7.7407,1.5197,7.9538
1,3,0,0,10.152,10152,7.4500,5.7800,1.9500,9.6288,0.3174,-0.2847,0.7112,-52.00,72.75,68.06,1.8650,7.4824,1.5764,7.8708
1,3,0,0,10.274,10274,6.3100,5.5800,2.4900,8.7837,0.9392,-0.3425,0.1734,-52.81,64.94,65.81,2.4507,7.2317,1.6968,7.8219
1,3,0,0,10.400,10400,8.0000,2.8200,3.8800,9.3277,0.2880,-0.1134,0.4898,-55.00,57.25,64.81,3.1820,6.6503,1.9845,7.6348
1,4,0,0,10.563,10563,7.7500,4.0100,3.2500,9.3116,-0.2694,0.1014,-0.2193,-53.38,59.75,63.38,3.7839,6.3024,2.1513,7.6594
1,4,0,0,10.684,10684,6.9600,5.7200,2.9000,9.4641,-0.1898,-0.0829,-1.0592,-50.00,63.63,60.31,4.2025,6.2257,2.2499,7.8410
1,4,0,0,10.805,10805,5.7800,7.1100,3.1100,9.6764,0.0196,-0.0185,-1.1345,-41.94,67.13,51.25,4.4103,6.3422,2.3633,8.0783
1,4,0,0,10.927,10927,6.0000,6.1500,2.8800,9.0618,-0.1047,-0.1636,-0.6305,-38.25,68.31,47.88,4.6198,6.3169,2.4314,8.1949
1,4,0,0,11.052,11052,3.5000,7.3400,2.7600,8.5874,-0.1571,-0.1833,-1.9351,-27.50,71.06,38.31,4.4723,6.4517,2.4747,8.2310
1,4,0,0,11.173,11173,1.6300,9.9400,2.6300,10.4104,-0.1680,-0.1920,-1.5643,-16.31,73.13,28.63,4.0977,6.9114,2.4951,8.4133
1,4,0,0,11.294,11294,1.5100,9.3800,2.7300,9.8852,-0.2007,-0.2629,-1.2326,-7.25,74.63,20.50,3.7567,7.2367,2.5261,8.5360
1,4,0,0,11.415,11415,-1.2200,9.6500,2.3100,9.9973,-0.2760,-0.2443,-1.3352,2.31,76.31,12.75,3.1009,7.5547,2.4976,8.5397
1,4,0,0,11.577,11577,-1.7100,9.3900,1.8600,9.7240,-0.3033,-0.1702,-0.7909,10.38,78.94,6.06,2.4670,7.7965,2.4136,8.5263
1,4,0,0,11.702,11702,-3.3700,9.7500,1.6200,10.4424,-0.2280,-0.1156,-0.8149,16.69,80.69,0.31,1.6978,8.0539,2.3090,8.5487
1,4,0,0,11.823,11823,-3.3800,8.7400,1.4400,9.4808,-0.0502,-0.1254,-0.6556,21.25,81.44,356.13,1.0287,8.1443,2.1945,8.4973
1,4,0,0,11.945,11945,-4.8700,8.1300,1.2700,9.5617,-0.0164,-0.0654,-1.0647,27.63,81.63,350.94,0.2514,8.1425,2.0727,8.4059
1,4,0,0,12.066,12066,-5.9100,7.7500,1.1500,9.8139,-0.0633,-0.0884,-1.1301,35.25,81.31,344.63,-0.5605,8.0907,1.9511,8.3415
1,4,0,0,12.187,12187,-6.6300,7.3900,0.9300,9.9717,-0.1789,-0.1800,-0.8563,41.94,82.19,339.69,-1.3603,7.9984,1.8165,8.3141
1,4,0,0,12.308,12308,-7.3500,6.9200,0.4400,10.1046,-0.1014,-0.2389,-0.9228,47.81,84.13,335.06,-2.1496,7.8563,1.6351,8.3076
1,4,0,0,12.429,12429,-8.1600,6.2100,0.4300,10.2633,0.1920,-0.0774,-0.9272,54.06,84.44,331.56,-2.9416,7.6394,1.4763,8.3182
1,4,0,0,12.596,12596,-8.1300,4.7500,1.2200,9.4946,0.5847,0.1254,-0.7461,61.13,77.13,328.25,-3.6253,7.2586,1.4426,8.2408
1,4,0,0,12.718,12718,-8.7400,3.8300,1.2500,9.6239,0.6130,-0.3502,-0.4778,66.00,72.44,327.19,-4.2993,6.8068,1.4172,8.1747
1,4,0,0,12.839,12839,-9.3600,2.9000,0.8800,9.8384,0.6349,-0.5051,-0.2771,69.44,73.50,329.19,-4.9662,6.2920,1.3464,8.1280
1,4,0,0,12.960,12960,-9.8700,3.3200,0.8400,10.4472,0.3174,-0.2520,0.1789,70.88,76.19,334.00,-5.6124,5.9004,1.2797,8.2432
1,4,0,0,13.082,13082,-9.2100,4.1500,1.0200,10.1532,-0.0175,0.0491,1.0396,66.56,79.38,339.44,-6.0865,5.6697,1.2454,8.4108
1,4,0,0,13.203,13203,-8.2100,5.0500,0.9300,9.6836,-0.1876,0.3305,0.8639,59.38,80.06,345.19,-6.3663,5.5880,1.2039,8.5560
1,4,0,0,13.323,13323,-8.1300,5.5700,1.1200,9.9185,-0.2520,0.3567,0.6185,54.81,79.00,347.06,-6.5987,5.5857,1.1928,8.7273
1,4,0,0,13.449,13449,-7.3900,6.3600,1.0900,9.8107,-0.2062,0.3567,0.8159,49.06,79.19,350.88,-6.7030,5.6877,1.1793,8.8696
1,4,0,0,13.611,13611,-6.5400,7.1800,1.3600,9.8068,-0.0262,0.2509,0.7898,41.56,78.19,355.31,-6.6815,5.8844,1.2031,8.9842
1,4,0,0,13.733,13733,-5.9000,7.6300,1.4300,9.7505,-0.0142,0.1745,0.9054,35.63,78.44,0.25,-6.5785,6.1144,1.2330,9.0655
1,4,0,0,13.853,13853,-5.1600,8.5400,1.7000,10.1216,0.0687,0.2476,0.8530,29.94,78.06,4.88,-6.3916,6.4340,1.2945,9.1610
1,5,0,0,13.974,13974,-3.8000,8.4500,1.9400,9.4660,0.2083,0.1996,1.0014,23.31,77.06,10.50,-6.0501,6.6997,1.3796,9.1319
1,5,0,0,14.096,14096,-3.3700,9.0000,2.1900,9.8566,0.3643,0.1233,0.6294,18.06,75.25,15.00,-5.6969,7.0028,1.4864,9.1490
1,5,0,0,14.217,14217,-2.3900,8.9600,2.9200,9.7221,0.6163,0.2825,0.6643,14.00,71.94,17.56,-5.2612,7.2607,1.6753,9.1216
1,5,0,0,14.338,14338,-1.9000,9.4400,3.5100,10.2491,0.8607,0.0796,0.3403,10.00,67.06,19.81,-4.8182,7.5479,1.9171,9.1576
1,5,0,0,14.463,14463,-1.5900,8.6500,5.0300,10.1317,0.8759,0.2291,0.6447,6.69,60.88,22.06,-4.3928,7.6931,2.3273,9.1595
1,5,0,0,14.625,14625,-0.3700,8.1800,5.3800,9.7976,0.2574,0.3905,0.9021,-1.06,56.56,27.19,-3.8627,7.7573,2.7295,9.0855
1,5,0,0,14.747,14747,1.0200,8.1200,5.3000,9.7501,0.2094,0.2847,1.1672,-7.94,55.00,31.31,-3.2193,7.8051,3.0683,8.9832
1,5,0,0,14.867,14867,1.9800,7.5100,5.4600,9.4938,0.4211,0.1124,0.8738,-14.25,52.13,36.50,-2.5342,7.7662,3.3834,8.8421
1,5,0,0,14.989,14989,2.8400,6.3100,6.6600,9.6040,0.3938,0.2149,0.9479,-19.19,48.31,40.81,-1.8260,7.5743,3.8152,8.6753
1,5,0,0,15.115,15115,3.7400,6.1700,5.9700,9.3647,0.4287,0.2553,0.9567,-25.13,44.75,45.63,-1.0925,7.3892,4.0991,8.5204
1,5,0,0,15.236,15236,4.1500,5.5000,6.2100,9.2756,0.3131,-0.0807,0.8323,-29.81,39.50,50.63,-0.4017,7.1403,4.3773,8.3849
1,5,0,0,15.356,15356,4.8900,4.2100,7.3700,9.7956,0.1745,-0.0185,0.8956,-32.94,34.75,56.00,0.2956,6.7542,4.7717,8.2749
1,5,0,0,15.477,15477,5.2900,3.4500,7.0600,9.4726,-0.2553,0.4058,0.9937,-37.06,32.56,61.31,0.9537,6.3188,5.0732,8.1593
1,5,0,0,15.640,15640,6.4100,4.2600,5.9400,9.7221,-0.7221,0.3600,0.7887,-44.56,33.56,70.38,1.6727,6.0475,5.1874,8.1412
1,5,0,0,15.760,15760,7.2200,3.3300,4.9800,9.3818,-0.3065,0.2891,0.8029,-49.31,33.69,76.63,2.4037,5.6894,5.1601,8.0482
1,5,0,0,15.898,15898,7.0200,1.1000,4.6200,8.4755,0.1407,0.0829,0.2858,-52.31,31.00,80.13,3.0120,5.0846,5.0889,7.7989
1,5,0,0,16.018,16018,7.0400,1.7800,5.0100,8.8221,-0.0087,-0.2880,-1.2577,-50.00,33.38,76.69,3.5428,4.6491,5.0785,7.7432
1,5,0,0,16.139,16139,5.4800,4.0100,5.0900,8.4864,0.0960,-0.4800,-1.7650,-41.38,40.19,66.69,3.7981,4.5649,5.0800,7.8148
1,5,0,0,16.260,16260,3.9000,5.8400,5.9300,9.1913,0.1156,-0.6000,-2.1446,-29.75,44.50,53.69,3.8115,4.7329,5.1920,7.9929
1,5,0,0,16.381,16381,1.9400,7.6100,6.5600,10.2328,-0.1963,-0.4396,-1.8533,-17.25,47.94,41.31,3.5649,5.1121,5.3723,8.2282
1,5,0,0,16.502,16502,1.0100,7.5900,6.3100,9.9219,-0.3938,-0.3251,-1.1650,-8.19,51.06,32.81,3.2282,5.4386,5.4959,8.3788
1,5,0,0,16.670,16670,-0.6900,8.8300,5.3800,10.3629,-0.8421,-0.1244,-1.1726,2.00,57.13,23.19,2.7119,5.8855,5.4806,8.4871
1,5,0,0,16.791,16791,-1.1000,8.7800,4.1600,9.7777,-0.7341,-0.1320,-0.4592,6.94,63.00,18.13,2.2096,6.2669,5.3066,8.5039
1,5,0,0,16.911,16911,-2.3500,8.7600,3.5400,9.7361,-0.5007,-0.3763,-1.1966,12.69,66.88,13.44,1.6088,6.5954,5.0738,8.4753
1,5,0,0,17.032,17032,-3.8500,8.3000,3.2200,9.6995,-0.3589,-0.3349,-0.9196,20.44,69.38,7.06,0.8894,6.8201,4.8295,8.4041
1,5,0,0,17.154,17154,-4.9100,7.8500,2.7500,9.6588,-0.4658,-0.2258,-1.1836,27.56,71.81,1.06,0.1252,6.9558,4.5555,8.3157
1,5,0,0,17.275,17275,-6.1500,8.2900,1.9200,10.4992,-0.5912,-0.1113,-1.0865,35.63,74.75,352.06,-0.7017,7.1316,4.2082,8.3103
1,5,0,0,17.397,17397,-6.1500,7.7600,1.3800,9.9972,-0.5749,-0.1342,-0.6676,40.75,78.13,345.31,-1.4196,7.2144,3.8355,8.2930
1,5,0,0,17.522,17522,-7.2200,7.2900,0.6800,10.2827,-0.4211,-0.2149,-0.8519,45.81,82.06,339.25,-2.1840,7.2244,3.4197,8.2859
1,5,0,0,17.684,17684,-7.9000,5.6700,0.3300,9.7297,-0.1833,0.1124,-0.9479,54.06,84.88,332.25,-2.9372,7.0195,3.0125,8.1839
1,5,0,0,17.805,17805,-7.8600,4.5800,1.1600,9.1707,0.1865,0.6109,-1.3417,61.19,78.25,325.44,-3.5859,6.6981,2.7684,8.0862
1,5,0,0,17.926,17926,-9.2000,3.3000,0.9600,9.8210,0.1549,-0.8116,-0.9185,69.94,73.94,319.25,-4.3257,6.2503,2.5301,8.0112
1,5,0,0,18.047,18047,-10.6700,5.3900,-0.2800,11.9574,0.0622,-1.1705,1.2097,68.63,96.13,326.69,-5.1617,6.1369,2.1598,8.3048
1,5,0,0,18.169,18169,-8.0900,6.6100,0.0000,10.4470,0.0644,0.3927,1.4377,58.06,97.50,338.88,-5.5476,6.1993,1.8752,8.5278
1,5,0,0,18.290,18290,-7.6200,6.6700,0.0800,10.1272,-0.3316,0.3894,0.9872,51.19,92.75,343.69,-5.8207,6.2613,1.6387,8.7046
1,5,0,0,18.415,18415,-7.3200,7.5300,-0.2700,10.5051,-0.4843,0.4134,1.7715,41.88,92.81,349.19,-6.0183,6.4285,1.3871,8.9145
1,5,0,0,18.537,18537,-4.8700,8.9000,-0.5700,10.1613,-0.3643,0.5291,1.5119,29.75,92.88,356.38,-5.8669,6.7542,1.1292,9.0175
1,5,0,0,18.698,18698,-3.2800,9.5200,-0.3200,10.0743,0.3283,0.3163,1.5348,17.13,91.25,5.69,-5.5260,7.1186,0.9383,9.0605
1,6,0,0,18.819,18819,-1.8900,8.8800,0.4500,9.0900,0.4669,0.3229,1.4083,7.19,87.63,14.13,-5.0469,7.3507,0.8739,8.9593
1,6,0,0,18.940,18940,-0.4900,8.6100,0.8000,8.6610,-0.0764,0.4538,1.3897,-2.06,86.13,21.13,-4.4464,7.5167,0.8642,8.7760
1,6,0,0,19.064,19064,1.7800,8.6900,0.0300,8.8705,-0.5400,0.5411,1.4399,-12.13,88.94,28.19,-3.6259,7.6713,0.7543,8.5185
1,6,0,0,19.188,19188,3.4000,9.4500,-0.6600,10.0647,-0.3512,0.3272,0.8268,-19.44,93.38,33.25,-2.7001,7.9057,0.5679,8.3733
1,6,0,0,19.309,19309,4.1200,9.7700,-0.9300,10.6439,0.3087,0.0098,0.7123,-24.38,93.81,37.44,-1.8014,8.1513,0.3705,8.3562
1,6,0,0,19.430,19430,4.5100,8.5900,-0.1900,9.7038,0.5007,-0.1833,0.8650,-30.31,90.38,42.38,-0.9697,8.2091,0.2967,8.2715
1,6,0,0,19.551,19551,5.1600,7.2500,1.0600,8.9617,0.1211,0.1604,1.1737,-36.88,88.00,47.81,-0.1620,8.0828,0.3972,8.0941
1,6,0,0,19.714,19714,6.8000,6.8900,0.4300,9.6900,-0.0644,0.4091,1.0036,-46.06,90.38,53.13,0.7554,7.9256,0.4016,7.9716
1,6,0,0,19.840,19840,7.1800,6.1400,-0.1700,9.4489,0.0753,0.4407,1.1334,-53.00,94.00,58.25,1.6020,7.6903,0.3262,7.8622
1,6,0,0,19.961,19961,8.3000,5.1900,-1.0100,9.8410,0.2345,0.5694,0.8901,-59.19,99.94,61.44,2.4847,7.3608,0.1502,7.7703
1,6,0,0,20.081,20081,9.0300,3.8400,-1.2800,9.8957,0.1353,0.0687,0.8868,-64.81,105.38,65.44,3.3472,6.8969,-0.0383,7.6663
1,6,0,0,20.202,20202,8.9300,2.8900,-1.1900,9.4611,0.4036,-0.2476,0.4854,-69.69,104.19,68.88,4.0828,6.3689,-0.1901,7.5676
1,6,0,0,20.323,20323,8.3200,2.0500,-0.1200,8.5697,0.2509,-0.2694,0.0327,-71.31,97.00,68.38,4.6412,5.7997,-0.1808,7.4304
1,6,0,0,20.444,20444,8.9400,1.5500,-0.0400,9.0735,-0.0327,-0.1647,0.0742,-72.50,93.00,69.19,5.2077,5.2397,-0.1623,7.3892
1,6,0,0,20.565,20565,9.0100,2.3900,-0.1800,9.3233,-0.0033,-0.2694,-1.2752,-69.25,89.44,65.56,5.7087,4.8642,-0.1646,7.5018
1,6,0,0,20.733,20733,6.6400,5.4100,0.3300,8.5713,0.2585,-0.7483,-1.8086,-52.75,81.88,50.06,5.8314,4.9361,-0.0994,7.6407
1,6,0,0,20.854,20854,5.3300,7.3300,1.6800,9.2174,0.2989,-0.8858,-1.9471,-39.06,75.88,39.69,5.7654,5.2516,0.1351,7.7998
1,6,0,0,20.974,20974,3.4400,8.0400,2.6400,9.1348,-0.0196,-0.7483,-1.3995,-25.81,73.69,30.50,5.4589,5.6190,0.4651,7.8479
1,6,0,0,21.096,21096,2.0500,8.5800,2.3200,9.1215,-0.3403,-0.9458,-1.2283,-16.44,73.88,26.94,5.0097,6.0092,0.7096,7.8557
1,6,0,0,21.217,21217,0.3100,9.4400,1.9300,9.6403,-0.2640,-0.9010,-1.6788,-5.44,75.50,22.06,4.3904,6.4613,0.8704,7.8601
1,6,0,0,21.338,21338,-2.0000,9.0500,2.1000,9.5033,0.0502,-1.0112,-1.9210,7.81,76.06,14.63,3.5483,6.8024,1.0324,7.7414
1,6,0,0,21.476,21476,-5.5500,8.3200,2.3900,10.2828,0.0327,-0.9610,-1.8653,24.13,76.81,6.56,2.3494,7.0024,1.2113,7.4847
1,6,0,0,21.596,21596,-6.7600,8.0100,2.1200,10.6936,-0.3545,-0.4680,-1.4639,36.31,79.25,357.56,1.1490,7.1352,1.3311,7.3487
1,6,0,0,21.758,21758,-7.6300,7.6800,0.9000,10.8632,-0.4614,-0.2236,-1.0581,46.75,84.31,346.81,-0.0078,7.2070,1.2743,7.3188
1,6,0,0,21.880,21880,-7.9600,6.6200,0.3300,10.3583,-0.2018,-0.0480,-0.8639,53.56,87.00,339.06,-1.0557,7.1296,1.1498,7.2985
1,6,0,0,22.000,22000,-8.5100,5.7900,0.1400,10.2939,0.0491,0.2574,-0.6174,58.13,85.88,333.81,-2.0380,6.9531,1.0168,7.3166
1,6,0,0,22.125,22125,-8.4600,4.5600,0.6900,9.6354,0.2051,0.6512,-0.8650,62.63,78.00,328.13,-2.8843,6.6377,0.9737,7.3025
1,6,0,0,22.248,22248,-8.4800,3.5300,1.5600,9.3169,0.1167,0.1451,-1.1672,68.75,64.25,321.38,-3.6216,6.2282,1.0510,7.2809
1,6,0,0,22.369,22369,-10.2900,2.7300,1.0600,10.6986,0.0415,-0.3632,-0.2182,73.44,62.19,317.81,-4.5004,5.7672,1.0521,7.3906
1,6,0,0,22.490,22490,-9.7900,3.1400,0.9500,10.3250,0.1113,-0.2389,0.5520,73.13,69.25,322.38,-5.1974,5.4210,1.0387,7.5815
1,6,0,0,22.612,22612,-8.5200,4.3500,1.0300,9.6215,0.1113,-0.4614,1.1661,67.94,78.50,332.44,-5.6352,5.2799,1.0375,7.7916
1,6,0,0,22.779,22779,-8.7900,5.9700,0.4700,10.6361,0.0393,-0.0065,0.8956,58.81,86.75,345.25,-6.0510,5.3708,0.9628,8.1478
1,6,0,0,22.900,22900,-7.5800,6.3700,0.4800,9.9128,0.1004,0.2389,1.1737,51.81,84.50,351.69,-6.2524,5.5025,0.8991,8.3773
1,6,0,0,23.021,23021,-7.1200,7.5300,0.1200,10.3639,0.3567,-0.2793,1.2839,43.13,84.56,1.81,-6.3668,5.7697,0.7965,8.6290
1,6,0,0,23.142,23142,-6.8600,7.3400,0.6200,10.0658,0.4483,0.3163,1.0232,36.88,82.69,9.94,-6.4318,5.9766,0.7732,8.8139
1,6,0,0,23.264,23264,-4.5700,7.8700,1.7000,9.2581,0.1494,0.3065,1.2839,28.75,79.75,16.88,-6.1864,6.2261,0.8953,8.8226
1,6,0,0,23.384,23384,-3.9400,9.1500,1.7500,10.1148,-0.1320,0.4003,1.1585,20.63,79.75,23.31,-5.8904,6.6114,1.0080,8.9120
1,7,0,0,23.506,23506,-1.7900,9.3400,1.7500,9.6697,-0.0415,0.6807,1.3919,11.44,79.94,28.88,-5.3501,6.9710,1.1057,8.8567
1,7,0,0,23.632,23632,-0.7200,9.7700,1.8200,9.9641,0.0349,0.3992,1.1126,3.06,79.56,33.69,-4.7400,7.3398,1.1999,8.8193
1,7,0,0,23.793,23793,1.6500,9.5900,1.9800,9.9303,0.4320,0.4745,1.2250,-10.38,77.25,43.69,-3.8979,7.6363,1.3027,8.6720
1,7,0,0,23.914,23914,3.0400,8.6600,2.2900,9.4595,0.2760,0.2422,1.3504,-19.19,74.63,49.81,-2.9837,7.7712,1.4328,8.4467
1,7,0,0,24.035,24035,4.2500,8.2000,2.2500,9.5061,0.1265,0.2771,1.4475,-28.56,73.13,57.50,-2.0305,7.8277,1.5405,8.2322
1,7,0,0,24.156,24156,5.6200,6.7100,2.4400,9.0864,0.0851,0.0894,1.4770,-38.25,71.25,66.19,-1.0223,7.6804,1.6590,7.9238
1,7,0,0,24.277,24277,6.4600,6.1400,2.6200,9.2895,0.0535,0.0873,1.2959,-47.25,68.25,75.13,-0.0363,7.4774,1.7856,7.6878
1,7,0,0,24.404,24404,7.4400,4.7200,2.8800,9.2696,0.1233,0.0960,1.1748,-54.88,64.63,82.31,0.9488,7.1141,1.9298,7.4320
1,7,0,0,24.525,24525,8.0400,2.4300,2.6700,8.8134,0.1811,0.0382,0.9567,-62.50,57.38,89.81,1.8833,6.4968,2.0274,7.0616
1,7,0,0,24.645,24645,8.2500,1.2000,2.4900,8.7007,0.0480,-0.0513,-0.3643,-63.19,55.50,89.94,2.7222,5.7989,2.0883,6.7378
1,7,0,0,24.807,24807,6.6500,4.5100,2.8100,8.5123,0.1560,-0.1287,-1.5675,-53.63,61.69,77.88,3.2398,5.6290,2.1834,6.8520
1,7,0,0,24.928,24928,6.0600,5.7500,3.0600,8.8966,0.1898,-0.0807,-1.5904,-44.63,65.00,62.88,3.6115,5.6450,2.2989,7.0847
1,7,0,0,25.049,25049,4.1400,7.2400,2.6500,8.7510,-0.0425,-0.0807,-2.2318,-32.19,68.25,48.88,3.6811,5.8551,2.3452,7.3030
1,7,0,0,25.171,25171,2.5100,8.6900,2.8900,9.4957,-0.2640,-0.2280,-1.9482,-18.81,71.06,35.50,3.5268,6.2287,2.4170,7.5549
1,7,0,0,25.297,25297,0.0400,9.5300,2.5600,9.8679,-0.2094,-0.5083,-1.9068,-5.63,73.13,25.06,3.0673,6.6637,2.4358,7.7296
1,7,0,0,25.418,25418,-1.9800,9.1000,2.5300,9.6505,-0.2716,-0.2487,-1.7693,7.13,74.63,14.25,2.4022,6.9848,2.4482,7.7815
1,7,0,0,25.538,25538,-4.8400,8.9900,1.7800,10.3641,-0.6240,-0.3196,-2.1598,20.63,77.31,1.63,1.4479,7.2490,2.3602,7.7598
1,7,0,0,25.659,25659,-6.5100,8.6400,1.1500,10.8790,-0.5967,0.0240,-1.7737,34.13,80.81,347.25,0.3992,7.4323,2.2007,7.7616
1,7,0,0,25.822,25822,-7.5700,7.7400,0.7400,10.8517,-0.1309,0.0611,-1.6853,48.19,81.94,330.44,-0.6509,7.4729,2.0082,7.7653
1,7,0,0,25.942,25942,-8.2200,5.9600,1.0400,10.2064,0.0905,0.0524,-1.4508,58.88,78.88,319.44,-1.6483,7.2735,1.8806,7.6914
1,7,0,0,26.064,26064,-9.1300,4.4800,1.0800,10.2271,0.2563,0.0818,-0.8574,66.00,73.38,312.75,-2.6342,6.9054,1.7751,7.6010
1,7,0,0,26.190,26190,-9.1400,3.5200,1.2800,9.8777,0.4407,0.1113,-0.6250,69.94,65.19,309.94,-3.4915,6.4593,1.7099,7.5390
1,7,0,0,26.311,26311,-9.4800,3.3200,1.4600,10.1501,0.4996,-0.3414,-0.0338,72.63,60.44,310.38,-4.2806,6.0456,1.6770,7.5951
1,7,0,0,26.431,26431,-9.7100,4.2600,1.1800,10.6688,0.3916,-0.5912,1.1672,70.06,71.94,320.06,-4.9961,5.8103,1.6115,7.8305
1,7,0,0,26.552,26552,-9.7100,5.8000,0.9000,11.3461,0.0731,-0.1538,1.7377,60.69,81.88,333.69,-5.6173,5.8089,1.5177,8.2220
1,7,0,0,26.673,26673,-7.8200,7.1200,0.8200,10.6075,-0.1636,0.5432,1.8620,48.38,82.25,344.38,-5.9075,5.9817,1.4258,8.5272
1,7,0,0,26.836,26836,-5.6500,7.7500,0.8900,9.6321,0.1254,0.1233,1.8130,31.31,81.81,358.56,-5.8736,6.2147,1.3552,8.6579
1,7,0,0,26.962,26962,-4.7700,8.5200,1.4800,9.8759,0.4102,0.0884,1.2872,21.31,80.38,9.19,-5.7282,6.5185,1.3716,8.7855
1,7,0,0,27.083,27083,-2.5800,9.3700,2.3000,9.9872,0.7898,0.4069,1.4410,11.56,75.94,17.88,-5.3133,6.8943,1.4940,8.8314
1,8,0,0,27.204,27204,-1.1500,8.4600,3.3600,9.1752,0.4418,0.5858,1.6439,0.44,71.31,26.50,-4.7647,7.1006,1.7399,8.7263
1,8,0,0,27.326,27326,1.5000,8.1200,2.9300,8.7618,-0.4625,0.8476,1.6461,-11.56,71.69,33.94,-3.9392,7.2349,1.8967,8.4533
1,8,0,0,27.446,27446,3.8400,8.8800,1.5200,9.7934,-0.6141,0.5716,1.5577,-23.31,76.56,42.25,-2.9141,7.4517,1.8471,8.2117
1,8,0,0,27.568,27568,5.1600,8.7600,1.3500,10.2560,0.0120,0.0415,1.1541,-32.19,78.63,50.31,-1.8501,7.6241,1.7816,8.0451
1,8,0,0,27.694,27694,5.5500,7.6000,2.0300,9.6272,0.6218,-0.1058,1.1814,-39.06,74.56,56.63,-0.8750,7.6209,1.8143,7.8826
1,8,0,0,27.857,27857,7.0000,5.0100,2.7100,9.0246,0.3392,0.0055,1.5021,-51.00,63.94,67.00,0.1627,7.2769,1.9323,7.5308
1,8,0,0,27.978,27978,7.3900,4.3500,2.7200,8.9963,-0.1396,0.1614,0.9119,-58.00,59.06,74.00,1.1151,6.8912,2.0361,7.2717
1,8,0,0,28.098,28098,8.6200,2.8800,2.8000,9.5099,-0.2902,0.1614,1.1977,-65.06,55.06,82.00,2.1041,6.3626,2.1368,7.0339
1,8,0,0,28.219,28219,8.5000,1.7400,2.4700,9.0210,-0.2214,0.2214,0.2814,-69.63,52.00,88.19,2.9469,5.7535,2.1807,6.8222
1,8,0,0,28.342,28342,8.6900,1.8200,1.7800,9.0552,-0.0338,0.1134,-0.2203,-70.31,55.94,88.56,3.7037,5.2351,2.1279,6.7566
1,8,0,0,28.467,28467,7.9700,3.6000,1.6500,8.8996,0.2214,-0.2553,-1.2370,-65.44,59.56,83.00,4.2659,5.0197,2.0649,6.9035
1,8,0,0,28.588,28588,7.8600,3.8200,2.8200,9.1828,0.3240,-0.2356,-1.3832,-56.88,63.44,71.00,4.7395,4.8616,2.1644,7.1262
1,8,0,0,28.709,28709,5.7700,5.6400,2.5100,8.4500,-0.0033,-0.3142,-1.5839,-47.13,65.38,60.75,4.8753,4.9642,2.2100,7.3004
1,8,0,0,28.871,28871,3.4900,7.4500,2.7500,8.6744,-0.2520,-0.2978,-2.2973,-29.50,70.38,44.13,4.6927,5.2917,2.2811,7.4315
1,8,0,0,28.991,28991,1.2200,8.8600,2.8400,9.3837,-0.0938,-0.3371,-2.3682,-14.19,72.50,30.69,4.2351,5.7619,2.3548,7.5287
1,8,0,0,29.129,29129,-2.1100,8.6600,2.6200,9.2904,-0.2356,-0.4025,-2.5035,3.88,73.88,14.56,3.3990,6.1438,2.3897,7.4169
1,8,0,0,29.250,29250,-5.1900,8.8300,2.0400,10.4435,-0.5651,-0.3534,-2.4075,21.88,76.44,357.94,2.2672,6.4978,2.3436,7.2701
1,8,0,0,29.371,29371,-7.1200,8.0700,0.9200,10.8012,-0.6490,-0.3589,-1.9700,36.13,80.25,343.81,1.0302,6.7050,2.1560,7.1180
1,8,0,0,29.491,29491,-8.8000,7.7200,0.3700,11.7122,-0.3065,-0.2978,-1.8217,49.19,84.31,330.38,-0.2652,6.8387,1.9207,7.1083
1,8,0,0,29.612,29612,-9.7600,5.8900,0.3500,11.4049,0.0033,0.0175,-1.1846,59.13,84.63,320.50,-1.5164,6.7137,1.7137,7.0930
1,8,0,0,29.733,29733,-8.9200,4.7400,0.4300,10.1103,0.0175,0.0360,-0.6360,64.81,82.63,314.56,-2.4920,6.4536,1.5445,7.0884
1,8,0,0,29.896,29896,-9.4800,4.5900,0.5400,10.5466,0.1920,-0.2138,-0.3142,67.94,83.13,313.56,-3.4128,6.2080,1.4122,7.2237
1,8,0,0,30.017,30017,-9.8400,5.0400,0.7200,11.0791,0.2193,0.0000,0.5825,66.44,83.63,318.00,-4.2597,6.0541,1.3210,7.5195
1,8,0,0,30.137,30137,-9.2000,6.1300,0.7200,11.0786,0.1265,0.1854,1.6013,58.31,82.75,328.19,-4.9107,6.0641,1.2418,7.9013
1,8,0,0,30.263,30263,-8.0700,7.1000,0.7100,10.7721,0.1200,0.2051,1.7944,46.38,82.31,339.94,-5.3271,6.2006,1.1717,8.2582
1,8,0,0,30.383,30383,-7.0100,8.2000,0.8600,10.8222,0.2727,0.2302,2.1358,32.25,81.25,353.63,-5.5488,6.4641,1.1306,8.5937
1,8,0,0,30.504,30504,-5.0000,9.2200,1.5400,10.6009,0.8007,0.2563,2.3038,16.69,78.06,9.00,-5.4765,6.8273,1.1846,8.8321
1,9,0,0,30.625,30625,-2.5100,7.9200,2.8400,8.7802,0.8192,0.4931,2.2133,1.56,72.38,22.75,-5.0856,6.9712,1.4027,8.7424
1,9,0,0,30.746,30746,0.3000,7.6100,3.3400,8.3161,0.3054,0.7189,1.7039,-12.13,68.81,32.94,-4.3759,7.0554,1.6580,8.4662
1,9,0,0,30.914,30914,3.0600,8.3600,2.9900,9.3911,-0.0076,0.8214,1.4606,-26.31,68.94,40.63,-3.3960,7.2273,1.8335,8.1932
1,9,0,0,31.035,31035,5.3000,7.7300,2.5900,9.7237,0.1287,0.6360,1.4464,-38.38,69.19,48.31,-2.2501,7.2936,1.9332,7.8738
1,9,0,0,31.156,31156,6.1500,5.9600,2.4600,8.9104,0.1953,0.4494,1.3504,-48.06,67.56,54.56,-1.1432,7.1178,2.0026,7.4820
1,9,0,0,31.277,31277,7.7800,4.3900,2.0300,9.1609,-0.3622,0.2323,1.3821,-57.94,65.31,63.75,0.0326,6.7584,2.0062,7.0499
1,9,0,0,31.399,31399,7.9700,4.3000,1.4300,9.1682,-0.8149,0.3349,0.7101,-64.50,68.00,72.56,1.0786,6.4344,1.9303,6.8038
1,9,0,0,31.519,31519,8.8100,3.7700,0.8100,9.6169,-0.7799,0.1069,0.8268,-69.63,73.25,81.69,2.0974,6.0833,1.7827,6.6771
1,9,0,0,31.641,31641,8.7100,3.2100,1.1900,9.3586,-0.3469,-0.3327,0.3382,-73.38,69.44,89.63,2.9688,5.7047,1.7046,6.6530
1,9,0,0,31.767,31767,8.7400,2.2900,1.9200,9.2368,0.3523,-0.2542,-0.0207,-72.88,61.94,90.50,3.7293,5.2547,1.7330,6.6725
1,9,0,0,31.930,31930,7.5400,3.2800,1.8300,8.4237,0.5814,-0.5411,-0.8476,-66.00,59.00,81.44,4.2314,4.9945,1.7457,6.7748
1,9,0,0,32.050,32050,7.3700,2.8400,3.4000,8.5990,0.6163,-0.5356,-1.0941,-59.38,53.31,71.94,4.6450,4.7106,1.9637,6.9009
1,9,0,0,32.171,32171,5.4400,5.8700,3.6800,8.8087,0.0382,-0.2956,-1.9897,-48.31,57.44,59.94,4.7498,4.8634,2.1899,7.1420
1,9,0,0,32.292,32292,5.1000,7.7900,3.8000,10.0565,-0.1767,-0.1767,-1.5555,-37.44,62.56,49.06,4.7959,5.2490,2.4021,7.5049
1,9,0,0,32.417,32417,3.4600,7.7500,3.5900,9.2153,-0.1789,-0.3720,-1.2228,-28.81,65.00,41.88,4.6199,5.5786,2.5586,7.6818
1,9,0,0,32.538,32538,1.7100,8.1000,3.0700,8.8294,-0.2323,-0.3883,-1.6679,-19.06,67.19,34.38,4.2364,5.9109,2.6260,7.7318
1,9,0,0,32.660,32660,-0.8300,8.6000,3.0700,9.1692,-0.3894,-0.5432,-2.2242,-4.75,69.81,23.06,3.5688,6.2652,2.6845,7.6939
1,9,0,0,32.781,32781,-3.9200,9.3800,2.7600,10.5342,-0.5520,-0.3807,-2.1151,10.50,73.13,10.19,2.5820,6.6757,2.6945,7.6479
1,9,0,0,32.943,32943,-5.4500,8.7400,1.9100,10.4756,-0.4865,-0.3709,-1.5730,25.50,77.50,356.44,1.5236,6.9477,2.5911,7.5700
1,9,0,0,33.064,33064,-7.3000,7.7400,1.1200,10.6982,-0.4243,-0.2116,-1.7442,36.69,80.44,345.69,0.3608,7.0521,2.3972,7.4571
1,9,0,0,33.185,33185,-8.5000,6.4300,0.7600,10.6852,-0.2389,-0.0295,-1.5010,47.88,81.63,333.56,-0.8068,6.9701,2.1815,7.3479
1,9,0,0,33.311,33311,-8.4100,5.3200,0.3500,9.9576,-0.1680,-0.1658,-0.8007,55.25,82.13,325.50,-1.8087,6.7527,1.9401,7.2549
1,9,0,0,33.433,33433,-9.0600,5.6900,0.1200,10.6993,0.0807,-0.4309,-0.7690,60.81,85.69,321.06,-2.7642,6.6126,1.7003,7.3661
1,9,0,0,33.554,33554,-9.5100,5.6600,0.1300,11.0676,0.3327,-0.1396,0.0349,63.56,87.75,321.56,-3.6532,6.4871,1.4934,7.5933
1,9,0,0,33.675,33675,-8.8100,6.3200,0.2900,10.8463,0.3469,0.0044,1.1901,58.25,86.13,330.44,-4.3327,6.4651,1.3348,7.8963
1,9,0,0,33.796,33796,-8.1900,6.8800,0.0700,10.6965,0.3283,-0.1887,1.6341,48.38,86.06,344.25,-4.8410,6.5198,1.1681,8.2041
1,9,0,0,33.961,33961,-7.4800,7.7600,0.2400,10.7808,0.6316,-0.0229,1.7246,33.50,83.94,2.88,-5.1887,6.6832,1.0458,8.5254
1,9,0,0,34.085,34085,-5.9400,8.5900,1.0600,10.4974,0.6949,0.1134,1.9875,20.31,79.88,17.81,-5.2877,6.9345,1.0477,8.7832
1,9,0,0,34.206,34206,-3.1300,8.5400,2.4200,9.4120,0.6807,0.4112,2.2286,5.25,75.31,32.25,-5.0034,7.1460,1.2285,8.8096
1,10,0,0,34.326,34326,-0.6100,8.4100,2.8100,8.8880,0.2280,0.7483,2.0802,-9.31,72.38,43.25,-4.4245,7.3126,1.4369,8.6669
1,10,0,0,34.447,34447,2.4000,8.5600,2.6500,9.2766,0.1614,0.8290,1.7039,-22.75,71.81,51.81,-3.5252,7.4770,1.5968,8.4191
1,10,0,0,34.568,34568,4.3000,7.9000,2.3600,9.2989,0.2585,0.6523,1.6232,-34.63,71.00,59.25,-2.4940,7.5327,1.6974,8.1144
1,10,0,0,34.690,34690,5.6600,6.8100,2.3800,9.1693,0.4200,0.4407,1.5403,-46.06,68.50,66.69,-1.4195,7.4375,1.7873,7.7798
1,10,0,0,34.816,34816,7.5300,5.0400,2.3300,9.3558,0.5454,0.3643,1.5206,-56.63,62.81,74.06,-0.2402,7.1216,1.8588,7.3641
1,10,0,0,34.978,34978,7.8000,3.4200,2.2100,8.7989,0.1604,0.0098,1.1279,-67.75,48.44,83.06,0.8193,6.6338,1.9051,6.9504
1,10,0,0,35.100,35100,8.3600,1.2300,2.3700,8.7761,-0.2302,0.1625,0.8345,-72.56,36.19,89.56,1.8130,5.9217,1.9664,6.4977
1,10,0,0,35.221,35221,8.9400,0.8500,2.2300,9.2531,-0.3829,0.1571,0.1505,-75.69,30.38,94.88,2.7521,5.2534,2.0011,6.2591
1,10,0,0,35.341,35341,8.3300,2.1100,2.4500,8.9355,-0.1854,-0.4036,-0.8312,-73.38,37.25,94.38,3.4871,4.8392,2.0603,6.3105
1,10,0,0,35.463,35463,7.6300,3.4800,3.0500,8.9236,0.3120,-0.2160,-1.4988,-66.25,48.31,84.63,4.0331,4.6601,2.1907,6.5407
1,10,0,0,35.588,35588,6.5300,4.5500,3.0300,8.5161,0.0916,-0.3033,-1.6842,-56.38,56.50,70.31,4.3621,4.6456,2.3013,6.7753
1,10,0,0,35.708,35708,4.9900,6.4400,2.9900,8.6784,-0.2662,-0.2520,-2.1468,-44.44,62.94,57.81,4.4448,4.8820,2.3920,7.0223
1,10,0,0,35.831,35831,2.8600,8.2200,2.8200,9.1488,-0.4461,-0.3371,-2.2842,-28.50,69.63,43.56,4.2360,5.3219,2.4484,7.2292
1,10,0,0,35.993,35993,-0.4200,9.6800,2.6600,10.0476,-0.0785,-0.5356,-2.2613,-8.44,72.94,26.94,3.6225,5.8962,2.4763,7.3498
1,10,0,0,36.114,36114,-3.0000,9.1000,2.6700,9.9468,-0.2574,-0.4309,-1.8250,5.81,73.75,15.38,2.7498,6.3184,2.5018,7.3309
1,10,0,0,36.242,36242,-4.4700,8.5200,1.9200,9.8111,-0.5421,-0.3676,-1.6308,17.06,76.50,6.13,1.7984,6.6085,2.4252,7.2655
1,10,0,0,36.363,36363,-6.9700,8.1500,1.0700,10.7772,-0.6425,-0.2498,-1.7628,30.13,80.81,353.38,0.6430,6.8116,2.2466,7.2013
1,10,0,0,36.483,36483,-7.9600,7.2900,0.2700,10.7972,-0.4647,-0.1625,-1.4017,40.88,84.69,341.69,-0.4907,6.8746,1.9861,7.1726
1,10,0,0,36.604,36604,-8.2400,6.3500,0.1100,10.4035,-0.1724,-0.1647,-0.9359,48.31,87.13,333.56,-1.5119,6.8055,1.7389,7.1850
1,10,0,0,36.725,36725,-8.5400,5.1800,-0.0300,9.9882,0.0774,-0.2487,-0.7385,53.75,88.81,328.94,-2.4380,6.5913,1.5058,7.1873
1,10,0,0,36.847,36847,-9.1500,4.4000,-0.1700,10.1544,0.1538,-0.0273,-0.8236,58.81,89.50,325.13,-3.3225,6.3026,1.2850,7.2396
1,10,0,0,37.010,37010,-9.2100,3.6500,0.1000,9.9074,0.1473,0.1047,-0.5607,66.00,85.81,322.31,-4.0983,5.9530,1.1288,7.3150
1,10,0,0,37.134,37134,-9.6900,4.5600,0.1300,10.7101,0.1516,-0.0894,0.2116,67.06,84.94,323.56,-4.8351,5.7694,0.9972,7.5934
1,10,0,0,37.255,37255,-9.6500,5.3200,0.3200,11.0239,0.1047,-0.0295,1.1661,62.25,85.75,331.25,-5.4696,5.7102,0.9080,7.9591
1,10,0,0,37.376,37376,-8.9300,6.4900,0.3000,11.0433,-0.0742,0.1211,2.1097,50.38,86.44,343.75,-5.9256,5.8130,0.8279,8.3420
1,10,0,0,37.498,37498,-7.5300,7.8500,0.0900,10.8780,-0.0273,0.1374,1.9504,36.50,86.88,356.56,-6.1370,6.0814,0.7306,8.6707
1,10,0,0,37.618,37618,-6.3200,8.7600,-0.1200,10.8025,0.4178,-0.0654,2.3366,22.69,86.19,10.94,-6.1611,6.4344,0.6185,8.9299
1,10,0,0,37.739,37739,-4.0500,8.5900,0.9000,9.5394,0.9239,0.0153,2.2482,6.81,81.63,28.06,-5.8829,6.7184,0.6556,8.9541
1,10,0,0,37.860,37860,-0.6400,7.6000,2.2600,7.9547,0.6905,0.4102,1.7890,-6.25,75.88,39.63,-5.1921,6.8346,0.8670,8.6268
1,10,0,0,38.027,38027,1.9800,7.3700,2.2900,7.9675,0.0491,0.4472,1.1868,-20.00,73.13,49.75,-4.2470,6.9052,1.0545,8.1750
1,10,0,0,38.149,38149,2.7500,8.7600,2.1200,9.4231,0.1276,0.5520,0.4461,-25.63,73.63,51.94,-3.3249,7.1496,1.1949,7.9749
1,10,0,0,38.269,38269,4.5700,8.6900,2.3500,10.0957,0.2934,0.1854,0.5596,-30.31,72.69,53.69,-2.2846,7.3526,1.3472,7.8163
1,10,0,0,38.391,38391,4.0600,7.8300,2.8100,9.2568,0.2563,0.1374,0.2607,-31.38,71.13,53.44,-1.4485,7.4155,1.5399,7.7110
1,10,0,0,38.511,38511,4.5700,7.9900,2.8000,9.6211,-0.0960,0.1309,0.5051,-34.19,70.69,52.56,-0.6554,7.4912,1.7060,7.7109
1,10,0,0,38.633,38633,5.2900,7.7500,2.4000,9.6854,-0.1996,0.1484,0.0796,-36.00,72.31,51.63,0.1280,7.5253,1.7974,7.7380
