participant,rep,equipment_code,exercise_code,timestamp,timestamp_ms,accelX,accelY,accelZ,accelMag,gyroX,gyroY,gyroZ,roll,pitch,yaw,filteredX,filteredY,filteredZ,filteredMag
1,1,0,0,00.000,0,-0.5100,9.8300,1.0900,9.9034,0.0644,-0.0404,0.0142,2.81,83.44,30.19,-0.6070,9.7931,1.2162,9.8870
1,1,0,0,00.121,121,-0.6100,9.6100,1.1400,9.6966,0.0436,-0.0480,-0.1091,3.31,82.94,29.88,-0.6074,9.7690,1.2061,9.8619
1,1,0,0,00.289,289,-0.7400,9.7400,1.1400,9.8344,0.0098,-0.0164,0.0295,3.88,82.94,29.63,-0.6248,9.7652,1.1974,9.8581
1,1,0,0,00.409,409,-0.5500,9.6200,1.2600,9.7177,-0.0447,-0.0033,0.0055,3.81,83.00,29.63,-0.6150,9.7460,1.2057,9.8396
1,1,0,0,00.530,530,-0.6400,9.8500,1.1400,9.9364,0.0000,-0.0382,0.0218,3.88,83.25,29.75,-0.6183,9.7597,1.1970,9.8523
1,1,0,0,00.651,651,-0.7600,9.7600,1.1700,9.8592,0.0349,-0.0731,-0.0753,4.00,83.13,30.00,-0.6370,9.7598,1.1935,9.8531
1,1,0,0,00.773,773,-0.8500,9.6700,1.2100,9.7824,-0.0065,-0.0502,-0.0076,4.44,83.00,30.06,-0.6650,9.7479,1.1956,9.8435
1,1,0,0,00.893,893,-0.8400,9.7500,1.1400,9.8523,-0.0240,-0.0109,-0.0415,4.56,83.19,30.13,-0.6881,9.7482,1.1883,9.8444
1,1,0,0,01.014,1014,-0.8700,9.7500,1.1100,9.8515,0.0022,0.0458,-0.0098,4.75,83.25,29.69,-0.7121,9.7484,1.1780,9.8451
1,1,0,0,01.141,1141,-0.3400,9.7700,1.2500,9.8555,-0.0055,-0.0153,0.0131,4.44,83.19,29.88,-0.6630,9.7513,1.1875,9.8457
1,1,0,0,01.303,1303,0.3300,10.6300,1.5500,10.7475,0.1036,-0.2083,0.3676,4.00,82.94,31.31,-0.5322,9.8671,1.2352,9.9583
1,1,0,0,01.424,1424,0.8400,10.6800,1.7700,10.8582,0.4385,-0.2825,0.8498,0.00,81.25,37.50,-0.3514,9.9742,1.3057,10.0654
1,1,0,0,01.546,1546,1.5600,10.5200,2.1000,10.8404,0.3632,-0.0622,1.1236,-6.38,78.31,44.81,-0.0995,10.0461,1.4104,10.1451
1,1,0,0,01.667,1667,2.3400,10.5300,2.1900,11.0069,0.2345,0.0349,1.7050,-15.06,76.06,52.69,0.2220,10.1099,1.5131,10.2249
1,1,0,0,01.793,1793,4.0200,9.2100,2.2800,10.3045,0.3589,-0.1920,1.7562,-27.00,72.44,64.94,0.7225,9.9913,1.6142,10.1466
1,1,0,0,01.914,1914,4.1000,7.7500,2.4100,9.0929,0.3665,-0.3567,1.9166,-37.06,66.13,76.63,1.1675,9.6960,1.7190,9.9161
1,1,0,0,02.035,2035,5.9400,6.5200,3.6600,9.5493,0.3818,-0.4723,1.2555,-45.63,56.25,88.25,1.7964,9.2774,1.9748,9.6539
1,1,0,0,02.155,2155,6.6700,4.6300,4.5400,9.3025,0.4145,-0.3403,1.5424,-50.88,44.88,96.63,2.4386,8.6650,2.3128,9.2940
1,1,0,0,02.317,2317,6.6700,2.0100,4.8300,8.4769,0.4538,-0.2051,1.5752,-56.38,23.50,109.13,2.9962,7.7881,2.6445,8.7536
1,1,0,0,02.444,2444,7.4000,0.2500,5.5400,9.2474,0.2214,-0.1069,0.8301,-57.69,6.88,116.94,3.5765,6.7947,3.0261,8.2533
1,1,0,0,02.566,2566,6.3100,-1.9300,4.4300,7.9477,0.3153,0.0774,0.9927,-58.31,-4.63,121.81,3.9367,5.6450,3.2111,7.5944
1,1,0,0,02.686,2686,6.5000,-1.9100,4.1700,7.9553,-0.3916,-0.3240,-0.6152,-57.00,-7.19,124.06,4.2745,4.6495,3.3374,7.1434
1,1,0,0,02.808,2808,5.1100,0.2300,4.5700,6.8593,-0.3971,0.0687,-1.6875,-55.50,9.44,114.56,4.3846,4.0671,3.4999,6.9293
1,2,0,0,02.928,2928,6.0500,3.0700,4.8400,8.3338,-0.9981,0.3011,-2.5002,-52.06,32.25,100.00,4.6041,3.9357,3.6765,7.0854
1,2,0,0,03.050,3050,4.4100,8.0400,3.9100,9.9688,-1.1116,0.4134,-2.5918,-40.63,56.19,84.69,4.5785,4.4766,3.7072,7.3990
1,2,0,0,03.171,3171,3.8300,10.3100,2.9500,11.3872,-0.8628,0.5280,-2.3627,-27.69,69.50,69.38,4.4799,5.2453,3.6074,7.7843
1,2,0,0,03.338,3338,2.4300,12.0100,1.5500,12.3510,-0.7025,0.6480,-1.4988,-11.19,80.81,49.00,4.2097,6.1367,3.3363,8.1555
1,2,0,0,03.459,3459,2.1000,11.4100,1.5400,11.7034,-0.1516,0.1462,-1.4181,-1.19,84.06,36.25,3.9317,6.8316,3.0996,8.4697
1,2,0,0,03.579,3579,-0.5800,9.9800,0.7600,10.0257,-0.0807,-0.3109,-0.5051,4.56,84.44,31.44,3.3372,7.2464,2.7913,8.4522
1,2,0,0,03.700,3700,-0.7000,11.0000,0.9500,11.0631,-0.0774,-0.2880,-1.0657,9.75,85.38,28.44,2.8052,7.7411,2.5487,8.6191
1,2,0,0,03.821,3821,-0.5100,10.8100,2.0500,11.0145,0.2094,-0.0185,0.6436,11.88,84.69,27.31,2.3683,8.1455,2.4830,8.8387
1,2,0,0,03.943,3943,0.8100,11.6900,1.3400,11.7944,0.2062,-0.2476,1.2621,4.31,84.06,35.94,2.1630,8.6126,2.3324,9.1812
1,2,0,0,04.064,4064,1.1600,9.5600,1.7300,9.7843,0.9087,-0.4265,1.4868,-5.06,79.38,48.69,2.0308,8.7374,2.2530,9.2489
1,2,0,0,04.190,4190,1.2400,9.7600,2.1200,10.0643,0.6185,-0.6545,1.4159,-13.06,73.63,60.63,1.9266,8.8722,2.2355,9.3501
1,2,0,0,04.353,4353,3.0900,7.6300,4.0500,9.1743,0.6403,-0.0513,1.2392,-22.44,64.81,72.38,2.0799,8.7085,2.4746,9.2891
1,2,0,0,04.473,4473,4.1200,8.1300,4.1300,10.0064,0.3229,-0.1396,0.6600,-27.88,60.25,78.19,2.3487,8.6322,2.6927,9.3425
1,2,0,0,04.595,4595,4.7800,7.1600,4.7100,9.8132,0.6338,-0.0469,0.9196,-31.50,55.19,82.06,2.6691,8.4382,2.9585,9.3317
1,2,0,0,04.716,4716,5.0700,6.9500,5.5500,10.2377,0.5247,-0.0753,0.6032,-34.63,49.50,85.06,2.9855,8.2421,3.3000,9.3668
1,2,0,0,04.842,4842,6.7300,5.0700,6.2800,10.5089,1.1050,0.1516,0.9970,-39.38,40.69,88.81,3.4789,7.8241,3.6927,9.3250
1,2,0,0,04.963,4963,6.0800,4.2100,5.7100,9.3432,0.8530,-0.0458,1.4683,-44.13,28.44,94.50,3.8217,7.3479,3.9585,9.1797
1,2,0,0,05.084,5084,6.0200,0.4600,5.9200,8.4557,0.8639,0.1385,1.4497,-48.06,11.00,102.44,4.1114,6.4402,4.2170,8.7271
1,2,0,0,05.205,5205,6.4700,0.1800,5.6500,8.5916,0.3916,0.2313,0.9654,-49.81,-1.63,109.19,4.4222,5.6153,4.4058,8.3963
1,2,0,0,05.367,5367,5.2000,-4.9200,4.4100,8.4080,0.0829,0.0404,0.9403,-50.25,-17.25,117.31,4.5247,4.2270,4.4064,7.5998
1,2,0,0,05.487,5487,4.5800,-2.1900,4.2800,6.6401,-0.8388,-0.0785,-1.4901,-49.88,-11.19,116.56,4.5320,3.3814,4.3897,7.1584
1,2,0,0,05.608,5608,4.4500,0.7200,5.0600,6.7768,-1.1497,0.5792,-2.3355,-51.56,12.63,105.44,4.5212,3.0307,4.4781,7.0483
1,3,0,0,05.734,5734,5.0100,6.5500,3.8000,9.0798,-1.6657,0.8258,-2.4140,-48.44,42.50,93.56,4.5856,3.4945,4.3887,7.2457
1,3,0,0,05.856,5856,5.8500,9.9000,2.3100,11.7290,-1.0723,1.2021,-1.6799,-40.44,67.50,80.31,4.7522,4.3385,4.1148,7.6379
1,3,0,0,05.977,5977,4.3400,10.4600,1.3800,11.4084,-0.3174,1.0057,-2.3049,-29.31,79.00,63.88,4.6979,5.1452,3.7544,7.9145
1,3,0,0,06.098,6098,2.5700,11.3800,0.6800,11.6864,-0.3022,0.7254,-2.0617,-15.31,83.94,44.81,4.4175,5.9668,3.3493,8.1446
1,3,0,0,06.219,6219,1.1700,11.9100,0.0900,11.9677,-0.0764,0.3589,-1.4835,-3.31,86.06,29.38,3.9895,6.7499,2.9198,8.3668
1,3,0,0,06.382,6382,0.3500,10.0800,1.0400,10.1396,0.1134,-0.1047,-1.0614,7.13,85.00,17.94,3.5099,7.1888,2.6721,8.4343
1,3,0,0,06.507,6507,-0.3500,10.9000,0.6400,10.9244,0.0938,-0.1505,-0.3447,11.44,85.00,14.69,3.0013,7.6778,2.4043,8.5870
1,3,0,0,06.628,6628,-0.4200,10.5400,0.8700,10.5842,0.1549,-0.1811,0.4592,8.69,84.38,18.56,2.5505,8.0550,2.2021,8.7314
1,3,0,0,06.749,6749,-0.6000,10.4600,1.1000,10.5348,0.2160,-0.2607,1.2217,2.81,83.50,25.94,2.1353,8.3719,2.0569,8.8814
1,3,0,0,06.871,6871,0.4700,10.4600,1.2700,10.5473,0.1647,-0.3556,1.4781,-6.31,82.13,37.94,1.9159,8.6471,1.9532,9.0696
1,3,0,0,06.992,6992,1.0300,10.1100,1.5900,10.2860,0.3000,-0.3316,1.4192,-14.63,80.06,48.50,1.7991,8.8398,1.9053,9.2201
1,3,0,0,07.113,7113,2.2600,8.8700,2.1700,9.4071,0.3425,-0.3360,1.0897,-22.81,76.31,58.44,1.8599,8.8438,1.9402,9.2432
1,3,0,0,07.239,7239,3.4300,9.1700,2.4400,10.0900,0.3829,-0.2694,0.6130,-27.81,72.38,64.88,2.0668,8.8868,2.0061,9.3419
1,3,0,0,07.402,7402,4.8000,8.5100,2.6000,10.1104,0.3971,-0.1985,1.0570,-34.31,66.38,72.38,2.4269,8.8371,2.0843,9.3984
1,3,0,0,07.522,7522,4.0100,6.6600,3.9100,8.7019,0.2771,-0.0436,0.8105,-38.00,60.25,76.13,2.6355,8.5502,2.3249,9.2444
1,3,0,0,07.643,7643,6.3000,6.2000,3.0200,9.3408,-0.2160,0.5934,1.4334,-46.69,57.50,84.06,3.1184,8.2405,2.4165,9.1362
1,3,0,0,07.765,7765,8.7100,7.1900,2.9100,11.6631,0.3229,0.2062,0.5967,-53.06,57.75,87.75,3.8553,8.1021,2.4815,9.3094
1,3,0,0,07.891,7891,7.4300,4.9000,3.3700,9.5169,0.5869,-1.0450,1.9580,-57.13,42.13,94.50,4.3263,7.6802,2.5986,9.1899
1,3,0,0,08.012,8012,7.0300,2.9500,4.4500,8.8276,1.0756,-0.6218,1.2283,-57.44,15.63,104.13,4.6826,7.0568,2.8426,8.9334
1,3,0,0,08.133,8133,7.1600,0.2200,5.8200,9.2296,0.5487,-0.2225,1.4301,-55.81,-2.69,109.38,5.0090,6.1559,3.2349,8.5703
1,3,0,0,08.254,8254,6.7100,-0.8700,5.3800,8.6444,0.5978,-0.2542,1.9122,-51.94,-21.00,119.06,5.2332,5.2301,3.5176,8.1923
1,3,0,0,08.417,8417,4.9600,-4.3000,5.3200,8.4495,0.4865,-0.4331,1.9809,-39.94,-40.75,133.63,5.1972,3.9743,3.7551,7.5436
1,3,0,0,08.543,8543,3.1200,-6.4200,4.9800,8.7035,0.2105,-0.2520,0.8127,-31.13,-47.06,141.75,4.9235,2.6046,3.9165,6.8091
1,3,0,0,08.664,8664,3.3800,-6.2000,4.9900,8.6466,-0.3851,0.3720,-1.7737,-34.63,-45.06,138.06,4.7201,1.4443,4.0580,6.3900
1,3,0,0,08.785,8785,4.6300,-2.4700,4.7800,7.0983,-0.9076,0.4658,-2.4380,-46.56,-30.94,125.69,4.7082,0.9285,4.1531,6.3465
1,4,0,0,08.907,8907,5.4700,1.3300,4.4200,7.1572,-1.2861,0.2629,-2.9420,-54.44,-3.94,111.19,4.8086,0.9814,4.1883,6.4519
1,4,0,0,09.027,9027,5.4300,6.7900,5.0900,10.0746,-1.1432,0.2847,-3.4798,-49.88,33.69,92.69,4.8905,1.7469,4.3071,6.7468
1,4,0,0,09.148,9148,5.1200,8.9700,3.7100,10.9745,-1.3919,0.5629,-2.3267,-38.75,57.06,76.75,4.9207,2.6987,4.2284,7.0268
1,4,0,0,09.271,9271,2.4600,11.4200,2.2600,11.8986,-0.9261,0.7974,-2.7740,-24.75,72.00,60.63,4.5965,3.8479,3.9690,7.1894
1,4,0,0,09.433,9433,1.5400,10.1900,2.1800,10.5338,-0.5956,0.4821,-1.9897,-8.19,79.88,37.25,4.1937,4.6837,3.7333,7.3117
1,4,0,0,09.556,9556,-0.0800,12.4000,0.6200,12.4157,-0.5400,0.0818,-1.0123,2.31,84.94,25.44,3.6305,5.7005,3.3230,7.5312
1,4,0,0,09.677,9677,0.4000,11.2300,0.8500,11.2692,-0.5018,0.6087,0.4287,3.63,87.56,21.75,3.2048,6.4291,2.9972,7.7838
1,4,0,0,09.798,9798,2.6200,10.9200,-0.1300,11.2307,-0.3098,0.7887,2.1522,-6.06,90.38,26.06,3.1278,7.0209,2.5851,8.1092
1,4,0,0,09.919,9919,5.3200,11.7100,-1.1600,12.9140,-0.1724,-0.0774,2.3366,-22.31,93.50,40.25,3.4166,7.6388,2.0916,8.6255
1,4,0,0,10.040,10040,5.3100,10.6100,-0.3200,11.8689,0.6643,-1.6439,1.7159,-35.31,87.63,57.44,3.6661,8.0303,1.7738,9.0041
1,4,0,0,10.161,10161,4.5000,8.7500,1.1700,9.9087,1.0374,-1.8882,1.9373,-44.94,69.38,74.94,3.7760,8.1252,1.6942,9.1185
1,4,0,0,10.282,10282,5.8500,6.2300,3.2600,9.1467,1.2479,-1.9450,1.6679,-48.50,43.50,88.19,4.0493,7.8754,1.9006,9.0571
1,4,0,0,10.449,10449,3.6600,3.1600,5.7600,7.5206,1.5010,-1.1977,0.9970,-40.44,16.00,95.31,3.9980,7.2541,2.4091,8.6261
1,4,0,0,10.570,10570,4.6000,0.8500,7.9000,9.1811,1.0876,-0.7527,0.7832,-34.69,0.06,99.88,4.0773,6.4102,3.1327,8.2176
1,4,0,0,10.690,10690,3.3700,-0.3300,7.5500,8.2746,1.0941,-0.2847,1.1879,-30.63,-10.38,102.38,3.9841,5.5220,3.7148,7.7566
1,4,0,0,10.812,10812,3.6600,-2.6100,7.6000,8.8299,0.8858,0.2694,1.0014,-28.50,-21.81,108.00,3.9414,4.4504,4.2267,7.2943
1,4,0,0,10.933,10933,3.7500,-2.5000,6.8200,8.1746,0.6643,0.4025,1.2817,-28.13,-30.00,113.50,3.9162,3.5345,4.5685,6.9786
1,4,0,0,11.053,11053,2.5900,-7.3000,5.6800,9.6052,0.5585,-0.1014,1.2403,-23.31,-39.13,122.50,3.7414,2.1068,4.7149,6.3771
1,4,0,0,11.174,11174,1.6200,-5.6200,5.6100,8.1044,-0.8399,0.0818,-1.4137,-23.94,-36.81,121.13,3.4619,1.0886,4.8329,6.0437
1,5,0,0,11.298,11298,3.2500,-3.1100,6.6400,8.0202,-1.4115,0.5803,-1.6177,-31.63,-24.88,112.88,3.4340,0.5353,5.0710,6.1477
1,5,0,0,11.462,11462,4.4900,2.9600,6.2900,8.2756,-1.5959,0.6250,-2.3267,-40.81,4.88,98.69,3.5731,0.8548,5.2317,6.3928
1,5,0,0,11.584,11584,4.6800,5.5900,5.5200,9.1444,-1.5326,0.6152,-2.0377,-40.63,28.75,87.69,3.7190,1.4788,5.2696,6.6172
1,5,0,0,11.704,11704,3.8900,7.8300,5.0000,10.0718,-1.2806,0.6894,-2.5733,-34.38,48.88,75.13,3.7415,2.3157,5.2341,6.8380
1,5,0,0,11.825,11825,2.7600,9.2300,3.2400,10.1641,-1.3101,1.1072,-1.5970,-26.50,64.75,61.75,3.6122,3.2269,4.9713,6.9408
1,5,0,0,11.946,11946,0.8000,10.8600,0.8100,10.9195,-1.0832,1.2828,-2.2646,-16.38,78.06,44.75,3.2416,4.2327,4.4230,6.9272
1,5,0,0,12.074,12074,-0.3700,11.1400,0.3700,11.1523,-0.8934,0.9239,-2.0671,-4.06,85.88,26.19,2.7657,5.1429,3.8889,7.0159
1,5,0,0,12.195,12195,-0.8000,11.4200,-0.8100,11.4766,-0.5312,0.8607,-1.1661,7.88,91.00,7.56,2.2958,5.9701,3.2697,7.1836
1,5,0,0,12.315,12315,-2.0400,12.0900,-1.1800,12.3176,-0.3894,0.4331,-1.4639,17.06,93.25,353.75,1.7245,6.7765,2.6833,7.4897
1,5,0,0,12.477,12477,-0.1000,11.2200,-0.4200,11.2283,-0.2465,-0.1516,2.4446,9.56,94.06,359.50,1.4841,7.3621,2.2744,7.8470
1,5,0,0,12.598,12598,1.9100,11.5900,-1.4800,11.8392,-0.3742,0.1058,3.0652,-8.63,96.69,17.81,1.5402,7.9192,1.7797,8.2615
1,5,0,0,12.719,12719,3.5600,11.1900,-1.3400,11.8189,0.2683,-1.0428,2.6289,-27.56,96.75,39.50,1.8063,8.3502,1.3686,8.6523
1,5,0,0,12.841,12841,5.0900,9.6500,-0.7800,10.9380,0.8901,-2.3377,2.4871,-44.75,84.19,63.75,2.2390,8.5215,1.0855,8.8773
1,5,0,0,12.966,12966,5.4700,6.7900,1.6700,8.8777,1.6853,-2.8405,1.5272,-50.56,50.88,80.31,2.6648,8.2933,1.1625,8.7882
1,5,0,0,13.087,13087,4.0300,2.9700,5.5300,7.4594,2.2471,-2.3540,1.1454,-39.75,16.94,87.50,2.8447,7.5918,1.7380,8.2915
1,5,0,0,13.208,13208,2.0700,-0.7700,8.1500,8.4440,1.8271,-1.2250,0.9152,-28.81,-2.94,91.13,2.7426,6.4900,2.5829,7.5042
1,5,0,0,13.329,13329,1.6500,-2.2700,7.9000,8.3836,1.3374,-0.1265,1.0319,-23.75,-15.69,95.44,2.5986,5.3356,3.2836,6.7826
1,5,0,0,13.491,13491,2.4200,-3.8000,8.6500,9.7529,0.2378,0.8258,0.7669,-24.56,-26.19,102.06,2.5751,4.1318,3.9908,6.2951
1,5,0,0,13.614,13614,3.9600,-3.8900,7.4400,9.2826,0.2007,0.9959,1.1661,-26.69,-32.25,111.00,2.7576,3.0747,4.4453,6.0678
1,5,0,0,13.736,13736,3.5800,-4.6300,6.4700,8.7243,0.2105,0.7450,0.7963,-27.81,-37.75,118.38,2.8660,2.0594,4.7121,5.8872
1,5,0,0,13.859,13859,3.3000,-6.5500,5.2500,9.0197,0.0665,0.2945,0.2727,-28.00,-42.06,123.56,2.9232,0.9249,4.7830,5.6813
1,6,0,0,13.980,13980,3.1800,-5.4100,5.7200,8.4911,-1.1574,-0.0927,-1.4290,-30.75,-36.31,120.25,2.9570,0.0901,4.9064,5.7293
1,6,0,0,14.101,14101,3.6300,-1.8000,6.1000,7.3230,-1.4988,0.2902,-2.0791,-37.31,-19.31,110.63,3.0457,-0.1589,5.0637,5.9112
1,6,0,0,14.222,14222,4.0300,2.3200,6.4700,7.9677,-1.8522,0.5203,-2.5700,-42.13,4.69,99.06,3.1754,0.1677,5.2490,6.1371
1,6,0,0,14.343,14343,4.9100,6.8100,5.6300,10.1085,-1.7813,0.5334,-2.1151,-41.06,30.31,89.19,3.4040,1.0430,5.2992,6.3841
1,6,0,0,14.510,14510,4.9700,9.7400,4.3400,11.7645,-1.0919,0.8596,-1.5904,-32.94,57.19,72.06,3.6103,2.1891,5.1728,6.6772
1,6,0,0,14.632,14632,3.8400,9.9400,3.8900,11.3438,-0.7843,0.5727,-1.5064,-24.63,69.19,59.94,3.6406,3.2104,5.0038,6.9713
1,6,0,0,14.752,14752,2.4000,9.2700,1.9200,9.7662,-0.5738,0.5389,-1.2359,-18.94,75.38,51.56,3.4771,4.0089,4.5974,7.0213
1,6,0,0,14.873,14873,0.8700,9.9200,1.3000,10.0426,-0.4167,0.4014,-1.4726,-9.94,79.81,39.88,3.1336,4.7879,4.1629,7.0762
1,6,0,0,14.995,14995,0.1900,10.7700,1.0600,10.8237,-0.5018,0.1582,-0.8999,-2.63,83.63,31.00,2.7457,5.5762,3.7540,7.2612
1,6,0,0,15.115,15115,-1.0600,9.0400,1.0500,9.1623,-0.2051,0.0011,-0.9490,3.06,85.44,25.44,2.2442,6.0326,3.3977,7.2783
1,6,0,0,15.254,15254,-3.1000,10.9000,0.0200,11.3323,-0.3480,-0.2280,-1.2435,12.50,88.38,16.81,1.5400,6.6740,2.9526,7.4587
1,6,0,0,15.374,15374,-1.9800,11.2800,1.1100,11.5061,0.1004,0.1233,-0.4058,17.19,89.13,12.38,1.0761,7.2810,2.7098,7.8430
1,6,0,0,15.537,15537,-1.7400,11.7400,0.6000,11.8834,0.1331,0.0644,1.7268,13.38,87.75,15.00,0.7050,7.8685,2.4318,8.2659
1,6,0,0,15.660,15660,0.1600,10.6700,0.6200,10.6892,0.5629,0.0076,2.1129,-1.44,85.19,30.63,0.6332,8.2377,2.1930,8.5481
1,6,0,0,15.785,15785,0.3300,10.6100,0.9800,10.6603,0.4680,-0.2618,1.8271,-15.00,80.88,45.13,0.5933,8.5503,2.0332,8.8087
1,6,0,0,15.906,15906,3.1200,8.6500,1.5900,9.3319,0.3665,-0.3120,2.1555,-29.69,76.13,61.00,0.9262,8.5634,1.9748,8.8369
1,6,0,0,16.026,16026,3.8900,8.2500,2.4400,9.4418,0.4472,-0.4123,1.0407,-36.88,70.19,69.56,1.3168,8.5221,2.0361,8.8604
1,6,0,0,16.147,16147,5.8900,6.8700,3.5900,9.7354,0.4407,-0.4494,1.1203,-42.56,62.13,77.31,1.9194,8.3044,2.2409,8.8130
1,6,0,0,16.268,16268,6.7300,5.8600,3.9500,9.7588,0.4232,-0.2149,1.3046,-48.19,53.25,84.88,2.5533,7.9823,2.4661,8.7360
1,6,0,0,16.389,16389,7.4400,4.2900,4.0500,9.4953,0.4549,-0.5749,1.2926,-53.25,40.81,93.06,3.1973,7.4958,2.6748,8.5769
1,6,0,0,16.552,16552,6.7200,2.7900,5.9300,9.3866,0.5989,-0.6436,0.9839,-51.31,24.63,98.25,3.6615,6.8757,3.1038,8.3854
1,6,0,0,16.677,16677,7.4300,2.5200,6.3700,10.1060,0.5847,-0.5269,0.7789,-49.75,11.75,103.50,4.1581,6.3017,3.5342,8.3361
1,6,0,0,16.799,16799,6.3600,1.3100,6.6500,9.2945,0.8694,-0.4265,1.0636,-46.94,-0.88,105.13,4.4482,5.6439,3.9447,8.1977
1,6,0,0,16.919,16919,4.9900,-1.1100,6.3400,8.1442,0.6250,-0.5541,1.3526,-42.63,-13.88,110.06,4.5196,4.7539,4.2604,7.8216
1,6,0,0,17.041,17041,4.4300,-2.3200,6.5200,8.2169,0.7745,-0.3502,1.2392,-36.63,-24.44,116.63,4.5078,3.8218,4.5581,7.4634
1,6,0,0,17.161,17161,4.4000,-5.4400,8.0000,10.6280,0.6949,-0.1353,0.8312,-32.44,-33.00,120.19,4.4936,2.6013,5.0117,7.2164
1,6,0,0,17.282,17282,2.4300,-6.2200,5.9600,8.9507,0.0153,0.0175,1.0057,-28.63,-37.19,125.63,4.2217,1.4389,5.1367,6.8028
1,6,0,0,17.403,17403,3.2900,-5.4500,6.6100,9.1771,-0.5400,0.2694,-1.2348,-29.63,-34.88,126.06,4.0989,0.5311,5.3308,6.7454
1,7,0,0,17.570,17570,4.8700,-1.8400,6.9500,8.6836,-1.0188,0.6065,-1.7671,-40.44,-19.81,114.19,4.2005,0.2186,5.5442,6.9592
1,7,0,0,17.692,17692,5.8600,1.1600,6.3600,8.7255,-0.9392,0.7592,-1.4235,-47.38,-3.06,106.94,4.4192,0.3427,5.6517,7.1825
1,7,0,0,17.813,17813,6.3900,2.0200,5.6900,8.7914,-0.6174,1.0756,-1.3832,-52.75,15.19,98.25,4.6789,0.5637,5.6567,7.3626
1,7,0,0,17.933,17933,6.7100,5.0300,4.6500,9.5889,-0.8923,0.9927,-2.3987,-53.00,38.94,87.94,4.9465,1.1523,5.5241,7.5041
1,7,0,0,18.054,18054,6.4200,6.0000,2.8500,9.2379,-0.5498,1.2686,-0.9937,-48.63,61.56,75.00,5.1407,1.7911,5.1717,7.5087
1,7,0,0,18.175,18175,7.4400,8.7200,1.8000,11.6031,-0.3316,0.5978,-2.3060,-42.06,73.88,64.44,5.4437,2.7041,4.7274,7.7003
1,7,0,0,18.296,18296,3.8300,8.7100,1.6400,9.6552,-0.1844,0.2269,-1.2490,-28.06,80.13,48.25,5.2310,3.4955,4.3206,7.6322
1,7,0,0,18.421,18421,5.0300,10.3000,1.8200,11.6062,-0.2422,-0.1222,-0.6741,-24.25,81.63,45.13,5.2046,4.3922,3.9910,7.8935
1,7,0,0,18.584,18584,2.3600,8.4000,1.6700,8.8836,-0.1047,0.0164,-0.3305,-17.69,83.50,39.31,4.8297,4.9203,3.6852,7.8177
1,7,0,0,18.705,18705,1.3100,9.3500,0.8100,9.4760,-0.1473,-0.1931,-1.1279,-14.06,84.00,36.69,4.3659,5.5040,3.3063,7.7645
1,7,0,0,18.827,18827,-1.1200,9.9300,0.7600,10.0218,-0.2465,0.1854,-1.4977,-3.25,85.75,26.00,3.6430,6.0873,2.9708,7.6910
1,7,0,0,18.947,18947,-0.5300,9.8700,0.5600,9.9001,-0.3316,0.0011,-1.1356,4.00,87.44,17.50,3.0931,6.5857,2.6531,7.7446
1,7,0,0,19.069,19069,-3.1900,10.0600,0.0100,10.5537,-0.2738,-0.3022,-1.7791,15.00,89.94,7.63,2.2652,7.0436,2.3048,7.7495
1,7,0,0,19.196,19196,-3.9500,10.9000,0.0900,11.5940,0.0251,-0.3011,-0.8247,23.56,91.50,0.81,1.4462,7.5517,2.0129,7.9481
1,7,0,0,19.317,19317,-3.3800,10.7100,0.5600,11.2446,0.1865,-0.2487,-0.0458,26.63,91.19,359.81,0.8102,7.9679,1.8215,8.2135
1,7,0,0,19.438,19438,-3.0000,10.7500,0.3200,11.1653,0.4342,-0.0622,1.0352,20.50,88.75,7.88,0.3081,8.3345,1.6236,8.4968
1,7,0,0,19.600,19600,-1.1400,9.9600,0.6800,10.0481,0.5825,-0.2585,2.0813,6.06,84.13,25.75,0.1173,8.5487,1.4993,8.6800
1,7,0,0,19.720,19720,-1.1000,10.1500,0.8400,10.2439,0.5563,-0.5749,1.5217,-5.38,80.69,43.00,-0.0431,8.7597,1.4124,8.8730
1,7,0,0,19.844,19844,0.8600,9.9200,2.1800,10.1931,0.5498,-0.2902,1.5533,-14.44,75.75,54.81,0.0759,8.9126,1.5136,9.0405
1,7,0,0,19.965,19965,2.5200,8.2400,2.6000,9.0004,0.3545,0.0611,1.5435,-24.19,72.25,64.44,0.3980,8.8240,1.6567,8.9870
1,7,0,0,20.089,20089,3.8900,8.9700,2.9200,10.2039,0.3578,-0.2236,0.3371,-30.13,67.88,70.56,0.8581,8.8432,1.8232,9.0699
1,7,0,0,20.210,20210,5.4700,7.7500,3.7700,10.2077,0.6534,-0.2400,1.4410,-35.06,62.13,76.13,1.4658,8.6992,2.0797,9.0636
1,7,0,0,20.331,20331,5.3100,6.7700,4.1900,9.5700,0.5803,-0.4123,0.9196,-40.44,53.19,83.81,1.9724,8.4450,2.3578,8.9870
1,7,0,0,20.451,20451,5.4400,5.4600,4.9400,9.1547,0.5225,-0.1069,1.5250,-45.19,43.06,90.44,2.4293,8.0516,2.6981,8.8323
1,7,0,0,20.614,20614,7.4100,3.3900,5.1800,9.6557,0.3349,-0.0393,1.1214,-53.25,26.38,102.56,3.0857,7.4373,3.0251,8.6016
1,7,0,0,20.735,20735,7.1300,2.1200,5.5700,9.2928,0.4658,-0.3840,1.5097,-54.44,12.88,109.38,3.6186,6.7366,3.3605,8.3528
1,7,0,0,20.856,20856,6.8100,1.0500,5.5600,8.8539,0.4429,-0.0295,1.3308,-53.50,-4.19,118.38,4.0392,5.9873,3.6503,8.0924
1,7,0,0,20.981,20981,6.3600,-2.6800,5.6900,8.9447,0.5061,0.1178,1.4901,-52.25,-20.88,126.13,4.3450,4.8452,3.9191,7.5970
1,7,0,0,21.103,21103,5.8900,-3.1900,4.5100,8.0752,0.0665,0.1538,0.7789,-49.63,-31.13,133.25,4.5486,3.7863,3.9970,7.1415
1,7,0,0,21.223,21223,6.6500,-3.8400,4.9500,9.1362,-0.3992,-0.2487,-0.6567,-48.25,-32.25,135.00,4.8255,2.7814,4.1225,6.9294
1,8,0,0,21.345,21345,5.6800,0.0100,5.5400,7.9344,-0.4931,0.0131,-2.1195,-52.19,-14.13,121.50,4.9381,2.4162,4.3093,6.9852
1,8,0,0,21.466,21466,7.3900,0.0100,6.1600,9.6207,-0.5192,0.3327,-0.8018,-54.38,-0.19,113.56,5.2612,2.0991,4.5532,7.2676
1,8,0,0,21.629,21629,7.1900,3.9000,5.2500,9.7195,-0.4123,0.6087,-1.5272,-55.06,25.69,102.25,5.5154,2.3364,4.6450,7.5799
1,8,0,0,21.754,21754,7.8300,4.5000,4.1400,9.9347,-0.4232,0.4254,-1.2457,-54.13,40.19,95.31,5.8204,2.6215,4.5785,7.8557
1,8,0,0,21.875,21875,6.0600,5.6100,3.3400,8.9079,-0.2934,0.1963,-1.3635,-48.75,52.50,86.88,5.8519,3.0153,4.4153,7.9267
1,8,0,0,21.995,21995,4.9600,6.4800,3.3500,8.8213,-0.2553,0.0349,-1.9068,-40.88,60.25,77.44,5.7344,3.4719,4.2749,7.9506
1,8,0,0,22.116,22116,2.6900,9.3000,3.2600,10.2154,-0.7287,0.2836,-2.1795,-27.50,68.75,63.06,5.3332,4.2399,4.1412,7.9730
1,8,0,0,22.238,22238,2.5800,10.0600,2.0800,10.5918,-0.5749,0.5411,-1.3352,-18.50,76.00,51.81,4.9704,5.0068,3.8696,8.0465
1,8,0,0,22.358,22358,0.3100,9.6500,1.1600,9.7244,-0.4396,0.3447,-1.8064,-8.38,80.44,39.13,4.3563,5.6187,3.5125,7.9300
1,8,0,0,22.480,22480,-1.6200,9.7100,0.5900,9.8619,-0.5007,0.0513,-1.7311,2.50,83.69,27.06,3.5688,6.1578,3.1274,7.7740
1,8,0,0,22.647,22647,-3.4600,12.3200,0.1600,12.7976,-0.1625,0.0894,-1.6810,19.75,86.88,8.63,2.6426,6.9698,2.7364,7.9404
1,8,0,0,22.768,22768,-2.1900,10.7200,1.0900,10.9956,0.1211,-0.0709,0.0818,24.50,86.44,3.63,2.0058,7.4640,2.5194,8.1291
1,8,0,0,22.889,22889,-2.9900,10.2800,0.7600,10.7329,0.1560,-0.2629,0.3862,21.69,86.13,8.38,1.3474,7.8351,2.2876,8.2727
1,8,0,0,23.009,23009,-2.7500,10.9700,1.2100,11.3740,0.5465,0.0556,1.2075,16.31,84.13,15.13,0.8075,8.2482,2.1456,8.5608
1,8,0,0,23.131,23131,-1.5600,11.5200,2.0300,11.8011,0.5345,0.1254,1.9580,6.00,80.38,27.00,0.4955,8.6793,2.1303,8.9507
1,8,0,0,23.252,23252,0.4700,10.3600,1.5000,10.4786,0.9327,-0.1374,3.0140,-10.81,75.50,44.00,0.4922,8.9008,2.0473,9.1465
1,8,0,0,23.373,23373,2.3000,8.6700,2.6100,9.3419,0.9534,-0.6087,1.7268,-25.44,65.69,60.69,0.7304,8.8704,2.1214,9.1497
1,8,0,0,23.499,23499,2.7000,7.2400,3.5800,8.5161,0.7887,-0.3534,2.0071,-33.88,55.19,72.56,0.9899,8.6555,2.3136,9.0139
1,8,0,0,23.662,23662,5.0900,5.4600,5.3800,9.2013,0.5803,-0.0425,0.8508,-43.56,39.88,84.94,1.5302,8.2344,2.7177,8.8053
1,8,0,0,23.782,23782,7.6100,2.9400,7.0200,10.7627,1.2086,-0.0360,1.0287,-48.31,25.94,90.31,2.3314,7.5368,3.2846,8.5456
1,8,0,0,23.903,23903,5.5600,3.2100,5.6700,8.5654,1.2141,0.1560,0.9708,-49.63,15.31,90.31,2.7568,6.9666,3.5990,8.3118
1,8,0,0,24.024,24024,7.0100,-0.0400,5.0500,8.6397,1.2839,-0.3131,1.0483,-50.19,-4.56,95.19,3.3173,6.0433,3.7902,7.8671
1,8,0,0,24.147,24147,5.7900,-0.9900,5.3500,7.9452,1.4410,-0.3512,0.6163,-46.94,-17.19,94.63,3.6431,5.1165,3.9957,7.4442
1,8,0,0,24.268,24268,6.2700,-3.6000,6.1000,9.4595,0.9872,-0.3960,0.8203,-42.06,-30.69,96.81,3.9893,3.9679,4.2730,7.0652
1,8,0,0,24.392,24392,4.6300,-3.3400,5.3900,7.8514,0.8901,-0.0109,0.5967,-38.31,-39.31,98.19,4.0737,3.0049,4.4202,6.7203
1,8,0,0,24.514,24514,5.4400,-7.2100,5.0100,10.3285,0.7843,-0.0022,0.7079,-34.38,-49.06,102.13,4.2538,1.6588,4.4979,6.4092
1,8,0,0,24.676,24676,4.3000,-6.9800,4.3000,9.2575,-0.2247,-0.1494,-0.6360,-34.31,-49.44,99.94,4.2598,0.5205,4.4718,6.1979
1,9,0,0,24.799,24799,4.5700,-5.6800,4.7200,8.6848,-1.1672,0.0295,-1.2588,-38.38,-42.19,95.44,4.3007,-0.2966,4.5045,6.2350
1,9,0,0,24.920,24920,5.2400,-2.0300,5.1700,7.6359,-1.8871,0.1571,-1.5773,-44.19,-25.13,91.38,4.4245,-0.5250,4.5922,6.3985
1,9,0,0,25.044,25044,5.8900,1.6500,5.4400,8.1859,-1.9951,0.1844,-1.8337,-48.00,1.44,86.00,4.6176,-0.2384,4.7039,6.5959
1,9,0,0,25.166,25166,5.9000,5.3200,5.4800,9.6511,-1.5915,-0.1058,-1.9515,-44.81,27.31,78.25,4.7866,0.4940,4.8062,6.8011
1,9,0,0,25.287,25287,4.6800,7.5900,5.7500,10.6100,-1.3777,-0.2269,-1.8882,-36.38,44.63,70.56,4.7725,1.4291,4.9306,7.0093
1,9,0,0,25.407,25407,2.6200,8.4100,4.3800,9.8375,-1.3439,0.2607,-1.2523,-27.88,58.19,62.50,4.4889,2.3490,4.8580,7.0192
1,9,0,0,25.528,25528,1.8000,10.9100,2.8000,11.4065,-1.1781,0.5072,-2.0606,-19.38,69.94,52.69,4.1346,3.4771,4.5868,7.0869
1,9,0,0,25.696,25696,0.4600,9.9800,2.0400,10.1967,-0.5018,0.7014,-1.2806,-6.63,78.75,34.88,3.6504,4.3340,4.2512,7.0839
1,9,0,0,25.818,25818,-1.2700,10.3800,0.9400,10.4996,-0.3840,0.3763,-1.6046,2.88,82.38,21.50,3.0020,5.1307,3.8149,7.0633
1,9,0,0,25.938,25938,-2.4200,10.2500,0.6000,10.5489,-0.2073,0.1134,-1.1628,11.94,83.88,10.50,2.2875,5.8053,3.3912,7.1018
1,9,0,0,26.059,26059,-2.8000,10.0700,0.3700,10.4586,-0.2029,-0.1342,-0.8203,18.19,85.44,4.06,1.6171,6.3673,2.9931,7.2192
1,9,0,0,26.180,26180,-3.0900,9.9800,0.4200,10.4559,-0.0404,-0.2062,-0.4407,21.44,87.00,1.69,0.9968,6.8434,2.6541,7.4074
1,9,0,0,26.301,26301,-3.6200,10.3600,0.6500,10.9935,0.1745,-0.1833,0.3534,21.44,87.13,2.94,0.3884,7.3068,2.3900,7.6975
1,9,0,0,26.439,26439,-3.2800,10.4900,1.3200,11.0698,0.1658,0.0796,1.4988,13.44,85.75,16.63,-0.0950,7.7262,2.2490,8.0475
1,9,0,0,26.560,26560,-0.3400,10.4900,0.8900,10.5332,-0.1244,0.6021,2.4358,-1.44,85.75,30.69,-0.1273,8.0904,2.0699,8.3520
1,9,0,0,26.723,26723,2.1800,9.4000,-0.3200,9.6548,-0.7592,0.7963,2.7271,-22.94,90.69,46.31,0.1768,8.2630,1.7550,8.4492
1,9,0,0,26.843,26843,5.4900,8.4900,-1.2400,10.1862,-0.6730,0.5858,2.3824,-40.88,99.81,63.25,0.8769,8.2929,1.3603,8.4494
1,9,0,0,26.969,26969,6.8300,6.2000,-1.9600,9.4303,-0.7254,0.1854,2.3682,-55.00,111.56,80.69,1.6614,8.0171,0.9228,8.2393
1,9,0,0,27.089,27089,8.4000,4.4600,-2.6200,9.8649,-0.4974,-0.2062,1.8773,-67.63,128.88,100.00,2.5494,7.5484,0.4559,7.9803
1,9,0,0,27.212,27212,8.6100,1.4700,-1.9600,8.9518,-0.5738,-0.5149,2.3660,-78.38,173.88,120.50,3.3480,6.7474,0.1376,7.5336
1,9,0,0,27.332,27332,8.7500,-0.5800,-1.7000,8.9325,-0.3294,-0.4309,1.9504,-74.13,-121.06,138.25,4.0599,5.7818,-0.1046,7.0656
1,9,0,0,27.453,27453,8.0000,-2.9900,-0.9300,8.5910,-0.4156,-0.4265,2.4009,-61.44,-99.25,154.06,4.5791,4.6259,-0.2133,6.5125
1,9,0,0,27.574,27574,7.2600,-5.3300,-0.3500,9.0133,-0.1833,-0.3283,1.8577,-48.56,-92.56,167.31,4.9323,3.3140,-0.2314,5.9468
1,9,0,0,27.737,27737,5.8200,-7.4600,0.3300,9.4675,-0.6589,-0.9076,2.0453,-30.75,-85.44,182.69,5.0493,1.8943,-0.1574,5.3952
1,9,0,0,27.863,27863,3.6600,-7.9900,1.4300,8.9040,-0.7690,-1.1388,1.3723,-18.88,-78.44,190.00,4.8662,0.5918,0.0518,4.9024
1,9,0,0,27.984,27984,0.3700,-7.3400,2.7300,7.8400,-0.5760,-1.4584,0.3512,-10.19,-71.63,190.38,4.2737,-0.4534,0.4047,4.3167
1,9,0,0,28.105,28105,-0.5500,-8.2200,3.1100,8.8059,-0.0960,-0.8159,-1.0025,-10.25,-68.31,178.38,3.6381,-1.4769,0.7612,3.9995
1,10,0,0,28.226,28226,1.7400,-8.0300,3.6000,8.9704,-0.2400,0.1647,-1.8337,-18.75,-66.25,167.69,3.3880,-2.3404,1.1353,4.2714
1,10,0,0,28.347,28347,4.9400,-5.8300,3.4900,8.4007,-0.2869,0.2367,-3.0620,-34.63,-61.19,152.63,3.5925,-2.8002,1.4456,4.7788
1,10,0,0,28.469,28469,7.9700,-3.0500,3.6000,9.2619,-0.3131,-0.2094,-4.6415,-55.69,-43.19,127.69,4.1693,-2.8332,1.7295,5.3293
1,10,0,0,28.590,28590,6.8800,1.6400,3.9500,8.1010,-0.1625,-0.9065,-3.8866,-61.00,8.56,98.88,4.5265,-2.2437,2.0221,5.4417
1,10,0,0,28.756,28756,2.6600,5.2800,5.2500,7.9067,-0.9916,-0.6283,-3.5801,-35.75,47.13,66.13,4.2806,-1.2523,2.4474,5.0874
1,10,0,0,28.878,28878,0.4300,9.0400,3.2300,9.6093,-1.6308,-0.0545,-2.8351,-18.88,61.75,50.44,3.7732,0.1040,2.5506,4.5555
1,10,0,0,28.998,28998,-2.5400,11.1300,2.0200,11.5935,-1.4923,0.1364,-2.6529,-1.06,73.69,32.13,2.9413,1.5569,2.4806,4.1507
1,10,0,0,29.119,29119,-3.9600,11.4200,0.8700,12.1184,-1.1486,0.1407,-1.8588,12.94,82.13,16.19,2.0318,2.8566,2.2684,4.1755
1,10,0,0,29.241,29241,-4.6200,11.0400,0.2400,11.9701,-0.5629,0.1953,-1.0472,22.56,86.94,3.63,1.1553,3.9350,2.0011,4.5633
1,10,0,0,29.361,29361,-3.2400,10.5000,0.3800,10.9951,0.0011,-0.0469,-0.2738,26.06,88.31,359.19,0.5761,4.8001,1.7875,5.1544
1,10,0,0,29.482,29482,-4.2500,9.7800,0.6300,10.6821,0.0044,-0.2302,-0.5858,29.56,88.69,356.81,-0.0598,5.4563,1.6350,5.6963
1,10,0,0,29.604,29604,-4.7500,9.9000,0.1200,10.9812,0.2793,-0.0033,0.6261,29.19,88.38,358.31,-0.6779,6.0419,1.4353,6.2469
1,10,0,0,29.770,29770,-3.2000,10.9100,1.2400,11.4370,0.9534,-0.1145,1.8119,18.13,83.06,15.00,-1.0102,6.6834,1.4096,6.9047
1,10,0,0,29.891,29891,-1.6100,11.3100,2.5000,11.6944,0.8694,-0.3109,2.1915,4.81,77.56,34.44,-1.0893,7.2930,1.5533,7.5358
1,10,0,0,30.011,30011,0.6300,11.7400,2.1500,11.9519,1.7661,-0.8345,2.3835,-9.38,68.75,52.63,-0.8627,7.8790,1.6319,8.0924
1,10,0,0,30.132,30132,2.4400,8.7100,2.7500,9.4541,3.2638,-2.2078,1.3843,-15.69,47.81,68.44,-0.4275,7.9885,1.7792,8.1954
1,10,0,0,30.253,30253,-1.4200,4.2900,4.7500,6.5561,3.6750,-3.0227,0.3742,-2.88,21.13,76.88,-0.5583,7.5012,2.1707,7.8289
1,10,0,0,30.374,30374,-4.4700,-1.8400,8.7600,10.0052,3.1176,-1.7268,-0.1724,12.50,-2.25,80.31,-1.0738,6.2702,3.0390,7.0501
1,10,0,0,30.495,30495,-5.9700,-2.8300,8.1500,10.4915,1.5697,0.8628,0.4102,15.19,-16.50,81.81,-1.7190,5.0711,3.7125,6.5156
1,10,0,0,30.617,30617,-2.9800,-4.3800,8.6900,10.1775,0.8236,2.8689,1.2523,4.69,-22.44,91.25,-1.8851,3.8257,4.3684,6.1051
1,10,0,0,30.783,30783,2.7300,-3.9900,6.6300,8.2055,0.4265,3.3598,1.3581,-18.44,-29.81,111.25,-1.2770,2.7957,4.6664,5.5877
1,10,0,0,30.904,30904,3.9500,-6.7500,4.9000,9.2290,0.5956,2.4925,2.6158,-25.69,-43.25,129.94,-0.5882,1.5379,4.6972,4.9774
1,10,0,0,31.025,31025,3.9000,-7.0000,4.5200,9.2000,-0.1669,1.4224,2.0049,-22.19,-53.00,150.63,0.0032,0.4128,4.6739,4.6921
1,10,0,0,31.146,31146,3.2000,-7.8000,4.7100,9.6573,-0.3196,0.7090,1.5599,-15.63,-56.13,167.25,0.4245,-0.6694,4.6786,4.7453
1,10,0,0,31.268,31268,1.9100,-6.7600,4.5900,8.3913,-0.1265,-0.1233,-0.2203,-13.69,-55.25,171.81,0.6202,-1.4720,4.6669,4.9327
1,10,0,0,31.389,31389,2.1200,-6.9800,5.3400,9.0405,-0.1756,-0.3338,-1.3275,-16.81,-53.44,165.50,0.8179,-2.1978,4.7556,5.3024
1,10,0,0,31.515,31515,3.7000,-6.3400,5.8000,9.3555,-0.4527,-0.1331,-2.5994,-26.63,-47.31,151.44,1.1977,-2.7437,4.8933,5.7364
1,10,0,0,31.637,31637,3.8900,-3.7500,5.6700,7.8322,-0.7199,0.3556,-3.1187,-40.81,-32.31,130.19,1.5524,-2.8763,4.9956,5.9699
1,10,0,0,31.799,31799,5.6300,3.0100,4.6100,7.8746,-1.3690,0.2629,-4.1899,-51.50,13.69,101.44,2.0898,-2.1006,4.9448,5.7646
