participant,rep,equipment_code,exercise_code,quality_code,timestamp,timestamp_ms,accelX,accelY,accelZ,accelMag,gyroX,gyroY,gyroZ,roll,pitch,yaw,filteredX,filteredY,filteredZ,filteredMag
2,1,0,0,1,00.000,0,0.9100,9.3400,0.8000,9.4183,-0.0109,-0.0982,-0.0207,-6.13,85.31,308.13,0.9770,9.6069,0.6991,9.6817
2,1,0,0,1,00.121,121,0.8300,9.6000,0.7000,9.6612,-0.0556,-0.0251,-0.0654,-5.63,85.69,308.25,0.9577,9.6060,0.6992,9.6789
2,1,0,0,1,00.242,242,0.9500,9.8600,0.7200,9.9318,-0.0491,-0.0654,-0.0371,-5.31,86.00,308.25,0.9566,9.6394,0.7019,9.7122
2,1,0,0,1,00.363,363,1.0300,9.7800,0.7000,9.8590,-0.0447,-0.0862,-0.0207,-5.31,86.25,308.75,0.9663,9.6580,0.7017,9.7315
2,1,0,0,1,00.485,485,1.0100,9.7300,0.6800,9.8059,-0.0415,-0.0731,0.0644,-5.44,86.44,309.56,0.9721,9.6675,0.6988,9.7413
2,1,0,0,1,00.647,647,0.5400,9.6200,0.5900,9.6532,0.0011,-0.0185,0.0796,-5.00,86.63,309.50,0.9151,9.6612,0.6845,9.7286
2,1,0,0,1,00.772,772,1.0400,9.7900,0.5000,9.8578,-0.0076,-0.0840,-0.0818,-5.50,86.63,310.38,0.9316,9.6782,0.6602,9.7453
2,1,0,0,1,00.892,892,1.3300,9.5900,0.5600,9.6980,0.0654,-0.2913,0.1069,-5.75,86.31,311.94,0.9841,9.6666,0.6470,9.7380
2,1,0,0,1,01.013,1013,1.3100,9.8200,0.7100,9.9324,0.0371,-0.4494,0.1625,-6.56,85.63,315.38,1.0270,9.6868,0.6553,9.7631
2,1,0,0,1,01.134,1134,0.9000,9.4700,0.9000,9.5552,0.0676,-0.3545,0.1953,-7.56,84.88,319.19,1.0103,9.6582,0.6875,9.7352
2,1,0,0,1,01.255,1255,1.2900,9.8200,1.0400,9.9588,-0.0055,-0.1364,-0.0022,-7.88,84.50,321.00,1.0472,9.6795,0.7340,9.7636
2,1,0,0,1,01.376,1376,2.1900,10.1100,1.5700,10.4629,0.1800,-0.1134,0.4865,-8.94,83.81,322.25,1.1978,9.7363,0.8441,9.8459
2,1,0,0,1,01.498,1498,3.0300,9.8400,1.7600,10.4453,0.2182,-0.1745,0.6174,-12.81,82.13,326.94,1.4392,9.7499,0.9648,9.9027
2,1,0,0,1,01.664,1664,3.9900,10.1800,2.1300,11.1395,0.5738,-0.3807,1.1028,-19.69,77.81,334.56,1.7753,9.8066,1.1184,10.0286
2,1,0,0,1,01.786,1786,4.7400,8.8200,3.1100,10.4849,0.7756,-0.8203,1.4203,-27.69,69.44,345.75,2.1660,9.6766,1.3808,10.0117
2,1,0,0,1,01.907,1907,4.9200,7.6000,3.9900,9.8938,0.6349,-0.7014,1.2599,-33.63,59.50,356.13,2.5289,9.4029,1.7246,9.8886
2,1,0,0,1,02.027,2027,5.4100,6.8200,4.8600,9.9700,0.7516,-0.3174,1.1977,-37.63,50.25,3.25,2.9086,9.0626,2.1378,9.7550
2,1,0,0,1,02.148,2148,6.7600,4.9100,5.5300,10.0193,0.8345,-0.2247,1.6395,-43.38,38.06,11.06,3.4161,8.5154,2.5848,9.5322
2,1,0,0,1,02.269,2269,6.6800,3.9700,6.2100,9.9472,0.6807,-0.2836,1.0952,-46.25,24.94,17.81,3.8462,7.9164,3.0625,9.3189
2,1,0,0,1,02.391,2391,7.4100,1.1700,6.8200,10.1385,0.7996,-0.3982,1.7661,-47.19,7.94,26.63,4.3158,7.0274,3.5577,8.9815
2,1,0,0,1,02.517,2517,5.7200,0.2300,6.5400,8.6915,0.7843,-0.2367,1.2086,-45.00,-5.69,33.19,4.5008,6.1317,3.9507,8.5710
2,1,0,0,1,02.680,2680,5.9700,-2.6800,5.9800,8.8647,0.6501,-0.1734,1.2501,-40.25,-24.81,43.75,4.6944,4.9705,4.2181,8.0334
2,1,0,0,1,02.802,2802,5.3700,-4.1700,6.3300,9.2895,0.5007,-0.3742,1.2403,-34.56,-33.63,50.00,4.7835,3.7660,4.4964,7.5685
2,1,0,0,1,02.928,2928,4.0700,-4.7700,5.6500,8.4404,0.7407,-0.4123,1.6013,-26.38,-40.94,57.94,4.6894,2.6412,4.6484,7.1116
2,1,0,0,1,03.050,3050,1.6500,-8.7900,5.9800,10.7586,0.6174,0.2509,0.6730,-20.50,-50.00,63.63,4.2889,1.1349,4.8239,6.5538
2,1,0,0,1,03.170,3170,1.9100,-6.6100,4.8700,8.4295,-0.3229,0.7156,0.1756,-20.88,-51.25,68.00,3.9754,0.1143,4.8299,6.2566
2,1,0,0,1,03.291,3291,3.1800,-6.3900,5.0400,8.7376,-0.2727,0.5781,-1.0886,-26.31,-50.06,67.00,3.8706,-0.7428,4.8576,6.2554
2,2,0,0,1,03.412,3412,4.8800,-5.4000,5.4600,9.0987,-0.6196,0.3262,-1.5741,-35.19,-44.75,60.00,4.0036,-1.3565,4.9370,6.4995
2,2,0,0,1,03.533,3533,5.7200,-3.0100,5.2800,8.3461,-0.6152,0.1974,-1.8882,-43.81,-33.38,50.19,4.2298,-1.5744,4.9822,6.7225
2,2,0,0,1,03.696,3696,6.9900,0.1900,5.2300,8.7321,-0.8258,0.5989,-2.0944,-53.81,-9.50,35.44,4.5935,-1.3419,5.0149,6.9318
2,2,0,0,1,03.822,3822,7.1300,3.5600,4.2000,9.0084,-0.8770,0.6425,-2.2231,-56.75,18.50,24.00,4.9278,-0.6959,4.9075,6.9893
2,2,0,0,1,03.943,3943,7.0400,6.2100,3.7400,10.1051,-0.9185,0.8214,-2.2558,-51.56,49.00,9.00,5.2061,0.2141,4.7536,7.0531
2,2,0,0,1,04.064,4064,7.7100,8.0900,2.7900,11.5185,-0.6458,0.6120,-1.8915,-43.06,66.75,356.38,5.5361,1.2519,4.4949,7.2401
2,2,0,0,1,04.185,4185,5.8200,9.4200,2.5200,11.3560,-0.3120,0.4680,-2.0159,-31.25,75.38,342.13,5.5735,2.3283,4.2346,7.3768
2,2,0,0,1,04.307,4307,4.5700,9.4200,2.0200,10.6631,-0.4265,0.3556,-0.9076,-22.75,80.19,331.50,5.4412,3.2628,3.9428,7.4698
2,2,0,0,1,04.433,4433,3.6400,9.4800,1.1800,10.2231,-0.3545,0.0491,-0.6861,-18.31,83.50,326.56,5.2039,4.0820,3.5787,7.5200
2,2,0,0,1,04.555,4555,2.3200,9.4100,0.6700,9.7149,-0.2651,-0.1364,-0.6152,-13.44,85.50,322.69,4.8239,4.7841,3.1954,7.5079
2,2,0,0,1,04.717,4717,1.3100,10.4200,0.5600,10.5169,-0.0731,-0.0774,-0.7603,-6.25,87.19,317.00,4.3608,5.5268,2.8482,7.5944
2,2,0,0,1,04.839,4839,1.4600,10.0700,0.9800,10.2224,0.0818,0.5007,-0.1167,-4.06,86.81,313.50,3.9786,6.1255,2.6020,7.7538
2,2,0,0,1,04.960,4960,1.7800,9.8200,0.7300,10.0067,-0.1091,0.5978,0.7199,-7.00,86.94,312.13,3.6889,6.6123,2.3553,7.9296
2,2,0,0,1,05.086,5086,2.6900,9.9500,0.4400,10.3166,-0.0262,0.1996,0.5574,-12.31,87.88,315.06,3.5572,7.0521,2.1029,8.1737
2,2,0,0,1,05.207,5207,2.4600,9.7100,0.6100,10.0353,0.4494,-0.4025,0.8618,-15.88,86.00,319.50,3.4126,7.4024,1.9062,8.3711
2,2,0,0,1,05.328,5328,4.3300,9.1400,1.4100,10.2116,0.0578,-0.5858,0.7123,-22.06,82.50,328.50,3.5335,7.6314,1.8408,8.6088
2,2,0,0,1,05.449,5449,4.4500,9.1400,1.6600,10.3004,0.1014,-0.2422,1.3199,-26.94,80.88,336.06,3.6543,7.8302,1.8170,8.8299
2,2,0,0,1,05.570,5570,5.9100,8.1500,1.6100,10.1952,0.1833,-0.3305,1.1748,-36.19,77.69,346.88,3.9515,7.8723,1.7897,8.9884
2,2,0,0,1,05.734,5734,6.2300,7.2300,1.9500,9.7411,0.2083,-0.1636,1.1497,-44.19,72.25,356.25,4.2518,7.7877,1.8108,9.0556
2,2,0,0,1,05.855,5855,7.5200,6.2600,2.7400,10.1610,0.1560,-0.0938,0.9610,-49.69,68.00,1.81,4.6825,7.5864,1.9333,9.1223
2,2,0,0,1,05.979,5979,8.0500,5.6300,2.6100,10.1642,0.2149,-0.3949,0.4418,-55.63,60.13,9.50,5.1262,7.3286,2.0224,9.1693
2,2,0,0,1,06.101,6101,8.1200,4.4200,3.3300,9.8265,0.1953,-0.0927,1.1039,-58.56,52.44,13.81,5.5207,6.9453,2.1947,9.1396
2,2,0,0,1,06.221,6221,9.8300,4.5300,3.0200,11.2370,-0.0262,-0.1691,0.7298,-63.94,40.19,22.38,6.0886,6.6270,2.3035,9.2895
2,2,0,0,1,06.342,6342,8.7300,2.8700,4.0100,10.0265,0.3556,-0.2662,1.0188,-64.31,32.50,23.94,6.4366,6.1319,2.5284,9.2425
2,2,0,0,1,06.463,6463,8.4800,1.2400,3.4800,9.2498,0.2291,-0.3927,1.4508,-65.75,9.50,32.75,6.7059,5.4873,2.6538,9.0621
2,2,0,0,1,06.584,6584,7.6700,-0.4500,4.0700,8.6946,0.1920,-0.3523,0.4723,-62.94,-9.25,39.06,6.8329,4.7049,2.8404,8.7689
2,2,0,0,1,06.752,6752,9.2800,-0.3700,5.2200,10.6538,0.2705,-0.0764,1.2348,-61.56,-12.19,39.63,7.1554,4.0362,3.1540,8.7999
2,2,0,0,1,06.873,6873,7.9000,-1.9600,4.5700,9.3347,0.2978,-0.2356,0.9610,-56.50,-29.50,48.38,7.2535,3.2460,3.3406,8.6203
2,2,0,0,1,06.993,6993,6.9700,-3.3500,4.6400,9.0185,0.4211,-0.3153,1.2315,-51.13,-39.00,53.44,7.2162,2.3768,3.5118,8.3699
2,2,0,0,1,07.114,7114,6.3600,-3.9400,4.7500,8.8620,0.3000,-0.0687,0.8748,-45.50,-45.19,58.56,7.1033,1.5444,3.6750,8.1454
2,2,0,0,1,07.235,7235,5.7700,-6.4100,4.2900,9.6325,0.5552,0.3054,1.5043,-40.25,-54.69,65.56,6.9276,0.4963,3.7560,7.8960
2,2,0,0,1,07.356,7356,5.2300,-6.2700,3.4400,8.8600,-0.2454,-0.0720,0.9130,-33.38,-59.69,74.25,6.7039,-0.3954,3.7144,7.6743
2,2,0,0,1,07.477,7477,3.7100,-7.2100,3.5600,8.8556,0.3545,-0.0611,0.2116,-30.81,-60.88,76.25,6.3094,-1.2934,3.6940,7.4248
2,2,0,0,1,07.605,7605,3.7400,-7.3100,3.7300,9.0187,-0.6610,-0.0709,-0.0840,-29.69,-59.81,77.63,5.9708,-2.0862,3.6988,7.3269
2,3,0,0,1,07.767,7767,4.4100,-6.2100,4.2700,8.7318,-0.1985,0.1854,-1.2926,-38.06,-53.56,70.25,5.7652,-2.6296,3.7740,7.3753
2,3,0,0,1,07.888,7888,6.4600,-3.2700,3.9600,8.2526,-0.7898,0.0884,-1.7704,-46.06,-44.56,62.81,5.8567,-2.7140,3.7985,7.4897
2,3,0,0,1,08.010,8010,7.2700,-1.5100,4.9200,8.9073,-0.5411,0.1560,-2.0519,-54.44,-28.50,51.63,6.0429,-2.5553,3.9463,7.6564
2,3,0,0,1,08.131,8131,7.7200,1.0000,4.7300,9.1089,-0.8399,0.1887,-1.9995,-59.75,-3.31,40.25,6.2639,-2.0868,4.0496,7.7454
2,3,0,0,1,08.257,8257,7.5800,3.2400,4.4800,9.3821,-0.6654,0.2531,-2.1653,-58.69,23.50,30.50,6.4374,-1.3849,4.1063,7.7601
2,3,0,0,1,08.378,8378,6.3100,5.6000,4.1100,9.3845,-0.6752,0.5869,-2.0399,-50.88,49.94,14.50,6.4206,-0.4645,4.1068,7.6358
2,3,0,0,1,08.499,8499,7.1100,8.5600,2.7900,11.4721,-0.5563,0.4592,-1.7366,-43.19,64.75,4.13,6.5114,0.7247,3.9333,7.6416
2,3,0,0,1,08.620,8620,5.6900,8.4500,2.6700,10.5313,-0.2716,0.4854,-1.4148,-33.75,72.56,351.75,6.4032,1.7427,3.7668,7.6306
2,3,0,0,1,08.782,8782,3.9500,9.2500,1.8800,10.2323,-0.1811,-0.0153,-1.4464,-23.19,77.75,340.38,6.0799,2.7320,3.5182,7.5370
2,3,0,0,1,08.909,8909,2.3900,9.3000,1.9100,9.7903,-0.0393,0.1451,-0.7974,-15.44,79.00,332.25,5.5937,3.5975,3.3063,7.4271
2,3,0,0,1,09.030,9030,2.1200,10.1200,1.6200,10.4658,-0.3065,0.1756,-1.3417,-8.63,81.06,324.25,5.1359,4.4570,3.0841,7.4669
2,3,0,0,1,09.151,9151,1.1000,10.3400,1.6700,10.5316,-0.0840,0.1353,-0.6032,-1.75,82.44,316.31,4.6041,5.2322,2.8977,7.5479
2,3,0,0,1,09.272,9272,1.4000,10.1500,1.5300,10.3597,-0.1025,-0.0393,0.5160,-3.56,82.38,317.56,4.1819,5.8803,2.7175,7.7104
2,3,0,0,1,09.393,9393,2.5900,10.6500,1.1700,11.0227,0.0436,-0.5072,0.9512,-9.13,82.63,324.88,3.9721,6.5088,2.5136,8.0287
2,3,0,0,1,09.514,9514,2.4600,10.9600,1.4000,11.3196,0.9959,-0.8945,0.0687,-12.44,78.38,332.50,3.7729,7.0953,2.3668,8.3774
2,3,0,0,1,09.635,9635,0.4300,7.6400,3.9300,8.6023,0.7265,-0.5138,0.6894,-11.06,69.50,333.94,3.3324,7.1671,2.5728,8.3121
2,3,0,0,1,09.802,9802,2.0800,9.4500,3.0100,10.1336,0.2793,0.4189,1.2872,-19.81,66.88,345.13,3.1673,7.4679,2.6304,8.5277
2,3,0,0,1,09.923,9923,5.0300,7.2000,3.8000,9.5698,0.3065,-0.0524,0.3611,-26.81,63.44,348.88,3.4128,7.4326,2.7845,8.6397
2,3,0,0,1,10.045,10045,2.5800,9.7700,3.1000,10.5697,-0.1058,0.0905,0.5596,-27.06,62.81,351.44,3.3030,7.7406,2.8261,8.8778
2,3,0,0,1,10.165,10165,6.3900,6.7700,4.0000,10.1324,0.7090,-0.1178,0.1636,-32.31,59.31,354.13,3.7098,7.6127,2.9808,8.9778
2,3,0,0,1,10.286,10286,1.7600,7.3200,5.2300,9.1669,-0.1342,-0.3763,0.0404,-27.69,56.31,350.81,3.4529,7.5742,3.2772,8.9460
2,3,0,0,1,10.407,10407,8.0300,8.1700,4.0500,12.1504,0.2869,0.2116,0.4811,-34.88,54.94,358.50,4.0560,7.6527,3.3790,9.2969
2,3,0,0,1,10.528,10528,4.1500,7.4900,5.6500,10.2589,0.0764,-0.0327,1.1497,-34.31,52.63,356.56,4.0684,7.6312,3.6783,9.3977
2,3,0,0,1,10.652,10652,8.4200,6.0800,4.8700,11.4708,0.8596,-0.1887,0.7396,-42.88,44.31,6.81,4.6418,7.4268,3.8353,9.5611
2,3,0,0,1,10.817,10817,7.8400,5.0400,5.4300,10.7867,0.4800,-0.0393,1.9177,-47.63,25.63,18.63,5.0633,7.1123,4.0455,9.6222
2,3,0,0,1,10.937,10937,6.6000,2.0500,5.5800,8.8825,0.6567,0.0076,2.2089,-50.88,13.25,23.00,5.2658,6.4452,4.2477,9.3441
2,3,0,0,1,11.058,11058,7.0800,0.9400,6.1200,9.4056,0.4647,-0.1560,1.3679,-50.69,-5.38,33.81,5.5048,5.7198,4.4944,9.1224
2,3,0,0,1,11.179,11179,6.7900,-2.3300,6.2200,9.4985,0.9665,-0.1658,1.9919,-47.00,-23.69,43.06,5.6742,4.6590,4.7218,8.7292
2,3,0,0,1,11.300,11300,5.2100,-3.5600,5.3400,8.2664,0.4985,-0.1091,1.4126,-40.56,-36.69,51.69,5.6130,3.5760,4.8033,8.2076
2,3,0,0,1,11.438,11438,4.7200,-5.7300,5.5900,9.2930,0.4374,0.2302,1.2348,-33.06,-46.81,62.00,5.4953,2.3497,4.9069,7.7329
2,3,0,0,1,11.559,11559,4.2800,-6.7200,4.9700,9.3903,0.2891,0.4931,1.4170,-28.44,-53.63,70.75,5.3352,1.1545,4.9152,7.3455
2,3,0,0,1,11.680,11680,4.1600,-7.4600,4.9600,9.8772,-0.0196,0.3196,0.9076,-23.56,-57.50,79.69,5.1803,0.0193,4.9211,7.1452
2,3,0,0,1,11.842,11842,3.4200,-7.2100,4.8500,9.3383,-0.2051,0.1898,-1.2054,-24.94,-56.75,80.56,4.9484,-0.9333,4.9118,7.0344
2,4,0,0,1,11.970,11970,4.9500,-5.7900,4.7000,8.9508,-0.1462,-0.1058,-1.1432,-33.13,-52.75,71.56,4.9486,-1.5733,4.8839,7.1285
2,4,0,0,1,12.091,12091,5.6000,-4.8300,5.2600,9.0750,-0.5345,-0.6447,-1.6919,-37.81,-44.13,62.13,5.0344,-2.0024,4.9334,7.3276
2,4,0,0,1,12.211,12211,6.0800,-4.2100,5.9800,9.5106,-0.7734,-0.2051,-2.5133,-43.88,-29.31,49.13,5.1722,-2.2933,5.0713,7.5980
2,4,0,0,1,12.332,12332,4.6200,1.7200,5.0800,7.0788,-0.8530,0.0524,-2.6027,-48.81,-1.81,31.69,5.0994,-1.7645,5.0725,7.4059
2,4,0,0,1,12.453,12453,7.2000,3.3000,5.7200,9.7698,-1.1148,0.3534,-2.0682,-48.63,19.06,21.50,5.3762,-1.0971,5.1578,7.5306
2,4,0,0,1,12.574,12574,5.2600,7.1300,5.2900,10.3193,-1.0025,0.4200,-2.2209,-42.00,42.69,7.69,5.3609,-0.0130,5.1752,7.4513
2,4,0,0,1,12.695,12695,6.0400,7.9400,4.0600,10.7707,-0.8083,0.5334,-1.5893,-36.56,56.00,358.44,5.4504,1.0350,5.0283,7.4874
2,4,0,0,1,12.862,12862,2.6900,10.3300,2.7900,11.0331,-0.7930,0.4909,-1.5228,-22.00,70.00,340.19,5.0867,2.2599,4.7333,7.3065
2,4,0,0,1,12.984,12984,3.4500,9.8300,2.3200,10.6730,-0.3709,0.3109,-1.0963,-15.94,75.56,331.75,4.8710,3.2574,4.4153,7.3370
2,4,0,0,1,13.104,13104,0.6100,10.1100,1.5000,10.2389,-0.7461,0.0807,-1.3275,-6.44,80.13,321.44,4.3095,4.1604,4.0311,7.2202
2,4,0,0,1,13.225,13225,0.9700,11.3500,0.4400,11.3999,-0.5007,-0.0055,-0.7058,-0.81,84.88,315.94,3.8694,5.1078,3.5579,7.3295
2,4,0,0,1,13.346,13346,-0.5000,10.0700,1.1500,10.1478,0.1724,0.0905,-0.7450,5.38,85.31,309.25,3.2937,5.7617,3.2406,7.3856
2,4,0,0,1,13.470,13470,-0.1700,9.9200,1.3800,10.0170,-0.2105,-0.1233,0.4647,5.19,85.31,309.63,2.8372,6.3097,2.9954,7.5389
2,4,0,0,1,13.591,13591,-0.0600,11.0800,0.3700,11.0863,0.3240,-0.3163,0.3131,2.94,85.69,313.25,2.4555,6.9383,2.6495,7.8223
2,4,0,0,1,13.715,13715,-0.1200,9.1400,1.3600,9.2414,0.5901,-0.8039,0.4778,0.19,81.50,321.00,2.1161,7.2284,2.4796,7.9294
2,4,0,0,1,13.877,13877,0.6800,10.9000,1.7600,11.0621,0.3632,-0.1724,0.9305,-4.75,78.38,330.31,1.9268,7.7122,2.3847,8.2993
2,4,0,0,1,13.998,13998,1.1900,9.2000,2.2000,9.5339,0.7014,-0.1364,1.5501,-11.81,74.44,338.19,1.8297,7.9083,2.3604,8.4534
2,4,0,0,1,14.120,14120,3.5800,8.4300,3.3500,9.7521,0.5923,-0.4200,0.1156,-18.00,68.56,345.13,2.0604,7.9770,2.4908,8.6071
2,4,0,0,1,14.241,14241,1.6200,9.1200,3.3100,9.8364,0.3142,-0.2738,1.1563,-20.50,65.00,351.75,2.0023,8.1276,2.5987,8.7648
2,4,0,0,1,14.367,14367,5.1500,8.0700,3.8700,10.3259,0.7385,0.4461,-0.0164,-27.13,60.88,357.38,2.4171,8.1200,2.7663,8.9123
2,4,0,0,1,14.488,14488,3.5600,8.5500,4.5200,10.3057,0.2978,0.0055,0.9839,-29.50,57.44,358.50,2.5677,8.1767,2.9974,9.0794
2,4,0,0,1,14.609,14609,6.1100,6.9200,4.9300,10.4653,0.4974,0.4298,0.6730,-36.38,52.81,3.13,3.0345,8.0111,3.2520,9.1631
2,4,0,0,1,14.729,14729,7.0900,6.7300,5.0700,11.0121,0.4887,-0.0316,0.8508,-41.63,47.25,7.31,3.5689,7.8423,3.4916,9.2968
2,4,0,0,1,14.891,14891,6.6100,4.1000,5.2700,9.3955,0.7745,-0.1811,1.2915,-47.69,33.06,15.31,3.9697,7.3491,3.7259,9.1461
2,4,0,0,1,15.012,15012,6.9700,2.6400,5.8700,9.4872,0.7352,0.0295,1.1857,-50.75,19.50,20.75,4.3650,6.7286,4.0085,8.9663
2,4,0,0,1,15.134,15134,7.6000,1.8900,5.5500,9.5987,0.4887,0.0644,0.8443,-52.63,8.06,25.56,4.7913,6.0910,4.2116,8.8201
2,4,0,0,1,15.260,15260,6.6700,0.1500,5.3100,8.5269,0.7189,0.0720,1.3101,-53.31,-4.50,29.75,5.0389,5.3081,4.3563,8.5173
2,4,0,0,1,15.381,15381,7.6100,-1.4400,5.8700,9.7182,0.9556,0.2356,1.4748,-51.75,-23.56,36.63,5.3777,4.4189,4.5558,8.3187
2,4,0,0,1,15.502,15502,6.5000,-3.9300,5.0400,9.1157,0.9752,0.4276,1.8097,-47.94,-42.19,44.38,5.5256,3.3187,4.6196,7.9301
2,4,0,0,1,15.623,15623,5.7700,-6.3800,3.7900,9.4001,0.4669,0.3316,2.1140,-38.81,-57.75,57.19,5.5578,2.0407,4.5103,7.4429
2,4,0,0,1,15.745,15745,4.5500,-7.7700,3.3700,9.6142,0.3982,0.2007,1.5381,-28.50,-65.50,69.50,5.4250,0.7479,4.3600,7.0000
2,4,0,0,1,15.912,15912,3.3500,-8.1700,2.7200,9.2396,-0.4222,0.0731,-0.0425,-23.00,-68.44,76.75,5.1516,-0.4273,4.1439,6.6252
2,4,0,0,1,16.033,16033,3.3900,-7.1400,3.5100,8.6482,-0.2105,-0.1920,-1.2217,-26.69,-64.50,72.63,4.9194,-1.3118,4.0604,6.5122
2,5,0,0,1,16.155,16155,4.3900,-6.4800,4.1800,8.8733,-0.3851,0.1124,-1.8184,-36.06,-59.81,63.00,4.8497,-1.9929,4.0761,6.6412
2,5,0,0,1,16.275,16275,6.2700,-3.8200,3.8400,8.2856,-0.8116,-0.0011,-1.7628,-46.56,-49.25,53.56,5.0368,-2.2336,4.0450,6.8353
2,5,0,0,1,16.396,16396,7.0000,-1.8700,4.1900,8.3698,-0.6436,0.0567,-2.2068,-54.69,-33.06,43.63,5.2955,-2.1857,4.0641,7.0240
2,5,0,0,1,16.517,16517,6.7800,0.9900,4.0300,7.9492,-0.8323,0.2945,-2.0693,-61.19,-6.06,31.25,5.4911,-1.7672,4.0596,7.0538
2,5,0,0,1,16.639,16639,8.2200,3.5400,3.4700,9.5990,-0.7778,0.5432,-1.8370,-62.56,22.81,22.56,5.8507,-1.0679,3.9819,7.1573
2,5,0,0,1,16.765,16765,7.2400,6.0000,3.6400,10.0830,-0.5923,0.5465,-2.6518,-55.19,52.56,8.31,6.0338,-0.1365,3.9369,7.2059
2,5,0,0,1,16.926,16926,6.8300,9.1200,1.9700,11.5631,-0.9239,0.0764,-1.6788,-40.50,73.19,353.44,6.1387,1.0833,3.6777,7.2376
2,5,0,0,1,17.047,17047,4.2700,9.8700,1.4300,10.8487,-0.5716,0.1167,-2.2766,-26.50,80.56,340.94,5.8925,2.2411,3.3815,7.1539
2,5,0,0,1,17.168,17168,2.5800,10.7600,1.1500,11.1246,0.1767,0.1920,-1.8053,-13.44,82.88,327.38,5.4560,3.3637,3.0874,7.1144
2,5,0,0,1,17.289,17289,1.8400,9.9400,2.3600,10.3807,0.2214,0.2422,-1.1846,-3.63,81.50,315.69,4.9795,4.2303,2.9916,7.1861
2,5,0,0,1,17.410,17410,0.9100,10.2000,1.7000,10.3807,-0.2869,0.0753,-0.1374,0.19,82.25,310.75,4.4432,5.0169,2.8214,7.2713
2,5,0,0,1,17.534,17534,0.4100,10.7900,1.1000,10.8537,0.2803,0.1789,0.5803,-1.56,82.56,311.88,3.9117,5.7777,2.5946,7.4441
2,5,0,0,1,17.655,17655,1.3400,8.7000,2.6400,9.1900,0.4451,0.4396,1.6733,-9.00,79.19,317.50,3.5729,6.1628,2.6005,7.5834
2,5,0,0,1,17.779,17779,4.2100,10.0600,1.8000,11.0530,-0.0229,0.6218,1.9504,-23.63,79.06,328.44,3.6568,6.6763,2.4951,8.0107
2,5,0,0,1,17.941,17941,4.9300,5.2400,3.2800,7.9070,0.0076,-0.1134,0.9054,-37.38,76.38,337.88,3.8246,6.4871,2.5985,7.9663
2,5,0,0,1,18.065,18065,8.7100,9.1000,0.4400,12.6043,-0.5258,-0.3153,2.1609,-50.81,75.88,356.69,4.4684,6.8314,2.3141,8.4846
2,5,0,0,1,18.190,18190,7.7300,5.4100,2.1500,9.6770,0.8792,-0.2018,0.1004,-56.38,67.69,1.38,4.8982,6.6441,2.2924,8.5669
2,5,0,0,1,18.311,18311,7.7200,5.4500,2.7100,9.8308,0.0371,-0.0458,0.4331,-57.56,63.06,1.94,5.2700,6.4867,2.3475,8.6811
2,5,0,0,1,18.432,18432,7.6600,5.3300,1.5800,9.4647,0.0949,-0.1898,0.7625,-60.94,59.44,7.31,5.5849,6.3343,2.2463,8.7385
2,5,0,0,1,18.553,18553,7.8000,4.7700,2.7600,9.5504,0.0938,0.0709,0.0055,-58.31,60.31,1.13,5.8768,6.1282,2.3140,8.8004
2,5,0,0,1,18.674,18674,10.2100,4.8600,2.8300,11.6564,0.1233,-0.2454,0.5040,-62.81,52.25,7.13,6.4478,5.9611,2.3820,9.0985
2,5,0,0,1,18.796,18796,9.0100,2.4600,3.8900,10.1175,0.5149,-0.3196,1.5446,-65.25,39.69,10.44,6.7855,5.4997,2.5807,9.1077
2,5,0,0,1,18.958,18958,9.7600,2.7700,3.8300,10.8443,0.1167,-0.4123,-0.6250,-66.69,12.75,19.13,7.1774,5.1400,2.7453,9.2451
2,5,0,0,1,19.083,19083,9.0200,0.6100,4.4800,10.0897,0.5400,-0.1745,1.7191,-64.94,3.75,20.38,7.4202,4.5431,2.9739,9.1948
2,5,0,0,1,19.204,19204,8.7100,-0.0500,4.0100,9.5889,-0.0545,-0.0796,0.6632,-63.38,-13.13,27.44,7.5902,3.9378,3.1105,9.0990
2,5,0,0,1,19.324,19324,8.0400,-1.9200,4.2200,9.2810,0.3709,-0.2574,1.6264,-59.75,-28.44,34.06,7.6495,3.1659,3.2567,8.8962
2,5,0,0,1,19.445,19445,7.9300,-3.1900,4.6000,9.7068,0.2323,-0.5880,0.9327,-51.88,-39.06,41.50,7.6864,2.3284,3.4337,8.7346
2,5,0,0,1,19.566,19566,6.1000,-3.1400,4.7500,8.3446,0.2585,-0.2443,0.8290,-47.19,-41.44,43.56,7.4774,1.6078,3.6071,8.4562
2,5,0,0,1,19.687,19687,6.5300,-5.9500,5.2900,10.2970,0.5018,-0.3458,1.4933,-38.25,-50.13,52.00,7.3525,0.6118,3.8289,8.3123
2,5,0,0,1,19.809,19809,4.2400,-4.9200,4.9200,8.1480,0.1287,-0.1014,0.4745,-34.38,-52.50,54.50,6.9424,-0.1171,3.9727,7.9995
2,5,0,0,1,19.975,19975,4.0500,-6.9600,4.6400,9.2937,0.0491,0.1604,1.4334,-23.94,-57.94,67.44,6.5612,-1.0188,4.0606,7.7831
2,5,0,0,1,20.097,20097,2.2600,-8.3600,4.8200,9.9111,0.2749,0.2542,1.1454,-17.38,-61.75,76.56,5.9945,-1.9862,4.1607,7.5624
2,5,0,0,1,20.218,20218,1.0200,-8.4400,3.8300,9.3243,-0.0491,0.3054,0.5345,-12.69,-63.69,83.75,5.3389,-2.8367,4.1171,7.3145
2,5,0,0,1,20.338,20338,1.9400,-7.4200,3.9100,8.6086,-0.1407,0.2836,-1.0450,-15.38,-63.00,83.19,4.8911,-3.4406,4.0898,7.2448
2,6,0,0,1,20.459,20459,3.3300,-7.3300,4.8800,9.4145,-0.2083,0.3305,-1.8511,-26.06,-60.63,73.56,4.6853,-3.9531,4.1939,7.4276
2,6,0,0,1,20.580,20580,5.0700,-5.4000,4.6100,8.7245,-0.4385,0.2585,-1.7770,-37.25,-54.94,64.69,4.7360,-4.1438,4.2488,7.5930
2,6,0,0,1,20.702,20702,6.4100,-3.2400,4.0800,8.2603,-0.2880,0.3665,-2.1675,-47.88,-46.75,54.69,4.9566,-4.0247,4.2265,7.6570
2,6,0,0,1,20.827,20827,7.6100,-1.2600,3.9900,8.6845,-0.4003,0.4843,-2.3791,-60.69,-29.69,40.44,5.3063,-3.6604,4.1954,7.6913
2,6,0,0,1,20.990,20990,8.0100,2.7300,3.8500,9.2971,-0.4298,0.2858,-2.7303,-65.50,21.56,20.44,5.6625,-2.8183,4.1499,7.5650
2,6,0,0,1,21.110,21110,7.8900,5.8400,2.7700,10.1995,-0.6381,0.6600,-2.0988,-58.75,52.69,6.63,5.9561,-1.6774,3.9680,7.3507
2,6,0,0,1,21.231,21231,7.0500,8.4200,2.1600,11.1922,-0.4952,0.5803,-2.6224,-46.31,71.69,351.06,6.1002,-0.3468,3.7298,7.1585
2,6,0,0,1,21.352,21352,5.6900,9.4600,1.9400,11.2085,-0.1571,0.2073,-2.0715,-31.69,79.06,334.94,6.0462,0.9455,3.4939,7.0468
2,6,0,0,1,21.473,21473,3.5200,9.4000,1.8000,10.1976,-0.3807,-0.1004,-1.7431,-19.31,81.63,322.69,5.7133,2.0596,3.2707,6.8979
2,6,0,0,1,21.594,21594,1.8400,10.9200,0.8000,11.1028,-0.6272,-0.2487,-1.2294,-9.38,85.38,314.81,5.2029,3.2272,2.9451,6.7940
2,6,0,0,1,21.715,21715,2.0300,10.5000,0.7800,10.7228,-0.0338,-0.1309,-0.1342,-4.88,87.56,311.69,4.7848,4.1855,2.6598,6.8911
2,6,0,0,1,21.841,21841,1.7300,10.2400,1.2800,10.4637,0.2171,-0.1658,0.3578,-6.63,86.13,314.25,4.3822,4.9834,2.4780,7.0837
2,6,0,0,1,22.004,22004,1.6400,10.5100,0.9500,10.6795,0.1440,-0.2400,0.5411,-10.25,84.56,319.56,4.0209,5.7116,2.2766,7.3467
2,6,0,0,1,22.125,22125,2.9800,9.6800,1.6200,10.2571,0.4549,-0.1724,1.4999,-17.75,81.75,328.06,3.8837,6.2346,2.1901,7.6648
2,6,0,0,1,22.247,22247,4.0100,9.0600,1.9000,10.0883,0.3207,-0.1200,1.3210,-26.75,78.25,337.19,3.9004,6.6069,2.1519,7.9683
2,6,0,0,1,22.368,22368,5.3200,8.6900,2.2700,10.4389,0.1898,-0.0840,1.5763,-35.44,74.63,346.13,4.0874,6.8814,2.1675,8.2921
2,6,0,0,1,22.494,22494,6.4900,7.6200,2.0200,10.2110,0.2978,-0.1680,1.9068,-46.25,69.75,357.19,4.4040,6.9787,2.1480,8.5271
2,6,0,0,1,22.615,22615,7.4500,4.9100,2.7100,9.3250,0.2836,-0.8007,1.3406,-56.19,55.88,10.00,4.8054,6.7061,2.2221,8.5441
2,6,0,0,1,22.736,22736,5.6300,4.9900,3.6900,8.3793,0.3403,-1.0232,-0.3796,-53.38,44.25,13.38,4.9141,6.4800,2.4155,8.4837
2,6,0,0,1,22.857,22857,8.1900,3.4300,4.7900,10.0889,0.3392,-0.2738,0.9774,-52.94,35.75,16.06,5.3458,6.0781,2.7284,8.5419
2,6,0,0,1,23.019,23019,4.3800,3.7100,7.4600,9.4128,0.3938,-0.8530,-0.6403,-44.31,32.25,10.19,5.2185,5.7660,3.3519,8.4685
2,6,0,0,1,23.142,23142,8.4800,4.8100,5.5900,11.2381,0.0109,0.2051,2.3333,-47.75,22.38,21.31,5.6483,5.6400,3.6468,8.7757
2,6,0,0,1,23.263,23263,8.3800,1.2600,6.5600,10.7166,1.1465,-1.0996,0.4516,-47.63,6.69,27.69,6.0082,5.0629,4.0307,8.8305
2,6,0,0,1,23.387,23387,3.6700,0.6700,8.0200,8.8452,0.6458,-1.5337,1.4835,-36.13,-4.69,31.56,5.7001,4.4840,4.5564,8.5650
2,6,0,0,1,23.509,23509,2.5700,-1.4000,7.0500,7.6333,1.2403,0.8258,1.1694,-32.56,-17.69,40.13,5.2877,3.7086,4.8850,8.0979
2,6,0,0,1,23.629,23629,5.2800,-3.9600,5.6700,8.7011,0.8574,2.2667,0.9970,-40.19,-33.94,46.50,5.2866,2.6981,4.9884,7.7533
2,6,0,0,1,23.750,23750,7.8400,-4.9100,3.1700,9.7787,0.5138,2.3104,1.5490,-45.88,-53.81,58.13,5.6231,1.6955,4.7488,7.5528
2,6,0,0,1,23.871,23871,8.6800,-6.1000,2.2400,10.8430,0.2902,0.6894,1.3614,-42.56,-70.00,70.63,6.0259,0.6683,4.4182,7.5019
2,6,0,0,1,24.033,24033,5.5200,-7.5500,2.8200,9.7686,-0.1374,-1.5337,1.5501,-27.38,-70.50,80.06,5.9593,-0.4147,4.2076,7.3068
2,6,0,0,1,24.159,24159,1.8000,-7.7000,3.5100,8.6516,-0.1178,-1.2348,1.2915,-14.94,-67.19,83.31,5.4112,-1.3747,4.1157,6.9361
2,6,0,0,1,24.281,24281,-0.2500,-8.5300,3.9400,9.3993,-0.0120,-0.1778,1.2992,-5.25,-66.75,88.94,4.6652,-2.3176,4.0925,6.6245
2,6,0,0,1,24.401,24401,-1.0300,-8.4000,3.6400,9.2125,-0.1069,0.2422,0.9490,2.38,-66.38,97.94,3.9147,-3.1191,4.0329,6.4279
2,6,0,0,1,24.522,24522,-1.3000,-8.1500,3.9400,9.1453,-0.3327,0.3272,-0.4778,3.19,-64.56,100.69,3.2275,-3.7820,4.0207,6.3943
2,7,0,0,1,24.643,24643,0.0900,-7.6900,4.3100,8.8159,-0.3033,0.4418,-1.6668,-4.88,-62.31,94.25,2.8141,-4.2970,4.0588,6.5465
2,7,0,0,1,24.764,24764,3.0000,-6.7300,4.3800,8.5719,-0.2923,0.7439,-2.5940,-19.50,-59.69,83.06,2.8386,-4.6176,4.1011,6.7970
2,7,0,0,1,24.885,24885,5.5100,-5.0000,4.3700,8.6288,-0.4549,0.5378,-2.4478,-36.31,-54.06,69.56,3.1906,-4.6680,4.1365,7.0058
2,7,0,0,1,25.053,25053,7.1200,-1.6400,4.2900,8.4728,-0.5683,0.0371,-2.6442,-53.94,-33.38,49.88,3.7084,-4.2690,4.1568,7.0182
2,7,0,0,1,25.174,25174,7.3800,1.2300,4.7300,8.8516,-0.9141,0.2814,-2.6704,-60.19,-3.75,35.88,4.1922,-3.5444,4.2323,6.9318
2,7,0,0,1,25.294,25294,6.8600,5.2900,3.7400,9.4356,-0.9468,0.7810,-2.8754,-57.75,38.88,19.00,4.5438,-2.3802,4.1674,6.6090
2,7,0,0,1,25.415,25415,6.2500,8.2100,2.9300,10.7262,-0.5770,0.6163,-2.7685,-45.50,64.19,1.31,4.7686,-0.9847,4.0044,6.3043
2,7,0,0,1,25.536,25536,4.5900,10.5500,2.1700,11.7081,-0.8607,0.3840,-2.6005,-29.75,75.88,343.75,4.7451,0.5353,3.7626,6.0795
2,7,0,0,1,25.657,25657,3.4300,11.8000,0.9000,12.3213,-0.5912,0.3491,-1.6581,-16.00,83.56,329.19,4.5718,2.0197,3.3854,6.0367
2,7,0,0,1,25.778,25778,2.8900,10.2500,1.3700,10.7374,-0.0164,-0.0938,-0.7079,-8.75,85.25,321.38,4.3502,3.1042,3.1198,6.1882
2,7,0,0,1,25.899,25899,1.1500,10.0200,0.9600,10.1314,-0.2651,-0.2214,-0.4494,-4.88,86.19,319.13,3.9285,4.0156,2.8352,6.2925
2,7,0,0,1,26.066,26066,1.1300,10.4700,0.2900,10.5348,0.0764,0.2083,1.0025,-6.50,87.19,320.75,3.5597,4.8661,2.4998,6.5268
2,7,0,0,1,26.187,26187,3.9600,10.0000,1.0000,10.8019,0.3927,-0.2531,1.6035,-18.19,85.06,332.00,3.6124,5.5426,2.3022,7.0050
2,7,0,0,1,26.309,26309,3.4900,9.8600,1.8600,10.6235,0.3796,-0.1298,0.8879,-25.00,81.38,339.69,3.5963,6.1115,2.2439,7.4377
2,7,0,0,1,26.429,26429,5.1700,8.8700,1.6600,10.4001,0.2989,0.3752,2.2002,-36.19,78.63,349.31,3.8037,6.4750,2.1670,7.8160
2,7,0,0,1,26.550,26550,6.5000,7.1800,1.7000,9.8332,0.3436,0.5236,1.8751,-49.38,77.00,358.56,4.1590,6.5679,2.1054,8.0540
2,7,0,0,1,26.671,26671,8.5300,4.3200,1.3800,9.6606,0.1331,0.5770,2.8667,-67.25,73.94,13.63,4.7350,6.2717,2.0098,8.1113
2,7,0,0,1,26.792,26792,9.8700,2.7100,0.8500,10.2705,0.0425,0.0960,1.5948,-80.50,69.00,25.13,5.4116,5.8024,1.8570,8.1487
2,7,0,0,1,26.916,26916,10.5500,1.0800,1.4900,10.7093,-0.1898,-1.2534,1.7988,-81.38,-24.75,38.38,6.0887,5.1801,1.8086,8.1962
2,7,0,0,1,27.080,27080,7.7600,-0.4200,2.4900,8.1605,0.1124,-2.1108,0.7221,-60.94,-30.88,47.56,6.3090,4.4421,1.8984,7.9460
2,7,0,0,1,27.201,27201,5.8900,-2.0800,4.6800,7.8052,0.6567,-1.3374,1.0199,-47.69,-32.38,49.63,6.2538,3.5827,2.2650,7.5548
2,7,0,0,1,27.321,27321,6.0900,-3.8900,6.4300,9.6729,0.5803,-0.9556,1.0057,-37.69,-37.81,53.25,6.2322,2.5980,2.8138,7.3149
2,7,0,0,1,27.442,27442,3.8800,-5.0300,6.4600,9.0602,0.6000,-0.4222,1.1083,-30.00,-42.88,56.75,5.9222,1.5928,3.2943,6.9615
2,7,0,0,1,27.563,27563,3.4700,-5.3100,5.5800,8.4483,0.6785,0.3316,0.9785,-24.56,-49.44,63.06,5.5991,0.6832,3.5955,6.6891
2,7,0,0,1,27.684,27684,3.4500,-7.6200,5.2900,9.8970,0.4756,0.9785,0.0949,-24.88,-56.31,67.56,5.3159,-0.4110,3.8188,6.5583
2,8,0,0,1,27.805,27805,4.9900,-6.8700,4.0700,9.4160,0.6741,0.9937,0.7221,-26.00,-63.00,72.88,5.2729,-1.2621,3.8519,6.6509
2,8,0,0,1,27.927,27927,3.9000,-8.9600,3.4500,10.3631,0.1484,0.4145,1.8948,-19.81,-69.50,83.69,5.0920,-2.2765,3.7989,6.7486
2,8,0,0,1,28.089,28089,1.5600,-8.6800,3.0700,9.3381,0.0894,-0.3371,0.6829,-7.50,-70.81,96.06,4.6266,-3.1203,3.7029,6.6972
2,8,0,0,1,28.214,28214,-0.2200,-8.9100,3.5400,9.5900,-0.2498,-0.2651,0.2171,-4.75,-70.00,96.75,3.9879,-3.8832,3.6814,6.6735
2,8,0,0,1,28.335,28335,0.4600,-8.1500,3.4600,8.8660,-0.2018,-0.1538,-0.9970,-6.13,-67.81,93.81,3.5230,-4.4455,3.6522,6.7463
2,8,0,0,1,28.455,28455,1.4800,-8.1800,3.6900,9.0950,-0.3785,0.3196,-1.8948,-15.81,-65.81,84.00,3.2538,-4.9376,3.6572,6.9529
2,8,0,0,1,28.576,28576,4.0900,-6.2000,3.6400,8.2715,-0.6992,0.5323,-2.3126,-29.81,-60.69,73.06,3.3640,-5.1040,3.6549,7.1222
2,8,0,0,1,28.697,28697,5.8900,-3.5900,3.7300,7.8418,-0.6261,0.4429,-2.5515,-45.38,-50.75,59.88,3.6969,-4.9045,3.6648,7.1520
2,8,0,0,1,28.818,28818,7.6400,-0.3500,3.8200,8.5489,-0.8912,0.3142,-2.8176,-58.69,-31.44,46.06,4.2165,-4.3043,3.6853,7.0631
2,8,0,0,1,28.940,28940,7.6600,2.8800,3.5700,8.9283,-0.9098,0.4941,-3.0674,-65.19,12.56,29.75,4.6702,-3.3576,3.6701,6.8231
2,8,0,0,1,29.107,29107,6.9800,7.5300,2.8100,10.6451,-0.9348,0.5160,-2.6169,-52.88,60.75,8.63,4.9746,-1.9229,3.5568,6.4105
2,8,0,0,1,29.228,29228,6.1100,10.0500,1.8300,11.9031,-0.7407,0.3283,-2.5536,-36.81,76.56,352.13,5.1242,-0.3452,3.3292,6.1205
2,8,0,0,1,29.348,29348,3.6100,11.0100,1.5100,11.6847,-0.4232,0.2225,-1.9275,-21.44,82.63,336.50,4.9247,1.1512,3.0895,5.9264
2,8,0,0,1,29.469,29469,3.3000,10.2700,1.0600,10.8391,-0.3643,0.0851,-1.0799,-12.56,85.75,327.31,4.7106,2.3528,2.8221,5.9741
2,8,0,0,1,29.590,29590,2.0700,10.5000,0.5300,10.7152,-0.2596,0.0938,-0.9032,-5.75,88.00,320.19,4.3626,3.4264,2.5200,6.0929
2,8,0,0,1,29.711,29711,1.0700,10.6200,0.4000,10.6813,0.1014,0.2105,0.3283,-3.81,88.56,317.38,3.9287,4.3743,2.2407,6.2921
2,8,0,0,1,29.832,29832,2.2000,10.0400,0.7000,10.3020,0.1636,0.1462,0.7036,-8.38,87.50,320.31,3.7009,5.1209,2.0376,6.6387
2,8,0,0,1,29.953,29953,1.9900,10.6900,0.2800,10.8773,0.2116,-0.0753,0.7570,-12.94,86.19,324.50,3.4755,5.8548,1.8060,7.0441
2,8,0,0,1,30.120,30120,3.6700,9.6100,1.5700,10.4061,0.5694,0.2585,2.5165,-27.56,81.81,338.13,3.5011,6.3496,1.7749,7.4650
2,8,0,0,1,30.241,30241,7.5900,7.2800,1.8900,10.6854,0.1134,0.4385,2.1108,-44.88,79.81,351.63,4.0399,6.4722,1.7901,7.8368
2,8,0,0,1,30.363,30363,8.7400,6.2300,1.1000,10.7894,-0.0818,-0.4036,2.3540,-58.94,76.56,6.13,4.6593,6.4403,1.6991,8.1286
2,8,0,0,1,30.483,30483,8.7200,4.3300,1.6100,9.8681,0.1571,-0.8029,1.7562,-70.25,54.38,21.75,5.1944,6.1622,1.6874,8.2342
2,8,0,0,1,30.604,30604,8.7000,2.3000,2.7200,9.4010,0.3294,-0.8465,1.6581,-72.19,15.94,32.00,5.6563,5.6533,1.8235,8.2024
2,8,0,0,1,30.728,30728,9.2000,1.3200,4.0300,10.1303,0.5061,-0.9719,1.1116,-66.56,-10.13,38.81,6.1233,5.0823,2.1142,8.2337
2,8,0,0,1,30.849,30849,7.5600,-1.3000,4.9000,9.1024,0.7538,-1.1934,1.4170,-56.75,-25.94,43.50,6.3126,4.2412,2.4813,7.9996
2,8,0,0,1,30.973,30973,6.3400,-2.1100,4.8100,8.2331,0.9261,-0.9283,0.9828,-46.00,-35.81,47.69,6.3162,3.4043,2.7882,7.6979
2,8,0,0,1,31.135,31135,4.9900,-5.6100,5.2600,9.1673,0.8039,-0.7243,1.1246,-34.13,-47.38,51.44,6.1415,2.2165,3.1139,7.2337
2,8,0,0,1,31.256,31256,3.6300,-6.1600,4.9200,8.6792,0.5018,-0.3153,0.7243,-27.44,-51.69,54.31,5.8105,1.1127,3.3519,6.7997
2,8,0,0,1,31.377,31377,3.1600,-7.6400,4.9400,9.6311,0.5083,0.3229,0.8803,-22.88,-57.00,59.06,5.4612,-0.0407,3.5612,6.5199
2,8,0,0,1,31.498,31498,3.0000,-7.7400,3.9900,9.2102,0.0676,0.8748,1.1945,-19.06,-61.25,68.06,5.1369,-1.0553,3.6177,6.3710
2,9,0,0,1,31.621,31621,2.3100,-8.7600,4.4200,10.0802,0.0993,0.7330,1.3341,-13.75,-64.69,80.00,4.7644,-2.0706,3.7234,6.3914
2,9,0,0,1,31.742,31742,2.0400,-8.6400,4.7300,10.0590,-0.4222,0.2280,1.0625,-8.38,-64.50,89.81,4.4054,-2.9363,3.8561,6.5497
2,9,0,0,1,31.866,31866,0.7800,-7.6900,4.7100,9.0514,-0.3414,-0.4996,0.2018,-3.50,-61.31,93.94,3.9277,-3.5627,3.9686,6.6234
2,9,0,0,1,31.987,31987,-0.4200,-7.7700,4.7600,9.1218,-0.0709,-0.4800,-0.7418,-4.00,-60.25,88.94,3.3547,-4.1171,4.0729,6.6928
2,9,0,0,1,32.149,32149,1.2200,-7.3400,4.9700,8.9479,-0.3851,0.1822,-1.2195,-10.19,-56.88,80.50,3.0734,-4.5418,4.1911,6.9021
2,9,0,0,1,32.270,32270,2.9000,-6.5100,5.1900,8.8162,-0.2247,0.6240,-2.3038,-21.69,-53.63,70.19,3.0506,-4.8012,4.3227,7.1444
2,9,0,0,1,32.409,32409,5.1100,-4.3400,4.5900,8.1250,-0.5945,0.6632,-2.2198,-39.56,-45.81,55.06,3.3220,-4.7404,4.3579,7.2456
2,9,0,0,1,32.529,32529,6.2500,-1.7900,4.5000,7.9067,-0.8432,0.5880,-2.2471,-51.31,-31.94,44.81,3.7078,-4.3516,4.3767,7.2000
2,9,0,0,1,32.650,32650,7.1100,1.7300,4.0600,8.3683,-0.9163,0.9010,-2.8940,-61.56,-1.94,31.00,4.1561,-3.5502,4.3349,6.9763
2,9,0,0,1,32.771,32771,8.1300,5.3900,3.1000,10.2352,-0.9545,0.7341,-2.4478,-61.19,40.19,16.31,4.6798,-2.3721,4.1722,6.7033
2,9,0,0,1,32.892,32892,7.1800,7.9800,2.4600,11.0129,-0.6381,0.5869,-2.9671,-49.63,65.50,1.06,5.0092,-1.0080,3.9466,6.4563
2,9,0,0,1,33.013,33013,4.1300,10.5600,2.0300,11.5192,-0.3491,0.5880,-2.9551,-30.75,77.75,339.19,4.8934,0.5164,3.6940,6.1529
2,9,0,0,1,33.181,33181,3.5100,10.9000,1.7600,11.5857,-0.3927,0.0949,-1.5675,-13.31,82.63,319.19,4.7111,1.8847,3.4392,6.1298
2,9,0,0,1,33.302,33302,1.6900,10.5400,1.0400,10.7252,-0.4265,-0.2247,-1.2588,-2.94,86.00,309.94,4.3130,3.0252,3.1230,6.1243
2,9,0,0,1,33.422,33422,-0.1800,10.5800,0.5100,10.5938,-0.0644,-0.2825,-0.6283,3.31,87.69,305.44,3.7209,4.0208,2.7787,6.1427
2,9,0,0,1,33.543,33543,-0.8600,9.8700,0.8000,9.9396,0.3251,-0.1636,0.2694,4.19,86.50,306.19,3.1173,4.7915,2.5179,6.2463
2,9,0,0,1,33.664,33664,-0.0700,9.4200,0.9600,9.4690,0.1058,-0.0458,0.3207,1.75,85.00,309.31,2.6973,5.4015,2.3126,6.4652
2,9,0,0,1,33.785,33785,0.8000,9.7300,0.9900,9.8129,-0.1680,-0.0316,0.2302,0.13,85.31,311.00,2.4473,5.9718,2.1384,6.7989
2,9,0,0,1,33.907,33907,0.8900,11.3800,0.8900,11.4494,0.1418,-0.3033,0.5531,-2.25,85.81,314.50,2.2421,6.6845,1.9739,7.3216
2,9,0,0,1,34.033,34033,2.0600,11.5400,1.6100,11.8325,0.6600,-0.4418,2.1740,-11.25,82.56,325.75,2.2181,7.3243,1.9259,7.8914
2,9,0,0,1,34.195,34195,3.7800,9.6500,2.8700,10.7540,0.6447,-0.1887,1.9177,-30.31,72.88,346.81,2.4239,7.6308,2.0503,8.2649
2,9,0,0,1,34.316,34316,5.8600,8.0700,3.0400,10.4262,1.2315,-0.1942,2.4347,-43.69,61.88,359.38,2.8767,7.6887,2.1807,8.4939
2,9,0,0,1,34.438,34438,6.7700,4.4600,4.2100,9.1350,1.3995,-0.5192,2.0889,-53.88,39.25,10.00,3.3897,7.2632,2.4481,8.3808
2,9,0,0,1,34.559,34559,7.0800,3.0400,4.5000,8.9229,0.8967,-0.5083,1.8075,-56.13,12.63,19.81,3.8760,6.7067,2.7185,8.2094
2,9,0,0,1,34.685,34685,7.1000,-0.6700,5.2500,8.8556,1.6373,-0.2629,1.6450,-54.00,-11.44,25.81,4.3008,5.7346,3.0521,7.7909
2,9,0,0,1,34.805,34805,6.3200,-3.5700,5.4200,9.0589,0.7014,-0.2313,1.7639,-47.56,-32.56,34.06,4.5669,4.5085,3.3641,7.2458
2,9,0,0,1,34.927,34927,5.3900,-3.7600,4.5100,7.9706,0.4778,0.0676,1.7661,-39.13,-44.69,45.38,4.6754,3.4189,3.5151,6.7753
2,9,0,0,1,35.048,35048,4.6900,-7.4200,5.2400,10.2230,0.4985,0.2716,1.7999,-30.75,-54.88,56.31,4.6773,1.9907,3.7424,6.3123
2,9,0,0,1,35.210,35210,3.5000,-7.5100,4.3300,9.3487,0.1091,-0.0774,1.5795,-18.50,-60.88,71.44,4.5222,0.7387,3.8199,5.9655
2,9,0,0,1,35.331,35331,1.0500,-7.9400,4.4400,9.1575,-0.1189,0.0055,1.4824,-9.88,-62.00,80.75,4.0646,-0.4049,3.9016,5.6487
2,9,0,0,1,35.453,35453,0.4700,-7.8400,4.5900,9.0970,-0.1494,0.0971,1.0461,-2.25,-61.44,90.00,3.5909,-1.3847,3.9923,5.5453
2,10,0,0,1,35.579,35579,-0.9400,-8.2600,4.7800,9.5896,-0.1822,0.1124,0.3698,1.19,-60.50,94.75,2.9939,-2.2907,4.0961,5.5667
2,10,0,0,1,35.700,35700,-0.2000,-7.3500,4.9000,8.8359,-0.0873,0.1724,-0.4647,0.25,-58.94,94.94,2.5730,-2.9574,4.2020,5.7466
2,10,0,0,1,35.821,35821,0.5400,-7.9000,5.4600,9.6184,0.1036,0.3163,-1.0308,-4.31,-58.81,91.13,2.3051,-3.6087,4.3678,6.1167
2,10,0,0,1,35.942,35942,2.2800,-7.3000,4.8500,9.0560,-0.0262,0.3862,-1.3090,-12.31,-58.94,86.00,2.3018,-4.0951,4.4313,6.4579
2,10,0,0,1,36.063,36063,3.5800,-7.0000,4.5700,9.0940,0.0840,0.3294,-1.5970,-21.75,-58.25,78.06,2.4702,-4.4779,4.4496,6.7788
2,10,0,0,1,36.227,36227,5.7200,-5.3300,4.3700,8.9568,-0.1418,0.3643,-2.0148,-37.50,-54.31,63.00,2.8985,-4.5902,4.4391,7.0126
2,10,0,0,1,36.352,36352,6.7200,-3.8600,4.2900,8.8579,-0.2793,0.3392,-1.7246,-49.75,-46.13,51.00,3.4021,-4.4940,4.4195,7.1625
2,10,0,0,1,36.474,36474,7.3100,-1.6500,3.9900,8.4899,-0.4538,0.3153,-1.9439,-58.69,-33.19,41.63,3.9170,-4.1192,4.3629,7.1656
2,10,0,0,1,36.594,36594,7.7500,1.4600,3.5100,8.6322,-0.5661,0.4963,-2.4282,-66.31,-3.06,28.63,4.4221,-3.3840,4.2505,7.0052
2,10,0,0,1,36.715,36715,7.8600,4.4300,2.8500,9.4619,-0.6763,0.5825,-3.0391,-64.06,40.63,13.63,4.8751,-2.3543,4.0659,6.7706
2,10,0,0,1,36.836,36836,5.6200,8.0600,1.8500,9.9985,-0.5160,0.6938,-3.0609,-48.50,68.88,352.88,4.9733,-0.9820,3.7739,6.3198
2,10,0,0,1,36.957,36957,4.7300,10.3800,1.3600,11.4877,-0.2749,0.3840,-2.0726,-33.81,78.69,334.88,4.9412,0.5152,3.4558,6.0518
2,10,0,0,1,37.078,37078,3.6100,10.5900,1.6900,11.3153,-0.0436,-0.0175,-2.3158,-19.44,81.19,319.50,4.7658,1.8428,3.2231,6.0413
2,10,0,0,1,37.245,37245,1.4100,10.8700,1.6000,11.0772,-0.1429,-0.6218,-1.2599,-3.13,82.19,306.50,4.3236,3.0324,3.0093,6.0782
2,10,0,0,1,37.366,37366,0.1000,10.4000,1.4500,10.5011,-0.1134,-0.3676,-0.5301,3.50,83.19,303.50,3.7670,4.0033,2.8038,6.1707
2,10,0,0,1,37.487,37487,-0.6900,10.5700,1.0700,10.6464,0.1931,0.1091,0.2945,4.06,83.06,303.69,3.1797,4.8686,2.5753,6.3597
2,10,0,0,1,37.608,37608,-0.7600,10.1200,1.5900,10.2723,0.3262,0.4811,0.7636,0.38,81.06,305.31,2.6606,5.5606,2.4455,6.6317
2,10,0,0,1,37.729,37729,0.8800,8.9600,1.8700,9.1953,-0.1876,0.7745,1.6842,-8.44,80.94,310.13,2.4259,6.0085,2.3696,6.8995
2,10,0,0,1,37.850,37850,2.8200,9.8200,0.7600,10.2451,-0.6523,0.9185,1.0668,-18.69,85.38,315.31,2.4779,6.5108,2.1575,7.2928
2,10,0,0,1,37.971,37971,4.3000,10.2400,-0.1600,11.1073,-0.2225,0.2880,1.0876,-25.81,90.31,319.63,2.7180,7.0022,1.8521,7.7362
2,10,0,0,1,38.096,38096,4.7900,8.5100,0.4300,9.7749,0.1887,-0.2476,1.0821,-33.31,89.75,327.13,2.9910,7.2009,1.6647,7.9731
2,10,0,0,1,38.259,38259,6.9400,9.1100,-0.0600,11.4525,0.0720,-0.7712,-0.2323,-40.75,86.81,337.88,3.5114,7.4525,1.4375,8.3627
2,10,0,0,1,38.380,38380,3.4000,7.0700,2.0400,8.1060,0.5040,-0.8978,0.7745,-38.75,77.69,339.81,3.4967,7.4021,1.5169,8.3258
2,10,0,0,1,38.502,38502,6.9600,6.9500,1.1300,9.9006,-0.3338,0.6250,0.6774,-45.94,76.56,347.81,3.9531,7.3425,1.4659,8.4669
2,10,0,0,1,38.622,38622,5.7500,8.4100,1.1700,10.2547,0.2411,-0.5007,0.0589,-45.94,78.69,346.81,4.1899,7.4832,1.4269,8.6942
2,10,0,0,1,38.743,38743,7.8200,4.9100,2.4100,9.5430,0.6076,0.7112,0.4592,-50.06,73.81,347.69,4.6682,7.1441,1.5564,8.6748
2,10,0,0,1,38.864,38864,7.6400,7.3700,1.6700,10.7459,-0.2302,-0.6883,0.4091,-51.44,74.31,348.25,5.0598,7.1739,1.5714,8.9183
2,10,0,0,1,38.985,38985,8.2400,5.7800,2.0900,10.2798,0.4352,0.0458,1.3461,-56.56,66.06,354.63,5.4789,6.9902,1.6397,9.0316
2,10,0,0,1,39.112,39112,9.1500,3.3900,2.4600,10.0631,-0.2891,-0.1058,1.7170,-66.25,57.06,3.69,5.9627,6.5158,1.7478,9.0035
2,10,0,0,1,39.274,39274,8.7400,2.9300,2.8000,9.6339,0.4931,-0.6392,0.8847,-70.56,30.75,15.44,6.3286,6.0433,1.8865,8.9516
2,10,0,0,1,39.395,39395,9.0400,-0.5900,3.9300,9.8749,0.5770,-0.1418,2.3638,-70.13,-2.44,22.69,6.6859,5.1692,2.1558,8.7218
2,10,0,0,1,39.516,39516,9.1000,-2.7500,4.0600,10.3371,-0.2891,-0.0327,2.0071,-64.06,-38.38,37.75,7.0040,4.1256,2.4067,8.4776
2,10,0,0,1,39.640,39640,8.2800,-2.9000,3.9500,9.6214,0.0153,-0.5760,1.4148,-55.56,-47.38,49.31,7.1722,3.1998,2.6101,8.2760
2,10,0,0,1,39.764,39764,6.6700,-5.4300,4.8000,9.8496,0.4756,-1.1694,1.8119,-41.75,-52.69,57.75,7.1060,2.0626,2.8986,7.9468
2,10,0,0,1,39.885,39885,4.4700,-4.6600,4.0400,7.6170,0.3807,-0.4276,0.4363,-33.38,-54.81,60.94,6.7586,1.1768,3.0490,7.5074
2,10,0,0,1,40.006,40006,3.8800,-7.4100,4.2500,9.3822,0.6185,0.1527,1.7170,-26.81,-60.75,66.88,6.3793,0.0452,3.2073,7.1403
2,10,0,0,1,40.127,40127,2.6500,-8.0800,4.0900,9.4359,-0.1025,0.1484,1.6679,-16.88,-64.69,79.56,5.8879,-1.0255,3.3236,6.8385
2,10,0,0,1,40.289,40289,1.0800,-8.4300,4.0000,9.3932,-0.1680,0.2847,0.8465,-8.06,-65.56,91.69,5.2543,-2.0012,3.4127,6.5772
2,10,0,0,1,40.427,40427,0.6000,-7.9900,4.1000,9.0006,-0.4276,0.2323,0.0633,-5.13,-62.81,97.63,4.6410,-2.7904,3.5033,6.4497
2,10,0,0,1,40.548,40548,0.2700,-7.5200,5.0800,9.0791,-0.3403,0.1996,-0.7898,-8.56,-60.06,95.44,4.0650,-3.4136,3.7111,6.4768
2,10,0,0,1,40.668,40668,1.1100,-7.3300,5.3100,9.1191,-0.1822,0.2433,-0.9196,-13.69,-58.13,91.25,3.6756,-3.9297,3.9218,6.6583
2,10,0,0,1,40.789,40789,2.8100,-6.2300,4.7200,8.3059,-0.1811,0.5727,-2.2602,-23.13,-55.69,83.69,3.5616,-4.2328,4.0270,6.8423
2,10,0,0,1,40.910,40910,4.6100,-3.6400,3.6300,6.9050,-0.1298,0.9316,-3.1503,-41.75,-50.13,67.38,3.6997,-4.1547,3.9747,6.8372
2,10,0,0,1,41.032,41032,7.6300,-0.2300,3.3100,8.3202,-0.3403,0.6883,-3.3707,-60.44,-32.31,48.69,4.2176,-3.6375,3.8871,6.7918
2,10,0,0,1,41.158,41158,7.7000,2.6000,3.1100,8.7018,-0.4047,0.3632,-3.6456,-67.19,18.31,27.31,4.6765,-2.8156,3.7847,6.6424
