participant,rep,equipment_code,exercise_code,quality_code,timestamp,timestamp_ms,accelX,accelY,accelZ,accelMag,gyroX,gyroY,gyroZ,roll,pitch,yaw,filteredX,filteredY,filteredZ,filteredMag
2,1,0,0,1,00.000,0,0.2100,9.5600,1.9000,9.7492,0.0065,0.0415,-0.0545,-1.56,79.50,19.19,-0.0022,9.5619,1.7215,9.7156
2,1,0,0,1,00.125,125,0.1300,9.5600,1.8100,9.7307,0.0098,0.0622,0.0513,-1.63,79.50,18.75,0.0152,9.5616,1.7331,9.7175
2,1,0,0,1,00.246,246,0.3300,9.7000,1.8500,9.8804,0.0894,0.0633,0.1014,-2.31,79.13,18.88,0.0567,9.5799,1.7485,9.7383
2,1,0,0,1,00.366,366,0.2700,9.5700,1.9700,9.7744,0.0360,0.1407,-0.1036,-2.31,78.69,18.06,0.0848,9.5786,1.7777,9.7425
2,1,0,0,1,00.487,487,0.2700,9.6000,1.9200,9.7938,0.0665,0.2094,-0.0600,-1.75,78.50,16.31,0.1092,9.5814,1.7965,9.7490
2,1,0,0,1,00.608,608,0.4300,9.1900,2.0500,9.4257,0.1069,0.1134,0.0425,-2.00,77.88,15.44,0.1515,9.5298,1.8299,9.7051
2,1,0,0,1,00.729,729,0.3000,9.4500,2.2200,9.7119,-0.0709,0.0698,-0.0469,-2.31,77.69,15.19,0.1710,9.5193,1.8813,9.7049
2,1,0,0,1,00.850,850,0.2200,9.7700,2.0500,9.9852,-0.1254,0.1200,-0.1047,-1.94,78.50,14.25,0.1775,9.5523,1.9035,9.7418
2,1,0,0,1,01.016,1016,-0.8800,10.1400,2.1500,10.4027,0.2836,0.3087,-0.3054,0.25,78.00,10.13,0.0381,9.6298,1.9360,9.8225
2,1,0,0,1,01.138,1138,-0.6000,10.2500,2.8500,10.6557,0.4669,0.4036,-0.2400,1.06,75.00,6.56,-0.0459,9.7115,2.0564,9.9270
2,1,0,0,1,01.260,1260,-0.8400,9.4200,3.1700,9.9745,0.7265,0.4167,-1.0276,4.75,70.81,0.19,-0.1506,9.6731,2.2032,9.9220
2,1,0,0,1,01.380,1380,-1.8100,9.2700,3.7100,10.1476,0.5509,0.2574,-0.7745,9.88,65.88,352.75,-0.3693,9.6200,2.4017,9.9221
2,1,0,0,1,01.501,1501,-3.1000,10.0500,4.3400,11.3775,1.1683,0.3218,-0.8890,13.88,59.81,347.19,-0.7291,9.6766,2.6572,10.0613
2,1,0,0,1,01.622,1622,-3.4700,7.4000,6.4800,10.4303,1.7933,1.1050,-1.2250,16.88,46.50,339.31,-1.0903,9.3766,3.1609,9.9550
2,1,0,0,1,01.743,1743,-1.3500,5.6100,7.9800,9.8476,1.3483,1.0788,-1.4104,16.19,32.13,329.19,-1.1245,8.8803,3.7959,9.7228
2,1,0,0,1,01.866,1866,-1.6800,3.8300,8.3700,9.3567,1.3603,-0.1058,-1.5413,18.13,20.44,319.75,-1.1977,8.2148,4.3987,9.3950
2,1,0,0,1,02.031,2031,-3.6300,0.8300,8.2900,9.0879,0.9839,-0.9141,-1.6308,27.13,3.44,307.44,-1.5182,7.2417,4.9115,8.8808
2,1,0,0,1,02.152,2152,-5.0600,-0.9600,7.5100,9.1063,0.8585,-0.8836,-1.4933,32.63,-9.25,297.81,-1.9849,6.1609,5.2539,8.3367
2,1,0,0,1,02.273,2273,-4.1600,-2.7000,6.2900,8.0100,0.6850,-1.0614,-1.2435,36.31,-20.63,290.00,-2.2716,4.9933,5.3904,7.6908
2,1,0,0,1,02.394,2394,-5.8200,-4.4200,5.7100,9.2743,0.4287,-1.6068,-0.8127,40.56,-34.13,281.44,-2.7391,3.7528,5.4325,7.1484
2,1,0,0,1,02.515,2515,-6.0800,-5.5900,3.4500,8.9508,0.1876,-2.0279,-1.1508,46.94,-47.19,273.50,-3.1794,2.5217,5.1713,6.5734
2,1,0,0,1,02.636,2636,-7.3400,-6.3900,2.3700,10.0162,-0.1669,-1.5446,-0.3774,48.56,-62.56,262.06,-3.7276,1.3474,4.8021,6.2267
2,1,0,0,1,02.757,2757,-7.3300,-5.2800,1.8100,9.2132,0.0273,-0.4723,0.3709,51.88,-68.50,259.19,-4.2023,0.4740,4.4079,6.1085
2,2,0,0,1,02.883,2883,-7.0200,-4.7500,1.9600,8.6997,0.0894,-0.1494,1.0330,56.56,-68.63,263.63,-4.5736,-0.2144,4.0853,6.1363
2,2,0,0,1,03.045,3045,-8.2200,-3.4500,0.8800,8.9580,0.0884,-0.8301,0.9567,66.88,-73.44,271.38,-5.0541,-0.6407,3.6629,6.2747
2,2,0,0,1,03.166,3166,-9.0600,-1.6000,-0.3200,9.2058,0.2727,-0.9250,1.1563,76.19,-89.31,278.75,-5.5820,-0.7671,3.1381,6.4494
2,2,0,0,1,03.288,3288,-10.1800,-1.1400,-1.0000,10.2923,0.3949,-0.3153,1.0341,81.44,-119.50,286.69,-6.1879,-0.8163,2.5928,6.7586
2,2,0,0,1,03.409,3409,-8.8800,0.4600,-1.2700,8.9821,0.5301,0.0731,1.3286,85.19,178.56,298.44,-6.5427,-0.6481,2.0838,6.8970
2,2,0,0,1,03.534,3534,-8.7800,1.8600,-1.0400,9.0349,0.3643,-0.3087,1.5119,78.13,115.94,310.63,-6.8375,-0.3176,1.6721,7.0461
2,2,0,0,1,03.655,3655,-8.1600,3.6800,-1.3600,9.0541,0.3523,-0.0502,1.4552,69.00,107.00,322.56,-7.0118,0.2092,1.2726,7.1294
2,2,0,0,1,03.778,3778,-7.9700,6.1100,-1.4100,10.1411,0.3033,-0.1625,2.0464,56.00,100.25,338.13,-7.1380,0.9868,0.9191,7.2643
2,2,0,0,1,03.898,3898,-7.0100,7.8900,-1.5100,10.6617,0.2116,-0.1156,1.8228,43.44,97.38,352.75,-7.1212,1.8964,0.5990,7.3937
2,2,0,0,1,04.060,4060,-6.4600,8.8300,-0.7100,10.9638,0.2836,0.3851,0.8683,33.94,93.63,2.56,-7.0340,2.8101,0.4265,7.5866
2,2,0,0,1,04.181,4181,-3.6700,8.4800,0.1700,9.2417,0.4102,0.3382,1.0723,26.81,89.75,8.75,-6.5907,3.5572,0.3927,7.4997
2,2,0,0,1,04.303,4303,-4.2800,9.8100,0.4000,10.7105,0.2640,0.4494,1.1748,20.69,86.25,13.31,-6.2862,4.3812,0.3937,7.6725
2,2,0,0,1,04.429,4429,-1.9500,10.3500,0.6100,10.5497,0.1985,0.5029,0.9948,11.38,84.56,20.19,-5.7148,5.1677,0.4222,7.7164
2,2,0,0,1,04.550,4550,-2.9500,9.9800,1.5800,10.5261,0.7669,0.8923,0.1451,8.19,79.88,18.88,-5.3505,5.8019,0.5747,7.9133
2,2,0,0,1,04.671,4671,-1.1700,10.0800,2.5000,10.4511,0.7778,1.0341,-0.4025,7.13,74.13,13.81,-4.7996,6.3656,0.8284,8.0152
2,2,0,0,1,04.792,4792,-1.0400,8.6800,4.1100,9.6600,0.7483,0.6949,-0.7821,9.75,67.50,5.38,-4.3042,6.6706,1.2609,8.0382
2,2,0,0,1,04.913,4913,-1.3300,8.5400,3.7200,9.4095,0.1920,-0.3534,-1.2217,15.06,64.31,358.94,-3.9123,6.9169,1.5849,8.1032
2,2,0,0,1,05.081,5081,-4.3400,8.0300,3.8600,9.9104,0.1625,-0.5738,-0.4778,23.63,63.06,355.63,-3.9686,7.0636,1.8847,8.3185
2,2,0,0,1,05.203,5203,-6.9100,7.4200,4.0100,10.9034,0.0109,0.5247,-1.4901,31.38,60.31,347.38,-4.3562,7.1106,2.1648,8.6153
2,2,0,0,1,05.324,5324,-3.6800,7.1200,4.4600,9.1722,0.4854,0.9359,-0.4091,31.75,54.13,340.75,-4.2671,7.1118,2.4672,8.6529
2,2,0,0,1,05.444,5444,-5.5000,5.4400,5.7000,9.6090,0.1331,0.4472,-0.8421,34.31,47.44,333.50,-4.4296,6.8915,2.8932,8.6882
2,2,0,0,1,05.565,5565,-4.8500,6.7100,4.1900,9.2792,-0.3491,-0.5563,-0.2956,36.69,48.75,330.63,-4.4850,6.8676,3.0641,8.7560
2,2,0,0,1,05.686,5686,-9.5200,4.9600,5.6700,12.1401,0.3392,-0.0207,-1.3744,44.50,44.06,323.44,-5.1485,6.6162,3.4075,9.0494
2,2,0,0,1,05.807,5807,-6.3700,6.4900,5.1700,10.4607,0.1647,0.8607,0.1974,41.75,42.25,323.19,-5.3094,6.5996,3.6397,9.2191
2,2,0,0,1,05.928,5928,-6.7200,3.9100,6.5700,10.1790,0.7025,0.5083,-1.4988,41.63,31.69,316.94,-5.4953,6.2452,4.0259,9.2417
2,2,0,0,1,06.095,6095,-6.7100,2.2000,8.2200,10.8366,-0.1320,0.5029,1.1726,39.38,17.88,309.13,-5.6554,5.7121,4.5786,9.2507
2,2,0,0,1,06.216,6216,-6.4200,1.0700,6.2400,9.0166,0.7472,-0.7243,-2.3278,42.75,16.00,308.13,-5.7561,5.1004,4.7975,9.0644
2,2,0,0,1,06.337,6337,-8.5100,0.7900,6.0400,10.4655,-0.0687,0.3043,-0.5072,45.63,1.31,296.81,-6.1190,4.5324,4.9612,9.0884
2,2,0,0,1,06.458,6458,-5.3600,0.1600,6.5900,8.4961,0.7189,0.1647,-1.2468,43.25,-4.00,293.88,-6.0190,3.9562,5.1759,8.8696
2,2,0,0,1,06.579,6579,-5.4100,-3.5000,6.9000,9.4408,0.3556,-0.3065,-1.2152,42.00,-18.00,285.56,-5.9388,2.9737,5.4031,8.5618
2,2,0,0,1,06.700,6700,-5.4100,-3.2200,6.2800,8.8924,-0.1396,-0.8421,-0.9523,43.00,-25.38,278.00,-5.8691,2.1575,5.5186,8.3400
2,2,0,0,1,06.822,6822,-6.8600,-3.8900,5.2500,9.4739,0.1189,-0.9207,-0.8487,45.56,-33.69,270.19,-5.9997,1.3606,5.4832,8.2409
2,2,0,0,1,06.947,6947,-6.1300,-4.8800,4.8400,9.2096,-0.2640,0.3098,0.1985,45.81,-36.69,267.19,-6.0168,0.5383,5.3985,8.1016
2,2,0,0,1,07.109,7109,-5.4400,-2.7600,5.9900,8.5493,-0.0938,0.2476,1.6166,47.38,-23.56,277.81,-5.9408,0.1036,5.4764,8.0805
2,3,0,0,1,07.230,7230,-6.5300,-1.1200,5.8800,8.8583,-0.3927,-0.1058,1.7584,50.75,-9.19,288.69,-6.0185,-0.0576,5.5296,8.1732
2,3,0,0,1,07.352,7352,-6.6900,0.9600,5.1700,8.5092,-0.3414,-0.1593,1.7551,51.63,8.13,299.19,-6.1070,0.0765,5.4822,8.2070
2,3,0,0,1,07.473,7473,-5.9400,2.9900,4.7400,8.1665,-0.4276,-0.1298,2.1260,48.75,25.31,310.38,-6.0850,0.4604,5.3844,8.1382
2,3,0,0,1,07.599,7599,-6.1000,4.6900,5.6400,9.5402,-0.7930,-0.6960,1.9788,43.06,43.38,323.38,-6.0869,1.0178,5.4181,8.2123
2,3,0,0,1,07.720,7720,-5.1700,9.3300,2.4500,10.9444,-0.8748,-0.7472,2.0879,34.38,62.00,337.69,-5.9661,2.1131,5.0270,8.0827
2,3,0,0,1,07.841,7841,-2.9800,9.5700,2.8000,10.4070,-0.7538,-0.9905,1.4454,24.75,72.81,351.31,-5.5726,3.0957,4.7335,7.9400
2,3,0,0,1,07.962,7962,-4.8500,9.7000,1.5300,10.9523,-0.2291,-1.0930,0.7309,22.25,79.31,359.94,-5.4774,3.9660,4.3114,8.0199
2,3,0,0,1,08.124,8124,-2.6600,10.4000,1.1400,10.7951,-0.0076,-0.1920,1.4464,11.25,82.88,17.00,-5.1061,4.8138,3.8935,8.0253
2,3,0,0,1,08.245,8245,-1.3700,10.3000,1.3500,10.4780,0.3840,0.4647,1.3308,2.56,81.50,24.50,-4.6138,5.5368,3.5583,8.0377
2,3,0,0,1,08.366,8366,0.6200,10.4200,1.9900,10.6264,0.1582,0.7309,1.3330,-7.38,79.56,30.25,-3.9241,6.1803,3.3516,8.0516
2,3,0,0,1,08.492,8492,2.3000,10.7800,2.2000,11.2400,0.1233,0.2520,-1.6330,-8.44,79.56,27.75,-3.1039,6.7864,3.1999,8.1197
2,3,0,0,1,08.614,8614,-3.3000,9.3200,2.3900,10.1717,0.3578,-0.3742,-2.4696,10.69,77.56,9.25,-3.1298,7.1203,3.0932,8.3703
2,3,0,0,1,08.734,8734,-5.0100,9.0800,2.3400,10.6312,0.9774,0.4309,-1.0188,21.38,72.94,0.00,-3.3775,7.3785,2.9939,8.6495
2,3,0,0,1,08.856,8856,-1.0000,7.1300,4.5900,8.5384,0.4374,1.0996,0.1025,19.50,63.81,356.19,-3.0642,7.3458,3.2042,8.5800
2,3,0,0,1,08.977,8977,-5.9400,9.4600,2.6400,11.4780,0.0960,0.2193,-1.6199,24.56,61.88,347.25,-3.4432,7.6244,3.1299,8.9321
2,3,0,0,1,09.142,9142,-2.9000,6.5000,5.5800,9.0441,-0.0022,-0.1909,-1.0756,27.50,54.69,342.31,-3.3716,7.4762,3.4527,8.8985
2,3,0,0,1,09.266,9266,-6.7800,6.9600,4.5400,10.7248,0.2051,-0.2803,-1.3886,37.75,50.00,331.88,-3.8208,7.4082,3.5960,9.0780
2,3,0,0,1,09.387,9387,-3.2600,2.2100,5.9200,7.1104,0.4789,-0.1036,-1.2305,41.94,43.31,328.00,-3.7469,6.7232,3.9023,8.6295
2,3,0,0,1,09.507,9507,-7.9000,5.4100,4.9500,10.7787,0.2171,0.4123,0.0316,46.13,39.06,321.56,-4.2941,6.5501,4.0403,8.8130
2,3,0,0,1,09.628,9628,-6.7100,2.8700,6.4100,9.7133,0.4451,0.2891,-1.4977,46.06,31.88,318.81,-4.6125,6.0652,4.3526,8.7753
2,3,0,0,1,09.749,9749,-8.0900,2.0900,5.3200,9.9055,0.5051,0.4003,-1.8533,49.56,15.69,307.19,-5.0707,5.5414,4.4801,8.7459
2,3,0,0,1,09.870,9870,-6.0700,1.5900,5.9500,8.6473,0.1680,0.2771,0.1953,47.69,10.06,305.44,-5.2024,5.0207,4.6738,8.6091
2,3,0,0,1,09.993,9993,-7.0700,0.1200,6.5500,9.6386,0.2563,0.1025,-1.1606,47.06,3.13,301.31,-5.4485,4.3749,4.9210,8.5465
2,3,0,0,1,10.158,10158,-6.6500,-0.8000,6.4300,9.2848,0.0109,-0.0458,-0.9796,46.56,-7.38,293.00,-5.6068,3.6930,5.1199,8.4432
2,3,0,0,1,10.279,10279,-6.2300,-2.2600,5.6900,8.7348,0.3142,0.1876,-1.4268,43.94,-18.38,285.50,-5.6890,2.9085,5.1950,8.2348
2,3,0,0,1,10.400,10400,-4.7600,-3.6200,6.3800,8.7445,0.1364,-0.0960,-0.2923,41.94,-23.50,282.06,-5.5665,2.0482,5.3511,7.9885
2,3,0,0,1,10.521,10521,-5.5300,-4.8800,6.6200,9.9106,-0.3949,-0.1374,-0.2313,41.63,-26.06,278.38,-5.5617,1.1353,5.5183,7.9167
2,4,0,0,1,10.642,10642,-5.7000,-1.5600,6.1200,8.5075,-0.5509,-0.2160,1.2675,44.19,-18.38,281.00,-5.5799,0.7801,5.5976,7.9422
2,4,0,0,1,10.763,10763,-6.8500,-1.9100,6.3300,9.5205,-0.2062,-0.1582,1.0057,47.44,-9.56,287.56,-5.7473,0.4256,5.6941,8.1016
2,4,0,0,1,10.885,10885,-6.0000,0.7000,5.6600,8.2780,-0.6763,0.1407,1.7061,47.63,4.06,298.56,-5.7806,0.4618,5.6896,8.1241
2,4,0,0,1,11.011,11011,-6.5000,2.4100,5.9400,9.1292,-0.3600,-0.0949,1.5544,45.44,17.25,307.38,-5.8754,0.7185,5.7226,8.2332
2,4,0,0,1,11.173,11173,-5.3700,4.8400,5.1000,8.8472,-0.6665,-0.5072,1.2850,40.75,38.13,322.00,-5.8088,1.2616,5.6406,8.1945
2,4,0,0,1,11.294,11294,-5.3300,6.3800,4.5700,9.4867,-0.9108,-0.4614,2.0693,35.50,51.13,332.00,-5.7457,1.9361,5.4995,8.1857
2,4,0,0,1,11.416,11416,-3.1500,7.9600,3.6500,9.3063,-0.8007,-0.2018,1.6537,25.75,62.56,343.56,-5.4037,2.7299,5.2558,8.0172
2,4,0,0,1,11.537,11537,-2.8700,9.9900,3.5900,10.9966,-0.5149,-0.3065,2.3638,14.75,69.13,356.56,-5.0698,3.6866,5.0363,8.0410
2,4,0,0,1,11.663,11663,-0.5100,9.7700,2.7800,10.1706,-0.3949,-0.0600,1.1988,2.56,73.06,10.63,-4.4689,4.4882,4.7390,7.9103
2,4,0,0,1,11.784,11784,0.7300,9.3600,2.5600,9.7312,-0.5269,-0.1004,1.1410,-3.69,75.81,17.25,-3.7838,5.1302,4.4518,7.7753
2,4,0,0,1,11.905,11905,2.3500,10.7700,1.7000,11.1537,-0.5465,0.1636,2.0126,-16.56,80.06,31.56,-2.9756,5.8734,4.0892,7.7506
2,4,0,0,1,12.025,12025,1.8900,11.8700,1.9000,12.1688,-0.0327,0.5476,-0.8072,-19.38,81.75,32.06,-2.3344,6.6636,3.8007,8.0186
2,4,0,0,1,12.187,12187,2.7400,8.8200,2.0000,9.4499,0.1974,0.4734,-1.4224,-11.25,82.13,16.19,-1.6657,6.9477,3.5634,7.9840
2,4,0,0,1,12.308,12308,1.0100,9.5600,1.7500,9.7712,1.1377,0.3403,1.7006,-11.25,78.75,14.69,-1.3131,7.2920,3.3245,8.1209
2,4,0,0,1,12.430,12430,3.5200,8.2900,3.2800,9.5850,-0.5770,-0.0284,-1.7661,-10.94,76.56,11.44,-0.6762,7.4235,3.3186,8.1596
2,4,0,0,1,12.556,12556,-0.0200,12.6500,1.4900,12.7375,-0.1647,-1.2719,-0.3480,-2.88,80.38,8.56,-0.5898,8.1122,3.0776,8.6964
2,4,0,0,1,12.677,12677,-2.7400,10.1200,2.8100,10.8544,0.8301,-0.5989,-2.2307,7.88,76.44,6.19,-0.8731,8.3768,3.0424,8.9548
2,4,0,0,1,12.798,12798,-3.3900,9.1300,1.7600,9.8968,0.4538,0.3807,-2.3147,23.00,71.44,350.94,-1.2048,8.4760,2.8734,9.0306
2,4,0,0,1,12.919,12919,-4.1900,8.1600,3.0800,9.6762,1.2621,1.2250,0.1189,27.06,61.50,342.94,-1.5982,8.4344,2.9006,9.0613
2,4,0,0,1,13.040,13040,-2.2400,6.0300,5.4800,8.4504,0.7199,0.3567,-1.9766,28.06,50.19,336.56,-1.6827,8.1176,3.2405,8.9010
2,4,0,0,1,13.206,13206,-6.4100,4.2300,4.8500,9.0831,0.2803,-1.2730,-1.6417,44.56,41.38,323.19,-2.3057,7.6053,3.4526,8.6647
2,4,0,0,1,13.329,13329,-9.7600,2.6600,4.7000,11.1545,0.1244,-0.0785,-1.6264,56.94,30.00,312.00,-3.2880,6.9536,3.6170,8.4998
2,4,0,0,1,13.451,13451,-7.4000,2.2800,4.0200,8.7246,0.8192,0.7309,-1.6766,57.63,10.63,303.38,-3.8298,6.3377,3.6701,8.2646
2,4,0,0,1,13.571,13571,-5.7700,-0.7500,5.1600,7.7770,0.6010,0.4232,-0.8628,53.38,-6.88,297.75,-4.0855,5.4038,3.8664,7.8001
2,4,0,0,1,13.692,13692,-5.8500,-2.6100,4.7900,7.9987,0.2836,-0.6141,-1.4104,52.75,-19.31,291.44,-4.3180,4.3478,3.9881,7.3112
2,4,0,0,1,13.813,13813,-7.0400,-4.0600,4.6100,9.3433,0.2891,-0.5978,-1.1585,52.75,-34.13,282.44,-4.6767,3.2398,4.0701,6.9952
2,4,0,0,1,13.935,13935,-6.6100,-7.1000,5.5700,11.1860,-0.4091,0.2858,0.1069,50.75,-40.00,277.75,-4.9315,1.8773,4.2677,6.7865
2,4,0,0,1,14.061,14061,-5.3900,-1.1500,4.6000,7.1788,-0.4603,0.2563,1.7857,52.81,-23.44,284.38,-4.9919,1.4784,4.3115,6.7597
2,5,0,0,1,14.224,14224,-7.9200,-1.6700,5.6200,9.8539,-0.2476,0.0044,1.3559,56.94,-5.31,298.19,-5.3777,1.0635,4.4839,7.0821
2,5,0,0,1,14.345,14345,-6.7300,1.6000,4.5600,8.2853,-0.3720,0.1985,1.4028,55.31,10.50,307.50,-5.5559,1.1342,4.4940,7.2354
2,5,0,0,1,14.467,14467,-6.9300,3.1700,4.6900,8.9482,-0.2454,0.0938,2.2951,50.81,26.94,318.50,-5.7370,1.4025,4.5198,7.4370
2,5,0,0,1,14.588,14588,-4.9900,5.2400,5.3100,8.9752,-0.4232,0.6600,2.3409,39.25,41.56,333.75,-5.6386,1.9082,4.6239,7.5376
2,5,0,0,1,14.713,14713,-2.1800,8.0400,5.5300,9.9987,-0.9261,0.3338,2.6594,23.88,52.13,347.81,-5.1828,2.7162,4.7433,7.5325
2,5,0,0,1,14.835,14835,-1.5500,7.6000,5.4100,9.4568,-0.5411,-0.3382,2.1249,10.31,59.88,4.06,-4.7041,3.3597,4.8312,7.5337
2,5,0,0,1,14.955,14955,-0.1200,10.2200,4.2900,11.0845,-1.1214,-0.1571,1.1203,2.44,66.56,13.81,-4.1000,4.2637,4.7599,7.5925
2,5,0,0,1,15.076,15076,1.9200,10.0600,1.9500,10.4256,-0.7341,-0.4178,1.1966,-5.56,73.81,24.81,-3.3067,5.0275,4.3896,7.4484
2,5,0,0,1,15.238,15238,1.3200,11.1500,2.6900,11.5456,-0.5105,0.2083,1.9384,-16.06,77.06,37.25,-2.6971,5.8343,4.1656,7.6594
2,5,0,0,1,15.359,15359,3.6800,11.2800,2.5700,12.1403,-0.2662,0.3371,0.0687,-24.88,80.25,44.88,-1.8567,6.5519,3.9554,7.8753
2,5,0,0,1,15.486,15486,3.5500,13.9900,1.2600,14.4883,1.8097,-0.2083,-2.3595,-16.31,77.50,34.94,-1.1443,7.5321,3.6002,8.4263
2,5,0,0,1,15.607,15607,-1.8800,3.3100,6.4100,7.4551,1.6526,0.5432,-1.5206,0.25,59.06,14.50,-1.2412,6.9757,3.9704,8.1219
2,5,0,0,1,15.727,15727,2.5000,10.2600,3.2300,11.0431,-1.1410,0.0622,0.4232,-1.56,61.94,12.69,-0.7482,7.4085,3.8729,8.3931
2,5,0,0,1,15.848,15848,-0.6500,9.4400,3.9800,10.2653,0.1418,-1.3210,-1.5195,4.94,64.75,11.38,-0.7353,7.6762,3.8870,8.6356
2,5,0,0,1,15.969,15969,-4.6300,8.3200,4.4700,10.5186,-0.0949,-0.5596,-1.0472,16.19,64.44,6.88,-1.2485,7.7610,3.9638,8.8037
2,5,0,0,1,16.090,16090,-3.8200,9.2400,4.1000,10.8065,0.1440,0.2825,-1.3155,22.69,63.44,359.44,-1.5874,7.9559,3.9818,9.0372
2,5,0,0,1,16.253,16253,-5.5500,5.8600,4.8400,9.4110,0.6610,0.6087,-1.2850,33.94,51.44,343.13,-2.1095,7.6797,4.0949,8.9552
2,5,0,0,1,16.378,16378,-6.3900,6.4600,4.6300,10.1981,0.7003,0.7516,-0.8454,35.50,43.25,337.56,-2.6736,7.5190,4.1654,9.0019
2,5,0,0,1,16.500,16500,-3.7500,3.0500,7.6900,9.0830,0.3643,0.7385,-1.1279,33.44,30.75,330.56,-2.8154,6.9301,4.6298,8.7971
2,5,0,0,1,16.620,16620,-4.6100,3.7800,6.3100,8.6808,0.0753,-0.7996,-1.3014,38.06,24.75,322.00,-3.0519,6.5150,4.8512,8.6772
2,5,0,0,1,16.741,16741,-7.5500,1.2400,5.6800,9.5290,0.2236,-0.9817,-1.4759,48.25,16.81,313.88,-3.6446,5.8199,4.9604,8.4712
2,5,0,0,1,16.862,16862,-7.0700,0.3500,6.0700,9.3248,0.0644,-0.2094,-1.1661,53.38,7.56,306.56,-4.0960,5.0991,5.1067,8.2980
2,5,0,0,1,16.983,16983,-6.6400,-1.4900,5.2900,8.6194,0.1549,-0.3894,-2.0453,55.00,-8.38,295.31,-4.4312,4.2308,5.1308,7.9913
2,5,0,0,1,17.104,17104,-6.9800,-2.9600,4.3900,8.7609,0.0327,-0.7210,-1.1803,55.13,-26.38,284.06,-4.7671,3.2833,5.0332,7.6706
2,5,0,0,1,17.270,17270,-6.5300,-4.8400,4.1400,9.1217,-0.2683,-0.7843,-1.1432,55.75,-43.25,272.31,-4.9994,2.2128,4.9155,7.3521
2,5,0,0,1,17.392,17392,-6.8900,-4.0500,4.0900,8.9779,-0.1113,0.1942,1.4519,57.31,-42.63,271.38,-5.2485,1.3875,4.8067,7.2510
2,6,0,0,1,17.514,17514,-7.1200,-2.1500,4.4700,8.6774,0.5061,0.5258,2.0584,62.19,-22.50,286.19,-5.4952,0.9214,4.7623,7.3298
2,6,0,0,1,17.634,17634,-7.7200,-0.4200,4.2800,8.8370,0.1047,0.3643,2.3442,61.56,3.25,302.44,-5.7883,0.7446,4.6988,7.4925
2,6,0,0,1,17.755,17755,-6.5600,2.9300,3.3800,7.9400,-0.3632,0.3589,2.0977,55.38,27.19,316.13,-5.8900,1.0326,4.5250,7.4989
2,6,0,0,1,17.876,17876,-5.3500,4.5200,4.2700,8.2028,-0.5901,-0.0251,2.4653,45.63,43.94,329.69,-5.8189,1.4921,4.4914,7.5006
2,6,0,0,1,17.997,17997,-3.6600,8.0700,3.2300,9.4315,-1.0483,-0.1724,2.5275,32.00,59.75,345.38,-5.5344,2.3589,4.3252,7.4095
2,6,0,0,1,18.121,18121,-3.2300,9.4800,2.9700,10.4463,-0.9883,0.0644,2.6551,18.75,69.31,358.56,-5.2307,3.2973,4.1466,7.4449
2,6,0,0,1,18.285,18285,1.1600,11.3700,1.9500,11.5942,-0.6196,0.1691,1.8882,-5.63,78.69,21.31,-4.3886,4.3611,3.8571,7.2908
2,6,0,0,1,18.406,18406,1.8100,11.9900,1.7600,12.2529,-0.3622,0.5105,1.6722,-17.56,82.19,32.00,-3.5718,5.3664,3.5808,7.3741
2,6,0,0,1,18.527,18527,2.0400,11.3200,1.9100,11.6598,0.4996,1.0483,0.8192,-25.50,83.31,34.88,-2.8323,6.1509,3.3606,7.5597
2,6,0,0,1,18.648,18648,5.4800,9.5300,2.4200,11.2565,1.1683,1.2446,-0.3840,-28.63,81.56,27.69,-1.7369,6.5962,3.2367,7.5500
2,6,0,0,1,18.769,18769,3.7800,8.9700,2.5700,10.0675,0.7123,0.0033,-1.3526,-20.75,77.88,13.63,-1.0099,6.9090,3.1488,7.6596
2,6,0,0,1,18.896,18896,3.8100,9.8800,2.9500,10.9924,0.2989,-1.0897,-0.9043,-14.31,74.13,10.44,-0.3748,7.3005,3.1226,7.9491
2,6,0,0,1,19.018,19018,0.7700,8.8000,3.3400,9.4440,0.4669,-1.5773,-2.0998,0.19,70.31,5.44,-0.2239,7.4981,3.1513,8.1365
2,6,0,0,1,19.138,19138,-5.2400,8.2100,3.5300,10.3597,0.2247,-0.8301,-1.1814,15.25,68.25,359.44,-0.8849,7.5919,3.2012,8.2866
2,6,0,0,1,19.300,19300,-2.8600,9.7900,3.3900,10.7478,1.2665,1.3635,-1.0963,16.63,61.94,353.44,-1.1452,7.8816,3.2261,8.5929
2,6,0,0,1,19.421,19421,-1.5000,6.4300,6.6900,9.3995,1.5970,0.9730,-0.6130,17.25,47.06,343.81,-1.1919,7.6903,3.6825,8.6094
2,6,0,0,1,19.549,19549,-1.0600,5.0400,7.0400,8.7228,0.4996,-1.1443,-1.5272,21.94,39.31,339.69,-1.1746,7.3410,4.1249,8.5021
2,6,0,0,1,19.670,19670,-6.3500,4.4700,5.4200,9.4699,0.2880,-1.7922,-1.6897,40.06,35.31,330.81,-1.8566,6.9627,4.2956,8.3892
2,6,0,0,1,19.791,19791,-8.0100,3.6400,5.0800,10.1595,0.5454,-0.2803,-1.1966,50.38,29.13,325.00,-2.6674,6.5249,4.3990,8.3090
2,6,0,0,1,19.911,19911,-6.5300,1.4000,5.2600,8.5011,0.9959,0.0938,-1.7639,53.38,11.44,317.56,-3.1764,5.8495,4.5124,8.0417
2,6,0,0,1,20.032,20032,-6.6900,-2.0900,5.1200,8.6798,0.6960,-0.4898,-1.5130,55.25,-10.31,309.50,-3.6394,4.8033,4.5925,7.5768
2,6,0,0,1,20.153,20153,-7.2700,-2.6800,4.0400,8.7382,0.4036,-0.1920,-1.0516,54.75,-26.31,302.06,-4.1178,3.8172,4.5197,7.2080
2,6,0,0,1,20.315,20315,-6.5100,-6.1400,4.5600,10.0436,0.4625,-0.1527,-0.9010,51.31,-41.31,296.38,-4.4331,2.5051,4.5250,6.8120
2,6,0,0,1,20.440,20440,-5.3100,-4.8000,3.6800,8.0485,-0.6807,0.2443,0.6556,50.50,-39.38,295.25,-4.5486,1.5425,4.4136,6.5230
2,6,0,0,1,20.561,20561,-6.0100,-3.0500,4.0600,7.8680,-0.3665,0.0076,1.6941,54.13,-26.81,301.94,-4.7412,0.9373,4.3670,6.5137
2,7,0,0,1,20.683,20683,-7.5000,-0.8000,4.3700,8.7170,-0.7919,0.1844,2.3627,57.75,-1.56,314.38,-5.1047,0.7084,4.3674,6.7553
2,7,0,0,1,20.804,20804,-6.0500,3.4400,4.3700,8.2178,-0.7287,0.5880,2.1151,51.38,25.00,326.56,-5.2293,1.0683,4.3678,6.8967
2,7,0,0,1,20.925,20925,-4.9000,5.0100,5.0800,8.6554,-0.9250,0.2574,2.5842,40.56,41.06,338.88,-5.1859,1.5877,4.4616,7.0229
2,7,0,0,1,21.046,21046,-2.3700,7.8200,3.9700,9.0846,-1.6264,-0.0578,2.4718,26.88,57.63,352.88,-4.8148,2.4090,4.3968,6.9511
2,7,0,0,1,21.167,21167,-1.5500,10.7600,2.8600,11.2410,-1.6101,0.0753,2.3486,13.81,71.44,4.69,-4.3846,3.5094,4.1943,7.0095
2,7,0,0,1,21.333,21333,1.2200,12.2500,1.9800,12.4688,-0.4723,-0.0894,2.0759,-7.56,80.88,26.50,-3.6461,4.6612,3.9025,7.0888
2,7,0,0,1,21.456,21456,1.6500,10.7000,2.0800,11.0245,0.0305,0.4047,1.5108,-19.69,81.94,37.75,-2.9482,5.4570,3.6624,7.2030
2,7,0,0,1,21.578,21578,3.2500,10.9500,2.5700,11.7077,0.0513,0.5890,0.6458,-27.69,82.75,42.44,-2.1314,6.1808,3.5184,7.4246
2,7,0,0,1,21.698,21698,3.4800,12.9600,1.2300,13.4753,0.7658,0.2956,-1.8282,-23.94,82.69,35.13,-1.3920,7.0741,3.2169,7.8949
2,7,0,0,1,21.819,21819,-0.3100,7.9000,3.8800,8.8068,2.5624,1.1116,-2.0933,-8.81,71.00,12.81,-1.2494,7.1830,3.3043,8.0046
2,7,0,0,1,21.940,21940,3.1300,8.9200,5.1700,10.7746,0.4996,0.5727,-0.4320,-5.94,62.75,1.50,-0.6723,7.4119,3.5501,8.2457
2,7,0,0,1,22.062,22062,1.6400,9.0400,4.6000,10.2748,0.8410,-1.3101,-1.8588,2.50,58.81,355.25,-0.3676,7.6264,3.6885,8.4795
2,7,0,0,1,22.188,22188,-3.8000,6.5100,5.5200,9.3429,0.6676,-1.4344,-1.5904,18.69,53.13,348.88,-0.8199,7.4793,3.9298,8.4886
2,7,0,0,1,22.350,22350,-4.2600,5.9000,5.1400,8.9094,0.6130,-0.4167,-1.6908,33.81,45.88,339.56,-1.2732,7.2712,4.0893,8.4388
2,7,0,0,1,22.471,22471,-6.5400,2.4700,5.2800,8.7608,0.6370,-0.8945,-1.9908,45.81,35.19,329.38,-1.9672,6.6385,4.2462,8.1222
2,7,0,0,1,22.592,22592,-8.9200,1.8400,4.7700,10.2813,0.1233,-0.8498,-0.7941,55.81,27.63,323.13,-2.8834,6.0062,4.3152,7.9379
2,7,0,0,1,22.713,22713,-8.1000,1.8200,4.0800,9.2503,0.4461,-0.1494,-1.3788,61.00,20.13,318.81,-3.5709,5.4546,4.2842,7.8011
2,7,0,0,1,22.838,22838,-8.1800,-0.5400,4.4100,9.3087,0.7439,0.3174,-1.2621,61.50,-3.81,310.88,-4.1782,4.6646,4.3008,7.5969
2,7,0,0,1,22.961,22961,-6.9100,-1.7100,4.1600,8.2449,0.6992,0.0360,-1.1868,58.63,-21.19,306.44,-4.5382,3.8246,4.2822,7.3185
2,7,0,0,1,23.082,23082,-7.1100,-4.5900,4.4900,9.5802,0.3240,0.0164,-0.7919,55.81,-33.75,302.25,-4.8771,2.7158,4.3096,7.0523
2,7,0,0,1,23.203,23203,-5.6400,-4.1700,3.6400,7.9024,-0.0196,-0.3523,-1.1934,52.56,-41.13,296.06,-4.9776,1.8084,4.2214,6.7725
2,8,0,0,1,23.365,23365,-7.5300,-6.6500,3.7800,10.7337,0.0589,-0.6272,-0.3949,50.69,-54.75,286.69,-5.3140,0.6938,4.1632,6.7862
2,8,0,0,1,23.486,23486,-6.3900,-5.8200,3.1800,9.2096,-0.3534,0.3872,0.2902,51.31,-53.69,285.81,-5.4558,-0.1645,4.0337,6.7870
2,8,0,0,1,23.613,23613,-6.2600,-4.2300,3.9800,8.5394,-0.2127,0.5531,1.6330,53.06,-43.13,291.94,-5.5617,-0.7003,4.0266,6.9019
2,8,0,0,1,23.734,23734,-6.4800,-3.0400,4.3200,8.3603,-0.5432,0.0524,1.7824,59.38,-20.81,305.38,-5.6827,-1.0086,4.0652,7.0595
2,8,0,0,1,23.854,23854,-7.0900,0.0000,4.2100,8.2457,-0.9305,-0.0044,1.5337,60.94,3.38,313.25,-5.8682,-0.8757,4.0843,7.2031
2,8,0,0,1,23.975,23975,-6.6200,2.4600,3.5600,7.9088,-0.8050,-0.2116,1.8413,58.63,28.56,321.00,-5.9673,-0.4361,4.0152,7.2056
2,8,0,0,1,24.096,24096,-7.1000,5.1400,3.5200,9.4456,-0.6970,-0.2563,2.4304,50.88,50.88,333.00,-6.1165,0.2987,3.9500,7.2872
2,8,0,0,1,24.217,24217,-4.5400,7.8900,2.9700,9.5752,-0.6360,0.3698,3.5888,32.94,64.75,351.31,-5.9088,1.2990,3.8208,7.1554
2,8,0,0,1,24.379,24379,-0.3700,10.0200,2.8400,10.4213,-1.0243,0.1244,2.3344,6.50,74.13,14.94,-5.1789,2.4482,3.6916,6.8149
2,8,0,0,1,24.504,24504,1.9600,10.7500,1.8400,11.0811,-0.9458,0.0731,2.6725,-9.56,80.81,30.81,-4.2382,3.5422,3.4476,6.5112
2,8,0,0,1,24.625,24625,3.5700,11.1300,1.3800,11.7697,-0.5945,0.2138,1.3439,-23.00,85.63,44.88,-3.2093,4.5421,3.1751,6.4040
2,8,0,0,1,24.747,24747,3.7900,10.7300,1.1300,11.4356,-0.0600,0.1145,0.8378,-29.38,88.00,51.19,-2.2869,5.3575,2.9056,6.5096
2,8,0,0,1,24.868,24868,4.7400,10.1200,1.5600,11.2834,0.3425,0.1265,0.2378,-31.94,86.25,52.50,-1.3610,5.9851,2.7283,6.7169
2,8,0,0,1,24.989,24989,3.0100,10.4600,0.9300,10.9241,0.6414,0.3240,-1.3275,-27.63,84.31,45.63,-0.7850,6.5747,2.4913,7.0746
2,8,0,0,1,25.110,25110,2.1300,10.1900,1.8800,10.5786,1.2239,0.9665,-1.1181,-19.50,79.81,30.81,-0.4009,7.0511,2.4108,7.4626
2,8,0,0,1,25.232,25232,3.6800,9.9200,2.2200,10.8110,0.9676,0.8138,-1.1628,-14.63,75.25,17.75,0.1369,7.4292,2.3856,7.8040
2,8,0,0,1,25.399,25399,2.5300,8.3400,4.3600,9.7451,1.0167,-0.1047,-1.1879,-4.13,66.00,1.75,0.4522,7.5492,2.6458,8.0122
2,8,0,0,1,25.520,25520,-0.1700,7.6000,4.4000,8.7834,-0.0262,-1.2915,-1.7977,8.94,63.06,353.19,0.3702,7.5559,2.8770,8.0936
2,8,0,0,1,25.642,25642,-3.6100,9.3600,4.0600,10.8224,0.2956,-1.1846,-1.2490,21.00,64.00,349.69,-0.1542,7.7936,3.0329,8.3644
2,8,0,0,1,25.762,25762,-6.3800,7.7200,3.9400,10.7623,0.9370,-0.3436,-2.0388,33.50,58.56,342.44,-0.9746,7.7839,3.1524,8.4544
2,8,0,0,1,25.884,25884,-5.7600,5.0200,4.2400,8.7382,1.0057,0.0742,-1.9002,43.75,45.75,332.75,-1.6052,7.4197,3.2957,8.2759
2,8,0,0,1,26.011,26011,-7.0000,2.3900,4.7700,8.8014,0.6970,-0.4134,-1.7977,52.25,30.38,323.44,-2.3161,6.7569,3.4900,7.9499
2,8,0,0,1,26.132,26132,-7.6500,1.4400,4.2800,8.8834,0.5760,-0.3622,-1.8031,59.50,9.38,313.06,-3.0190,6.0563,3.5941,7.6623
2,8,0,0,1,26.252,26252,-7.5400,-1.2700,4.0600,8.6573,0.3720,-0.1865,-1.6635,60.94,-14.31,303.50,-3.6147,5.0909,3.6555,7.2351
2,8,0,0,1,26.415,26415,-6.8900,-3.1700,3.6500,8.4169,0.3742,0.0862,-1.1225,55.50,-36.31,292.63,-4.0463,4.0023,3.6548,6.7638
2,8,0,0,1,26.536,26536,-6.3300,-4.8700,4.4200,9.1281,0.4843,-0.0022,-0.6927,52.13,-44.63,289.44,-4.3473,2.8332,3.7556,6.4055
2,8,0,0,1,26.661,26661,-7.1500,-5.9000,4.9100,10.4900,0.3687,0.1494,-1.0559,46.88,-52.19,284.63,-4.7166,1.6824,3.9077,6.3519
2,8,0,0,1,26.782,26782,-5.9700,-5.3400,3.6700,8.8105,0.3731,0.3862,-0.0185,43.13,-54.19,283.56,-4.8818,0.7570,3.8764,6.2794
2,9,0,0,1,26.904,26904,-5.5900,-7.5000,3.4600,9.9734,0.2858,0.3098,0.2116,41.81,-55.50,286.06,-4.9751,-0.3311,3.8215,6.2821
2,9,0,0,1,27.025,27025,-5.3600,-5.9700,4.1700,9.0421,-0.7898,0.2978,1.9220,46.81,-46.94,294.00,-5.0258,-1.0741,3.8674,6.4319
2,9,0,0,1,27.146,27146,-6.1100,-2.2200,4.5600,7.9407,-0.8410,-0.0556,1.6973,53.56,-28.81,303.19,-5.1687,-1.2251,3.9587,6.6248
2,9,0,0,1,27.267,27267,-7.2000,-1.7200,4.6500,8.7419,-0.5880,-0.1778,1.3963,57.88,-12.31,309.75,-5.4364,-1.2903,4.0498,6.9007
2,9,0,0,1,27.430,27430,-6.6000,3.7400,4.3600,8.7497,-0.9174,0.3763,2.9169,53.88,28.38,327.69,-5.5897,-0.6275,4.0907,6.9550
2,9,0,0,1,27.556,27556,-4.6700,4.5900,4.5500,7.9737,-0.4211,0.4112,2.1871,42.31,44.00,340.31,-5.4685,0.0601,4.1512,6.8659
2,9,0,0,1,27.677,27677,-2.5800,7.0300,4.4400,8.7058,-1.7344,0.1276,3.4034,24.81,59.38,357.94,-5.0879,0.9785,4.1893,6.6629
2,9,0,0,1,27.798,27798,0.4200,11.6800,1.8000,11.8253,-1.6057,0.0840,1.8937,8.44,73.44,12.31,-4.3621,2.3887,3.8744,6.3043
2,9,0,0,1,27.919,27919,0.1800,11.4900,1.5800,11.5995,-0.8105,-0.3665,1.7170,-1.31,80.81,23.19,-3.7635,3.5880,3.5721,6.3086
2,9,0,0,1,28.040,28040,2.0400,11.0400,1.1200,11.2826,-0.4789,-0.1484,1.7311,-13.50,84.75,37.94,-2.9988,4.5700,3.2490,6.3587
2,9,0,0,1,28.161,28161,2.4500,11.2700,1.3000,11.6063,-0.1985,0.3938,1.0745,-22.13,86.81,46.44,-2.2808,5.4529,2.9921,6.6249
2,9,0,0,1,28.282,28282,2.9900,11.2700,1.2300,11.7246,0.2182,0.4549,-0.0360,-22.38,86.69,44.00,-1.5862,6.2194,2.7599,6.9867
2,9,0,0,1,28.444,28444,2.5500,11.1300,1.3100,11.4933,1.0505,0.4701,-1.6297,-14.31,82.38,30.69,-1.0412,6.8665,2.5689,7.4049
2,9,0,0,1,28.569,28569,1.0700,10.4400,2.2300,10.7290,1.1246,0.5378,-1.7475,-3.81,75.50,15.50,-0.7630,7.3374,2.5242,7.7969
2,9,0,0,1,28.690,28690,1.1200,9.6900,2.8000,10.1484,1.3145,-0.0305,-2.6224,9.63,66.81,359.06,-0.5148,7.6474,2.5606,8.0811
2,9,0,0,1,28.811,28811,-2.8400,7.5600,4.6400,9.3139,1.0265,-0.2683,-2.3900,26.13,56.44,343.81,-0.8212,7.6359,2.8346,8.1863
2,9,0,0,1,28.932,28932,-4.4600,6.9500,4.4600,9.3854,0.8694,0.0502,-1.6428,36.56,46.06,333.19,-1.3007,7.5455,3.0488,8.2415
2,9,0,0,1,29.053,29053,-5.4900,4.4100,5.4700,8.9168,1.5621,0.4003,-1.8348,42.31,29.56,324.69,-1.8528,7.1323,3.3678,8.1022
2,9,0,0,1,29.174,29174,-5.6400,1.5400,6.2900,8.5875,0.9796,0.1396,-1.5108,44.06,9.38,316.31,-2.3518,6.3954,3.7529,7.7792
2,9,0,0,1,29.296,29296,-6.3700,-0.0100,5.3000,8.2866,1.3374,-0.8705,-1.3494,47.19,-6.75,310.38,-2.8813,5.5513,3.9568,7.4010
2,9,0,0,1,29.462,29462,-7.9500,-2.5500,5.5000,9.9977,0.1811,-0.3305,-1.3788,49.56,-29.25,301.06,-3.5492,4.4838,4.1601,7.0716
2,9,0,0,1,29.583,29583,-5.6600,-2.9700,3.9400,7.5087,0.6632,-0.0011,-1.7061,43.38,-41.63,290.25,-3.8274,3.5016,4.1311,6.6314
2,9,0,0,1,29.705,29705,-5.7800,-7.5100,5.5800,10.9975,0.5727,-0.1527,0.2923,40.25,-51.19,287.44,-4.0847,2.0505,4.3220,6.2904
2,9,0,0,1,29.825,29825,-5.3400,-4.6200,4.0900,8.1602,-0.4680,0.0491,-0.7330,40.56,-49.81,286.63,-4.2501,1.1715,4.2915,6.1524
2,10,0,0,1,29.946,29946,-5.1000,-6.0100,5.1500,9.4156,-0.1865,0.3022,0.6872,37.75,-48.88,284.13,-4.3621,0.2252,4.4046,6.2032
2,10,0,0,1,30.067,30067,-5.3200,-4.7300,5.6500,9.0883,-0.7690,0.0807,1.7519,44.00,-38.81,293.38,-4.4883,-0.4278,4.5687,6.4188
2,10,0,0,1,30.188,30188,-5.8100,-0.9300,4.6600,7.5058,-0.9665,0.1396,1.6068,48.88,-22.19,301.44,-4.6625,-0.4940,4.5807,6.5548
2,10,0,0,1,30.309,30309,-6.0400,1.1400,4.7500,7.7681,-0.7330,-0.0229,2.4555,51.38,-0.63,312.88,-4.8440,-0.2786,4.6030,6.6881
2,10,0,0,1,30.476,30476,-5.8900,4.4700,4.9400,8.8925,-1.0581,0.0022,2.5373,44.50,34.31,333.63,-4.9818,0.3471,4.6474,6.8219
2,10,0,0,1,30.597,30597,-3.2600,7.9000,4.2000,9.5225,-1.1159,0.2094,2.8002,31.56,51.94,348.44,-4.7550,1.3424,4.5885,6.7428
2,10,0,0,1,30.717,30717,-0.0600,8.9100,3.6000,9.6100,-1.0177,0.2814,2.4882,15.13,63.13,4.19,-4.1363,2.3396,4.4582,6.5160
2,10,0,0,1,30.838,30838,2.2600,10.3000,2.6700,10.8778,-1.0537,0.3305,2.4555,-1.00,71.06,19.06,-3.2934,3.3886,4.2226,6.3371
2,10,0,0,1,30.959,30959,3.7000,11.6100,1.5600,12.2848,-0.7483,0.7385,2.2875,-17.31,77.38,33.13,-2.3719,4.4720,3.8717,6.3729
2,10,0,0,1,31.080,31080,4.4000,10.3500,2.1100,11.4427,0.0360,0.9141,0.9632,-28.88,81.00,40.00,-1.4795,5.2465,3.6396,6.5545
2,10,0,0,1,31.201,31201,5.1600,9.4800,2.0700,10.9900,0.0513,0.6730,0.0938,-32.44,83.44,38.44,-0.6046,5.8044,3.4327,6.7705
2,10,0,0,1,31.324,31324,5.0100,10.6500,0.8200,11.7981,0.6305,0.2673,-1.2108,-28.94,83.81,31.56,0.1353,6.4429,3.0885,7.1462
2,10,0,0,1,31.489,31489,3.6800,9.5800,2.7200,10.6168,1.3155,0.5585,-0.9207,-18.75,74.69,13.56,0.6024,6.8563,3.0399,7.5241
2,10,0,0,1,31.610,31610,3.6700,9.8600,3.4100,11.0597,1.0592,-0.0382,-1.4890,-11.63,68.44,2.38,1.0066,7.2521,3.0887,7.9465
2,10,0,0,1,31.732,31732,1.0900,9.5300,4.0700,10.4199,1.5555,-0.9774,-1.5773,-0.25,59.81,353.50,1.0176,7.5523,3.2180,8.2721
2,10,0,0,1,31.852,31852,-1.8200,6.6600,5.6000,8.8898,1.3450,-0.4451,-2.0039,12.69,49.00,344.50,0.6437,7.4347,3.5319,8.2561
2,10,0,0,1,31.973,31973,-2.1600,6.9100,6.1900,9.5252,0.6883,-0.4331,-0.8039,20.75,41.00,337.31,0.2742,7.3656,3.8821,8.3305
2,10,0,0,1,32.095,32095,-3.8700,5.5200,5.5300,8.7194,0.8574,-1.1225,-2.1271,30.63,34.38,331.38,-0.2719,7.1224,4.0993,8.2223
2,10,0,0,1,32.221,32221,-7.2700,2.5400,6.5600,10.1162,0.5563,-0.5847,-1.3035,42.19,23.38,321.81,-1.1941,6.5185,4.4235,7.9677
2,10,0,0,1,32.343,32343,-6.1500,3.0200,6.4300,9.3962,0.7429,-0.1745,-1.3526,46.44,12.75,315.81,-1.8471,6.0575,4.6879,7.8792
2,10,0,0,1,32.505,32505,-6.5000,-1.5200,5.8900,8.9024,1.2108,-0.6480,-1.1966,50.38,-11.75,307.88,-2.4603,5.0590,4.8463,7.4252
2,10,0,0,1,32.626,32626,-6.9400,-2.0600,5.1800,8.9017,0.2553,-0.5847,-1.5326,50.81,-28.94,299.88,-3.0506,4.1209,4.8903,7.0854
2,10,0,0,1,32.748,32748,-7.0800,-3.0600,4.1900,8.7776,0.9872,-0.7658,-0.8879,50.31,-42.75,293.31,-3.5815,3.1746,4.7980,6.7769
2,10,0,0,1,32.873,32873,-7.8600,-6.7300,3.9400,11.0723,0.7974,-0.2803,-1.3243,47.13,-58.44,288.06,-4.1453,1.8695,4.6850,6.5290
2,10,0,0,1,32.995,32995,-5.8600,-5.4200,2.0700,8.2463,0.2640,0.6512,-1.3635,37.63,-63.19,280.50,-4.3713,0.9089,4.3404,6.2268
2,10,0,0,1,33.115,33115,-4.4200,-8.5800,3.5700,10.2907,0.5760,0.7909,0.3676,32.56,-65.38,281.69,-4.3777,-0.3415,4.2389,6.1032
2,10,0,0,1,33.236,33236,-3.3300,-7.0400,3.0900,8.3785,-0.2116,0.3240,0.4156,34.56,-62.50,288.31,-4.2396,-1.2242,4.0875,6.0150
2,10,0,0,1,33.357,33357,-5.0400,-6.5000,3.3400,8.8773,-0.8705,-0.2585,1.2883,38.69,-57.13,291.38,-4.3451,-1.9194,3.9890,6.2029
2,10,0,0,1,33.519,33519,-6.3500,-2.5600,3.2500,7.5788,-1.1377,-0.2705,2.5275,53.50,-36.88,303.13,-4.6093,-2.0038,3.8916,6.3565
2,10,0,0,1,33.643,33643,-6.6400,0.5900,4.0400,7.7948,-1.3537,0.2673,2.6780,59.63,-2.94,316.00,-4.8769,-1.6620,3.9112,6.4687
2,10,0,0,1,33.766,33766,-5.7600,5.0400,4.1100,8.6874,-1.2097,0.5400,2.7838,51.88,31.25,328.94,-4.9933,-0.7789,3.9374,6.4064
2,10,0,0,1,33.888,33888,-3.1600,7.6400,4.8400,9.5802,-1.3319,0.2913,3.3139,34.94,52.38,345.38,-4.7517,0.3305,4.0563,6.2563
2,10,0,0,1,34.008,34008,-0.6800,11.4100,3.5700,11.9748,-1.3777,-0.1178,2.3791,17.56,67.19,2.38,-4.2151,1.7905,3.9922,6.0755
2,10,0,0,1,34.129,34129,-0.2200,11.3600,2.8400,11.7117,-0.7036,-0.1440,1.9733,5.25,74.94,15.38,-3.6887,3.0515,3.8404,6.1373
