participant,rep,equipment_code,exercise_code,quality_code,timestamp,timestamp_ms,accelX,accelY,accelZ,accelMag,gyroX,gyroY,gyroZ,roll,pitch,yaw,filteredX,filteredY,filteredZ,filteredMag
3,1,0,0,1,00.000,0,0.0300,9.6700,-0.3400,9.6760,0.0524,0.0360,-0.0382,0.31,92.19,339.25,-0.1087,9.6988,-0.3632,9.7062
3,1,0,0,1,00.121,121,0.0300,9.4900,-0.3200,9.4954,-0.0076,0.0076,0.0644,0.13,92.06,339.31,-0.0905,9.6713,-0.3575,9.6783
3,1,0,0,1,00.245,245,0.0200,9.7400,-0.4100,9.7486,-0.0065,-0.0469,0.0153,-0.06,92.13,339.69,-0.0759,9.6804,-0.3644,9.6875
3,1,0,0,1,00.366,366,0.0600,9.5700,-0.2700,9.5740,-0.0404,-0.1058,-0.0436,-0.06,92.25,340.25,-0.0580,9.6658,-0.3520,9.6724
3,1,0,0,1,00.528,528,-0.1500,9.6500,-0.3600,9.6579,-0.0524,-0.0644,-0.0753,0.50,92.75,340.38,-0.0701,9.6637,-0.3530,9.6704
3,1,0,0,1,00.649,649,-0.0500,9.9300,-0.5800,9.9471,-0.0175,-0.0415,0.0840,0.31,93.00,340.94,-0.0675,9.6988,-0.3829,9.7066
3,1,0,0,1,00.770,770,0.0400,9.7500,-0.4700,9.7614,0.0207,-0.0098,-0.0011,0.00,92.94,341.44,-0.0533,9.7056,-0.3944,9.7137
3,1,0,0,1,00.891,891,-0.1100,9.6400,-0.3800,9.6481,0.0284,0.0240,-0.0578,0.38,92.75,340.94,-0.0608,9.6969,-0.3925,9.7051
3,1,0,0,1,01.017,1017,-0.1200,9.5600,-0.1400,9.5618,0.0404,0.0207,-0.0076,0.44,92.56,340.75,-0.0686,9.6789,-0.3592,9.6858
3,1,0,0,1,01.138,1138,-0.9600,10.8900,0.9900,10.9770,0.2149,0.0840,-0.3163,1.50,91.69,339.44,-0.1860,9.8385,-0.1814,9.8419
3,1,0,0,1,01.259,1259,-2.1100,11.7700,0.6400,11.9747,0.8770,0.3632,-1.1519,6.81,88.06,332.63,-0.4396,10.0930,-0.0732,10.1028
3,1,0,0,1,01.380,1380,-2.6400,10.0600,1.6200,10.5260,1.7879,0.4363,-1.5392,15.75,78.00,322.56,-0.7295,10.0887,0.1499,10.1161
3,1,0,0,1,01.542,1542,-3.2100,6.5500,3.8700,8.2573,1.3090,0.2367,-1.1606,26.63,59.31,311.56,-1.0564,9.6224,0.6401,9.7013
3,1,0,0,1,01.680,1680,-4.2700,6.6100,4.2700,8.9531,0.6283,-0.5236,-0.4996,32.31,51.94,308.38,-1.4799,9.2254,1.1185,9.4100
3,1,0,0,1,01.801,1801,-6.5300,5.2200,4.5800,9.5324,0.4407,-0.8792,-1.3919,40.56,47.94,305.50,-2.1453,8.6976,1.5746,9.0956
3,1,0,0,1,01.921,1921,-8.9700,3.9600,3.8000,10.5158,0.1484,-0.2171,-1.6166,50.56,42.06,297.94,-3.0447,8.0733,1.8679,8.8282
3,1,0,0,1,02.042,2042,-9.8400,1.4900,5.7200,11.4789,0.3556,1.0952,-1.6493,54.00,24.81,286.63,-3.9401,7.2058,2.3755,8.5493
3,1,0,0,1,02.163,2163,-6.5400,1.8300,5.7500,8.8985,-0.2673,1.1596,-1.3461,48.56,12.50,277.63,-4.2827,6.4974,2.8201,8.2771
3,1,0,0,1,02.302,2302,-4.9700,-0.1300,6.3000,8.0254,0.4200,0.0098,-3.0009,43.63,-8.00,258.69,-4.3733,5.6241,3.2787,7.8426
3,1,0,0,1,02.423,2423,-6.7400,-3.8100,4.2500,8.8321,1.3581,-1.7748,-2.0639,45.63,-31.56,244.00,-4.6852,4.3809,3.4067,7.2628
3,1,0,0,1,02.585,2585,-5.5400,-8.9600,2.9300,10.9343,0.5345,-1.9068,-3.4132,37.25,-67.75,217.00,-4.7978,2.6229,3.3439,6.4094
3,1,0,0,1,02.706,2706,-5.7300,-7.2900,1.9600,9.4773,-0.1233,-0.6065,-0.5138,27.31,-76.44,198.56,-4.9206,1.3166,3.1615,5.9951
3,1,0,0,1,02.827,2827,-3.6800,-7.1300,2.0800,8.2889,-0.3709,0.6741,0.6534,29.25,-74.25,201.38,-4.7572,0.2036,3.0190,5.6379
3,2,0,0,1,02.953,2953,-4.3600,-7.2600,3.7200,9.2496,-0.3512,0.7734,0.6316,31.06,-68.06,207.38,-4.7048,-0.7799,3.1114,5.6942
3,2,0,0,1,03.075,3075,-4.6300,-6.7000,3.7900,8.9828,0.2214,0.5312,1.5075,36.94,-62.06,218.50,-4.6950,-1.5600,3.2008,5.8925
3,2,0,0,1,03.195,3195,-7.0800,-5.4700,3.5300,9.6181,0.3545,0.1058,2.2744,46.75,-57.50,233.06,-5.0092,-2.0753,3.2442,6.3185
3,2,0,0,1,03.316,3316,-7.2200,-3.2100,2.8400,8.3963,0.3251,0.3665,1.5959,57.69,-46.19,249.38,-5.3006,-2.2248,3.1909,6.5748
3,2,0,0,1,03.437,3437,-7.9900,-2.9500,3.5300,9.2197,0.5105,0.5541,1.0603,60.25,-35.19,259.75,-5.6550,-2.3204,3.2356,6.9161
3,2,0,0,1,03.599,3599,-8.5700,-1.7900,3.9800,9.6171,-0.0818,0.3938,1.9210,62.19,-11.13,274.94,-6.0391,-2.2505,3.3337,7.2559
3,2,0,0,1,03.724,3724,-7.4100,1.7400,3.6400,8.4371,-0.1244,0.2476,2.3311,58.56,18.75,289.75,-6.2197,-1.7246,3.3741,7.2831
3,2,0,0,1,03.847,3847,-7.2200,2.8900,4.0500,8.7683,-0.5498,-0.3403,0.5487,55.00,34.00,297.44,-6.3516,-1.1165,3.4631,7.3200
3,2,0,0,1,03.968,3968,-7.5500,5.1400,2.9000,9.5829,-0.5760,-0.6567,1.6242,53.44,48.31,302.63,-6.5095,-0.2921,3.3889,7.3446
3,2,0,0,1,04.088,4088,-6.9300,7.8600,2.8400,10.8568,-0.1691,-0.4723,2.4587,43.31,63.69,317.44,-6.5649,0.7821,3.3166,7.3966
3,2,0,0,1,04.209,4209,-5.5500,8.3400,2.5300,10.3324,-0.3338,-0.1974,1.4279,32.31,70.44,331.13,-6.4312,1.7781,3.2129,7.4057
3,2,0,0,1,04.330,4330,-4.7600,8.3000,2.1300,9.8023,-0.7527,-0.0327,1.2294,24.81,76.00,337.94,-6.2109,2.6375,3.0702,7.4134
3,2,0,0,1,04.451,4451,-3.3200,10.7200,1.1200,11.2781,-0.3327,-0.2029,0.6970,17.81,81.19,344.69,-5.8300,3.7026,2.8132,7.4574
3,2,0,0,1,04.619,4619,-3.9500,8.8600,1.7700,9.8608,0.2705,-0.3818,0.0251,16.38,81.00,348.81,-5.5823,4.3822,2.6758,7.5845
3,2,0,0,1,04.740,4740,-4.2600,9.2200,1.0300,10.2087,-0.0785,-0.2673,-0.2760,18.06,81.44,349.63,-5.4080,5.0197,2.4589,7.7775
3,2,0,0,1,04.861,4861,-4.1500,9.4000,1.0700,10.3309,0.3022,0.1593,-0.7047,21.63,80.63,345.88,-5.2422,5.5969,2.2759,7.9991
3,2,0,0,1,04.981,4981,-4.4200,9.2300,2.3100,10.4912,0.7047,0.5051,-0.3545,24.94,76.00,341.13,-5.1339,6.0757,2.2804,8.2747
3,2,0,0,1,05.102,5102,-3.5100,7.8600,3.3900,9.2516,0.6305,-0.0033,-0.7363,27.00,69.63,338.50,-4.9199,6.3108,2.4266,8.3618
3,2,0,0,1,05.223,5223,-5.0600,7.5800,2.8600,9.5519,0.6043,-0.8890,-1.4584,35.69,66.19,333.69,-4.9384,6.4780,2.4837,8.5159
3,2,0,0,1,05.345,5345,-8.7600,6.8000,2.3400,11.3337,0.8454,-0.9632,-0.9087,46.19,63.56,331.75,-5.4420,6.5205,2.4648,8.8434
3,2,0,0,1,05.471,5471,-7.3200,5.3400,3.4700,9.7025,1.3166,0.5552,0.4036,46.69,57.06,335.94,-5.6894,6.3649,2.5972,8.9234
3,2,0,0,1,05.633,5633,-8.8700,3.7100,2.8000,10.0140,-0.8018,-1.1650,-3.6041,58.88,42.88,320.75,-6.1086,6.0151,2.6240,8.9655
3,2,0,0,1,05.754,5754,-12.5400,2.0300,2.0200,12.8628,1.1094,-0.2673,-1.5173,73.00,13.56,305.44,-6.9561,5.4899,2.5444,9.2195
3,2,0,0,1,05.876,5876,-6.3800,-2.2200,3.3800,7.5536,0.9174,0.1505,-1.4257,71.19,-17.06,305.00,-6.8801,4.4740,2.6545,8.6255
3,2,0,0,1,05.997,5997,-8.7100,-2.6800,1.4200,9.2230,0.4134,-1.3766,-1.9395,68.38,-55.06,294.31,-7.1213,3.5312,2.4918,8.3301
3,2,0,0,1,06.122,6122,-10.3000,-4.9800,0.4000,11.4477,0.4385,-0.0480,-1.8555,58.06,-78.44,281.25,-7.5401,2.4097,2.2162,8.2202
3,2,0,0,1,06.243,6243,-7.1200,-7.3900,1.7400,10.4084,-0.1462,0.7854,-1.0003,47.56,-77.38,274.00,-7.4848,1.1183,2.1534,7.8683
3,2,0,0,1,06.365,6365,-5.4400,-5.5500,1.3700,7.8913,-0.6283,0.4461,-0.8519,40.75,-70.06,268.56,-7.2153,0.2396,2.0502,7.5048
3,2,0,0,1,06.486,6486,-4.8500,-7.2100,1.9200,8.8990,-0.4167,-0.0262,-0.9665,33.94,-69.00,261.56,-6.9036,-0.7421,2.0330,7.2349
3,2,0,0,1,06.648,6648,-3.4100,-7.6000,2.7900,8.7848,-0.2389,-0.5029,-1.1159,26.56,-69.13,248.81,-6.4433,-1.6458,2.1328,6.9838
3,2,0,0,1,06.769,6769,-3.2600,-7.9500,2.8700,9.0591,-0.1931,-0.4047,-0.2400,22.38,-70.00,241.13,-6.0238,-2.4765,2.2299,6.8842
3,2,0,0,1,06.890,6890,-2.9300,-7.5800,3.2000,8.7339,-0.2869,-0.2040,-0.1265,22.88,-69.00,238.88,-5.6161,-3.1490,2.3578,6.8568
3,3,0,0,1,07.011,7011,-4.3000,-7.4900,3.1400,9.1897,0.0578,0.0055,0.8672,25.38,-68.31,240.69,-5.4427,-3.7210,2.4608,7.0374
3,3,0,0,1,07.137,7137,-4.6300,-7.7100,2.8500,9.4342,0.0949,0.3174,1.0461,30.06,-67.88,247.44,-5.3356,-4.2467,2.5121,7.2673
3,3,0,0,1,07.259,7259,-6.4600,-7.1200,3.1000,10.1013,-0.1134,0.9130,1.3504,36.63,-62.38,259.69,-5.4838,-4.6253,2.5896,7.6270
3,3,0,0,1,07.379,7379,-7.2900,-5.6700,3.5900,9.9086,-0.6665,1.6253,4.2499,46.88,-43.75,280.81,-5.7218,-4.7630,2.7214,7.9266
3,3,0,0,1,07.500,7500,-2.8400,-2.4800,5.7800,6.9010,0.2280,1.4552,0.2160,46.13,-18.88,300.25,-5.3420,-4.4621,3.1245,7.6296
3,3,0,0,1,07.662,7662,-6.3000,-2.2300,5.4800,8.6425,-1.5697,-0.5029,0.7538,41.63,-15.63,294.31,-5.4683,-4.1680,3.4349,7.6859
3,3,0,0,1,07.790,7790,-7.2500,0.8000,5.5100,9.1413,-1.3843,-0.7439,1.7279,47.44,4.25,299.81,-5.7031,-3.5133,3.7083,7.6564
3,3,0,0,1,07.911,7911,-6.6100,4.1300,4.7000,9.1016,-1.0101,-0.3218,1.4933,47.69,26.88,308.38,-5.8226,-2.5061,3.8390,7.4109
3,3,0,0,1,08.031,8031,-7.4100,5.7100,4.7200,10.4781,-1.0592,0.2454,2.0944,41.25,43.25,317.44,-6.0317,-1.4235,3.9551,7.3519
3,3,0,0,1,08.152,8152,-5.1600,7.3000,5.8100,10.6617,-0.6523,0.8236,0.8967,30.38,52.25,324.94,-5.9169,-0.2739,4.1995,7.2609
3,3,0,0,1,08.273,8273,-5.1700,7.6100,5.4400,10.6881,-0.3872,1.3439,0.9359,22.75,54.25,324.75,-5.8185,0.7650,4.3630,7.3127
3,3,0,0,1,08.395,8395,0.1700,6.9400,5.8700,9.0912,-0.5171,1.2577,1.1694,10.13,55.75,328.06,-5.0293,1.5787,4.5616,6.9710
3,3,0,0,1,08.517,8517,-0.0700,8.8900,4.9300,10.1657,-0.8345,0.0644,-0.2629,6.19,60.56,327.50,-4.3758,2.5421,4.6101,6.8457
3,3,0,0,1,08.683,8683,-2.0900,9.1600,3.1100,9.8968,-0.8007,-1.4399,-0.0207,11.25,69.19,329.94,-4.0746,3.4142,4.4124,6.9086
3,3,0,0,1,08.803,8803,-2.3300,9.7300,1.8700,10.1783,-0.5203,-1.3984,0.1407,13.31,76.06,337.19,-3.8447,4.2465,4.0774,7.0313
3,3,0,0,1,08.924,8924,-2.8200,9.6100,1.6000,10.1422,-0.1429,-0.9010,0.2465,14.06,79.81,343.69,-3.7097,4.9532,3.7510,7.2364
3,3,0,0,1,09.045,9045,-3.7400,9.8400,1.2600,10.6019,-0.1658,-0.5672,0.3774,12.44,82.19,350.06,-3.7137,5.5972,3.4227,7.5389
3,3,0,0,1,09.166,9166,-3.6500,9.2700,1.0400,10.0168,-0.0764,0.2160,0.1014,12.00,83.31,351.38,-3.7053,6.0812,3.1087,7.7701
3,3,0,0,1,09.287,9287,-2.6200,9.9100,1.2300,10.3240,0.1309,0.5552,-0.1844,11.88,82.50,348.75,-3.5623,6.5857,2.8612,8.0155
3,3,0,0,1,09.409,9409,-2.8400,9.8300,1.8000,10.3892,0.3098,0.7243,-0.7701,15.00,79.75,340.94,-3.4671,7.0132,2.7213,8.2832
3,3,0,0,1,09.535,9535,-3.1800,9.8400,2.2900,10.5916,0.5192,0.5640,-0.6370,18.56,75.31,332.69,-3.4293,7.3857,2.6645,8.5679
3,3,0,0,1,09.697,9697,-3.9600,8.1600,3.0800,9.5788,0.6490,-0.1244,-1.7235,28.00,67.19,322.00,-3.4992,7.4878,2.7192,8.7009
3,3,0,0,1,09.818,9818,-5.9400,7.4100,3.6200,10.1635,0.6709,-0.4931,-1.4094,38.69,61.31,314.31,-3.8208,7.4775,2.8379,8.8637
3,3,0,0,1,09.940,9940,-7.1700,5.9500,3.3900,9.9148,0.8945,-0.3076,-1.5403,48.00,53.56,309.06,-4.2622,7.2762,2.9107,8.9208
3,3,0,0,1,10.061,10061,-8.5300,2.7700,3.9100,9.7838,0.7232,-0.0371,-2.3049,58.50,34.81,298.44,-4.8246,6.6824,3.0424,8.7856
3,3,0,0,1,10.187,10187,-7.1700,1.0600,3.4100,8.0100,0.6120,-0.6621,-1.9351,64.94,10.50,288.63,-5.1336,5.9415,3.0908,8.4385
3,3,0,0,1,10.308,10308,-9.0100,-1.2800,1.9500,9.3070,0.5531,-0.7243,-2.5580,67.88,-34.56,274.94,-5.6444,4.9899,2.9405,8.0874
3,3,0,0,1,10.429,10429,-8.3900,-7.3800,2.6000,11.4724,0.2902,0.1014,-4.4866,48.25,-67.25,251.38,-6.0062,3.3599,2.8956,7.4665
3,3,0,0,1,10.550,10550,-5.2200,-6.4200,1.8600,8.4808,-0.3022,0.2836,-0.9861,30.25,-70.00,233.06,-5.9026,2.0711,2.7591,6.8369
3,3,0,0,1,10.712,10712,-1.6900,-8.4400,1.9800,8.8323,0.3240,0.1113,-1.1192,26.13,-72.19,231.19,-5.3475,0.6860,2.6565,6.0103
3,3,0,0,1,10.835,10835,-2.9000,-8.3800,2.7800,9.2932,-0.4123,-0.1516,-1.3581,16.94,-72.44,221.06,-5.0250,-0.5086,2.6728,5.7143
3,3,0,0,1,10.956,10956,-1.2900,-7.2000,2.6100,7.7664,-0.4276,0.1233,-0.0076,12.56,-70.13,215.94,-4.5328,-1.3904,2.6645,5.4387
3,4,0,0,1,11.080,11080,-3.4600,-8.2300,3.2600,9.5043,0.0371,0.4222,1.9504,19.63,-67.94,225.63,-4.3914,-2.2917,2.7430,5.6622
3,4,0,0,1,11.202,11202,-6.0600,-8.1000,3.6200,10.7442,-0.0589,0.7679,3.4121,35.75,-61.81,247.31,-4.6113,-3.0571,2.8585,6.2274
3,4,0,0,1,11.322,11322,-6.0700,-5.4800,4.6200,9.3925,-0.0644,1.0276,1.6264,48.00,-46.25,268.75,-4.8035,-3.3763,3.0906,6.6352
3,4,0,0,1,11.443,11443,-7.5900,-5.5000,5.7300,10.9859,-1.5501,1.2905,1.2817,45.19,-31.50,274.31,-5.1707,-3.6562,3.4384,7.2060
3,4,0,0,1,11.564,11564,-4.5100,1.5800,4.9700,6.8947,-1.9940,0.9447,3.8168,42.56,3.44,290.00,-5.0837,-2.9662,3.6403,6.9205
3,4,0,0,1,11.726,11726,-3.8900,2.9300,6.2900,7.9549,-0.2934,-0.0185,0.2553,34.88,23.81,303.00,-4.9264,-2.1892,3.9894,6.7065
3,4,0,0,1,11.852,11852,-5.2300,3.2700,6.5700,9.0117,-0.7189,-0.6720,0.7985,36.13,28.31,304.13,-4.9664,-1.4698,4.3295,6.7505
3,4,0,0,1,11.974,11974,-4.5600,6.5300,3.9500,8.8903,-1.2130,-0.9370,1.3723,35.50,44.19,312.69,-4.9128,-0.4157,4.2795,6.5286
3,4,0,0,1,12.094,12094,-4.5300,6.6800,3.1700,8.6713,-1.1126,-0.8672,0.8694,33.50,57.69,319.88,-4.8624,0.5194,4.1333,6.4028
3,4,0,0,1,12.215,12215,-5.2100,9.6300,2.7900,11.2989,-0.7963,-0.8388,0.8748,31.25,68.56,325.88,-4.9082,1.7199,3.9563,6.5346
3,4,0,0,1,12.336,12336,-4.7400,9.4100,1.5000,10.6426,-0.6687,-0.6970,1.3537,25.56,77.56,335.13,-4.8860,2.7333,3.6326,6.6738
3,4,0,0,1,12.457,12457,-2.8800,10.4000,1.0100,10.8386,0.0273,-0.2509,0.2836,20.75,81.31,342.19,-4.6217,3.7435,3.2870,6.7955
3,4,0,0,1,12.578,12578,-3.4100,9.3400,1.4600,10.0496,-0.1167,-0.0044,0.9250,17.56,81.50,346.00,-4.4620,4.4810,3.0463,7.0192
3,4,0,0,1,12.746,12746,-1.6100,10.7700,0.9700,10.9328,-0.3698,0.0185,0.8149,8.94,84.38,353.81,-4.0862,5.3097,2.7727,7.2511
3,4,0,0,1,12.867,12867,-1.3300,9.9600,0.6700,10.0707,-0.0415,-0.2836,0.0676,6.19,85.94,357.94,-3.7230,5.9225,2.4956,7.4273
3,4,0,0,1,12.987,12987,-2.1800,9.6100,0.4700,9.8654,0.1625,-0.0131,-0.3905,8.38,85.50,356.75,-3.5197,6.4084,2.2287,7.6435
3,4,0,0,1,13.108,13108,-1.9800,9.9300,0.7500,10.1532,0.1156,0.2225,-0.0360,10.19,84.50,354.38,-3.3168,6.8725,2.0338,7.8974
3,4,0,0,1,13.229,13229,-0.3200,10.4800,0.9000,10.5234,0.6283,-0.1287,-0.1887,9.94,82.19,352.44,-2.9219,7.3479,1.8844,8.1289
3,4,0,0,1,13.350,13350,-2.1000,9.2600,2.0700,9.7182,0.6250,-0.7592,-1.2665,15.50,77.75,350.00,-2.8136,7.5998,1.9089,8.3257
3,4,0,0,1,13.472,13472,-4.8500,8.7000,1.7600,10.1148,0.2520,-0.7483,-2.7598,30.56,75.88,340.31,-3.0819,7.7448,1.8892,8.5469
3,4,0,0,1,13.598,13598,-8.0500,6.9600,1.5000,10.7468,1.1050,-0.2913,-1.8391,47.44,70.75,328.81,-3.7366,7.6414,1.8380,8.7024
3,4,0,0,1,13.760,13760,-7.7000,3.1100,3.3100,8.9397,0.0185,0.0513,-1.5206,60.44,53.00,317.81,-4.2589,7.0443,2.0319,8.4787
3,4,0,0,1,13.881,13881,-7.7100,0.2900,2.4400,8.0921,-0.5825,-0.0687,-3.1863,71.25,29.06,300.00,-4.7136,6.1542,2.0857,8.0276
3,4,0,0,1,14.003,14003,-11.2700,-0.4100,1.5400,11.3821,-0.5040,-0.1898,-2.1042,71.88,-33.13,275.63,-5.5776,5.2892,2.0138,7.9461
3,4,0,0,1,14.124,14124,-8.6900,-1.6900,1.6300,9.0016,0.3491,0.6807,-0.3698,66.94,-42.50,270.00,-5.9877,4.3695,1.9632,7.6681
3,4,0,0,1,14.249,14249,-8.6000,-3.6200,3.2800,9.8905,0.0633,0.3294,-1.7879,58.56,-49.81,264.94,-6.3320,3.3167,2.1367,7.4606
3,4,0,0,1,14.370,14370,-6.1000,-4.4500,2.2200,7.8703,-0.1036,-0.3043,-2.1631,47.69,-59.50,250.75,-6.3014,2.2933,2.1477,7.0413
3,4,0,0,1,14.492,14492,-4.7000,-6.6200,2.8500,8.6045,0.4461,-0.7592,-2.0911,35.50,-70.19,234.13,-6.0904,1.1187,2.2403,6.5851
3,4,0,0,1,14.613,14613,-4.7100,-8.1100,2.0400,9.5978,0.2705,-0.9665,-1.2632,26.75,-77.75,220.06,-5.9085,-0.0974,2.2139,6.3104
3,4,0,0,1,14.775,14775,-2.9300,-9.0300,2.1800,9.7405,-0.1745,-0.3022,-1.2981,15.38,-81.13,203.19,-5.5160,-1.2745,2.2094,6.0772
3,5,0,0,1,14.896,14896,-4.1300,-8.8300,2.1800,9.9889,-0.6643,0.5770,0.6436,11.94,-77.69,199.69,-5.3334,-2.2701,2.2055,6.2018
3,5,0,0,1,15.017,15017,-2.1600,-7.1500,2.0200,7.7375,0.4003,1.3352,3.2049,27.19,-71.38,223.19,-4.9152,-2.9131,2.1811,6.1158
3,5,0,0,1,15.138,15138,-2.7700,-9.2200,3.2800,10.1705,0.3414,0.0687,-1.2883,29.50,-72.38,231.63,-4.6325,-3.7442,2.3259,6.3945
3,5,0,0,1,15.275,15275,-5.4000,-7.7500,2.1100,9.6786,-0.3752,-0.3567,0.7614,25.81,-72.94,225.19,-4.7336,-4.2721,2.2974,6.7776
3,5,0,0,1,15.396,15396,-5.5300,-7.2600,2.1900,9.3853,0.1713,0.0393,1.8959,34.94,-71.13,233.88,-4.8386,-4.6658,2.2833,7.0989
3,5,0,0,1,15.517,15517,-7.1200,-4.2200,1.7700,8.4638,-0.5269,0.1080,4.5815,55.69,-59.81,255.81,-5.1392,-4.6071,2.2156,7.2488
3,5,0,0,1,15.638,15638,-7.0400,0.8300,2.3800,7.4776,-0.0415,0.6752,2.0311,68.56,-18.31,277.63,-5.3897,-3.8906,2.2373,7.0136
3,5,0,0,1,15.802,15802,-8.2800,0.1400,2.9300,8.7842,-1.0090,0.9250,2.4249,61.88,11.25,287.88,-5.7706,-3.3595,2.3286,7.0716
3,5,0,0,1,15.923,15923,-5.8300,6.3800,3.9200,9.4900,-1.3112,0.8487,3.6597,44.38,45.50,305.94,-5.7784,-2.0761,2.5383,6.6440
3,5,0,0,1,16.047,16047,-3.0100,8.1300,2.9100,9.1447,-0.9905,0.2651,0.9218,31.38,57.81,314.31,-5.4136,-0.7312,2.5873,6.0445
3,5,0,0,1,16.168,16168,-3.4300,8.4300,2.4400,9.4225,-1.2381,-0.7418,1.0156,28.00,67.69,318.13,-5.1522,0.4760,2.5679,5.7763
3,5,0,0,1,16.289,16289,-3.4100,11.3200,1.2300,11.8863,-1.2675,-0.7658,1.4170,21.00,79.81,328.00,-4.9226,1.9050,2.3916,5.7949
3,5,0,0,1,16.410,16410,-1.5300,11.8500,0.5500,11.9610,0.0938,-0.4527,1.0079,12.56,85.31,338.69,-4.4756,3.2155,2.1489,5.9151
3,5,0,0,1,16.531,16531,-1.9900,9.3600,2.0100,9.7780,0.3545,-0.3829,0.6130,8.06,83.31,346.50,-4.1480,4.0252,2.1306,6.1602
3,5,0,0,1,16.652,16652,-1.6100,10.3000,0.9500,10.4683,-0.4494,-0.0447,0.8967,3.19,84.25,352.81,-3.8136,4.8520,1.9750,6.4797
3,5,0,0,1,16.820,16820,-0.6300,10.6500,0.5800,10.6844,0.2694,0.1844,-0.3676,-0.25,85.69,356.00,-3.3941,5.6161,1.7912,6.8021
3,5,0,0,1,16.941,16941,-1.5100,10.0800,1.4400,10.2937,0.3905,0.6010,-0.3153,2.44,82.56,348.94,-3.1458,6.2043,1.7449,7.1718
3,5,0,0,1,17.061,17061,-0.0700,9.8300,0.7800,9.8611,0.3676,0.9087,0.1364,1.25,80.38,344.13,-2.7405,6.6821,1.6178,7.4012
3,5,0,0,1,17.182,17182,0.4300,10.2200,2.3300,10.4911,0.4658,0.4331,-0.7549,2.38,77.19,338.13,-2.3227,7.1483,1.7116,7.7086
3,5,0,0,1,17.303,17303,-1.2400,10.5100,2.8100,10.9496,0.6578,-0.1658,-0.9621,8.44,73.63,331.44,-2.1800,7.5913,1.8564,8.1133
3,5,0,0,1,17.424,17424,-1.3500,9.4100,4.2800,10.4254,1.1868,-0.7396,-2.0955,17.81,67.00,325.94,-2.0706,7.8309,2.1757,8.3872
3,5,0,0,1,17.545,17545,-7.9600,6.6600,2.7200,10.7292,1.0112,-2.0933,-3.8921,42.31,58.56,311.75,-2.8467,7.6766,2.2475,8.4903
3,5,0,0,1,17.673,17673,-11.2300,5.0300,3.1600,12.7043,1.0177,-0.0764,-1.2250,60.75,47.38,302.44,-3.9514,7.3279,2.3677,8.6555
3,5,0,0,1,17.835,17835,-5.4100,1.2200,4.4700,7.1230,0.8770,0.8967,-2.7849,58.69,9.56,292.50,-4.1436,6.5230,2.6447,8.1679
3,5,0,0,1,17.956,17956,-6.6700,-3.1400,2.6900,7.8476,0.5607,-1.7977,-4.0263,56.38,-35.56,269.38,-4.4765,5.2497,2.6507,7.3908
3,5,0,0,1,18.078,18078,-8.4200,-6.5600,0.6500,10.6936,0.7810,-1.9460,-3.0598,44.44,-73.13,241.75,-4.9962,3.6935,2.3871,6.6559
3,5,0,0,1,18.199,18199,-6.2600,-8.4400,0.9700,10.5528,-0.0644,-0.5236,-1.7639,30.19,-83.69,222.25,-5.1627,2.0946,2.2003,5.9902
3,5,0,0,1,18.325,18325,-2.9000,-6.5400,0.7700,7.1954,-0.9021,0.4232,-0.8094,23.00,-79.56,214.25,-4.8646,0.9568,2.0118,5.3504
3,5,0,0,1,18.446,18446,-1.8800,-8.8200,3.0100,9.5072,-0.1527,0.6381,-0.2673,18.13,-74.50,212.63,-4.4713,-0.3316,2.1434,4.9695
3,6,0,0,1,18.567,18567,-2.6900,-9.0000,3.6500,10.0776,-0.5083,0.3818,0.8923,19.81,-70.81,216.69,-4.2365,-1.4738,2.3419,5.0601
3,6,0,0,1,18.688,18688,-5.2000,-6.7900,3.2900,9.1634,-0.4331,1.2752,1.6079,25.81,-63.81,228.19,-4.3635,-2.1744,2.4668,5.4638
3,6,0,0,1,18.853,18853,-3.6500,-7.4200,4.3400,9.3389,-0.4102,0.6010,0.5400,27.63,-56.44,240.69,-4.2695,-2.8656,2.7137,5.8141
3,6,0,0,1,18.977,18977,-5.0900,-6.7500,5.1300,9.8888,-0.8334,-0.3011,1.6439,33.81,-48.69,247.13,-4.3776,-3.3775,3.0321,6.3059
3,6,0,0,1,19.098,19098,-3.9700,-3.2900,4.4900,6.8370,-0.9436,-0.4963,1.7922,46.00,-35.00,257.63,-4.3239,-3.3660,3.2242,6.3578
3,6,0,0,1,19.219,19219,-4.6200,-0.8900,2.5600,5.3563,-1.6373,-0.3022,2.6540,53.88,-13.69,266.31,-4.3629,-3.0397,3.1367,6.1736
3,6,0,0,1,19.340,19340,-6.0200,4.5900,3.1500,8.1995,-1.7704,-0.2498,4.0721,51.81,29.94,283.81,-4.5813,-2.0343,3.1384,5.9141
3,6,0,0,1,19.461,19461,-3.2000,10.1900,2.5300,10.9762,-1.3668,-0.5192,3.5234,34.81,59.56,304.94,-4.3993,-0.4234,3.0583,5.3745
3,6,0,0,1,19.582,19582,-0.2800,12.4500,1.2100,12.5118,-1.7093,-1.2195,2.5875,17.81,76.69,326.56,-3.8564,1.2730,2.8147,4.9412
3,6,0,0,1,19.705,19705,-2.3900,14.4800,-1.1700,14.7225,-1.1716,-1.4410,1.7115,5.31,89.06,346.31,-3.6632,3.0133,2.2896,5.2670
3,6,0,0,1,19.870,19870,-2.3500,9.4100,-0.1200,9.6997,0.4811,-0.9512,-0.4123,1.69,89.13,2.44,-3.4902,3.8562,1.9721,5.5624
3,6,0,0,1,19.991,19991,-1.3900,9.9100,0.2700,10.0106,-0.0251,-0.1582,0.0764,3.19,87.88,4.19,-3.2134,4.6540,1.7478,5.9195
3,6,0,0,1,20.113,20113,-0.4600,9.9700,0.1400,9.9816,0.0774,0.2422,0.1604,2.00,87.88,5.00,-2.8506,5.3545,1.5359,6.2574
3,6,0,0,1,20.233,20233,-0.4000,10.3900,-0.2100,10.3998,0.3360,0.6796,0.1484,0.94,86.50,2.94,-2.5277,6.0180,1.3059,6.6567
3,6,0,0,1,20.354,20354,0.3300,10.6700,0.6200,10.6931,1.4094,0.7549,-1.7759,4.75,80.56,353.94,-2.1511,6.6310,1.2155,7.0764
3,6,0,0,1,20.481,20481,-4.3400,6.5900,4.1200,8.9016,1.0036,0.4636,-1.6493,17.81,69.44,337.88,-2.4395,6.6256,1.5982,7.2391
3,6,0,0,1,20.603,20603,-4.3500,8.2300,3.1900,9.8403,-0.6010,0.6229,-0.2040,20.69,68.06,331.19,-2.6913,6.8370,1.8080,7.5668
3,6,0,0,1,20.723,20723,-2.6500,10.9600,2.7000,11.5946,0.1767,1.0974,-0.9937,21.19,67.63,323.44,-2.6858,7.3803,1.9255,8.0865
3,6,0,0,1,20.885,20885,-6.8700,5.9900,5.5100,10.6507,0.4811,-0.0153,-2.4446,35.25,54.38,304.06,-3.2372,7.1971,2.3979,8.2479
3,6,0,0,1,21.006,21006,-5.4100,6.6400,4.2900,9.5792,0.4843,-0.0218,-0.8530,42.44,47.69,295.50,-3.5235,7.1237,2.6472,8.3768
3,6,0,0,1,21.127,21127,-9.7300,4.2700,4.4400,11.5160,0.4429,-0.0556,-1.6962,49.94,37.44,289.31,-4.3414,6.7477,2.8834,8.5260
3,6,0,0,1,21.248,21248,-4.7800,4.8000,5.2600,8.5765,1.5392,1.6755,0.9632,44.44,26.63,288.81,-4.3992,6.4910,3.1966,8.4678
3,6,0,0,1,21.374,21374,-3.6200,1.5600,6.9500,7.9900,1.2665,-0.1298,-2.2329,40.75,11.19,288.75,-4.2965,5.8412,3.6912,8.1366
3,6,0,0,1,21.494,21494,-7.5600,-1.0100,6.0600,9.7415,1.6122,-1.1236,-1.5686,46.19,-12.06,277.06,-4.7265,4.9384,4.0034,7.9218
3,6,0,0,1,21.616,21616,-4.9400,-4.1800,3.8300,7.5196,1.5446,-1.9253,-1.8468,50.63,-40.31,270.00,-4.7547,3.7368,3.9805,7.2399
3,6,0,0,1,21.737,21737,-5.7200,-6.4400,0.3100,8.6191,0.7374,-2.2733,-2.0944,48.13,-70.63,255.38,-4.8819,2.3958,3.4968,6.4653
3,6,0,0,1,21.899,21899,-5.0700,-8.7600,-1.0800,10.1788,0.4571,-1.5523,-1.4104,33.75,-93.56,229.88,-4.9067,0.9257,2.8937,5.7711
3,6,0,0,1,22.020,22020,-5.4000,-9.5100,-1.3800,11.0229,-0.1931,-0.4603,-0.7821,25.88,-97.19,216.69,-4.9717,-0.4494,2.3306,5.5092
3,6,0,0,1,22.142,22142,-1.9500,-8.0500,-0.8400,8.3253,-1.0854,-0.0447,-1.7639,17.88,-91.63,205.38,-4.5735,-1.4510,1.9128,5.1654
3,6,0,0,1,22.262,22262,-1.7300,-8.3800,0.1700,8.5584,-0.3360,0.0611,-0.5149,8.81,-87.38,195.25,-4.1988,-2.3640,1.6831,5.1041
3,7,0,0,1,22.389,22389,-0.6900,-8.1700,0.5500,8.2175,-0.0284,0.2814,0.6316,11.19,-86.38,199.06,-3.7364,-3.1291,1.5338,5.1093
3,7,0,0,1,22.510,22510,-3.1200,-10.2600,0.4800,10.7346,-0.2040,0.4036,1.0908,16.19,-85.25,206.25,-3.6552,-4.0688,1.3949,5.6446
3,7,0,0,1,22.630,22630,-4.7600,-8.3000,0.7800,9.5998,-0.8596,0.9588,3.1852,30.38,-78.69,223.38,-3.8008,-4.6264,1.3139,6.1299
3,7,0,0,1,22.751,22751,-5.6500,-6.1200,2.8800,8.8131,-0.4342,1.6701,3.1612,47.06,-60.94,247.63,-4.0445,-4.8232,1.5203,6.4755
3,7,0,0,1,22.913,22913,-5.4200,0.6600,3.4200,6.4427,-0.8639,1.6821,5.0385,54.44,6.00,288.44,-4.2257,-4.1006,1.7706,6.1487
3,7,0,0,1,23.034,23034,-5.1400,3.9800,6.5200,9.2071,-0.0360,1.0210,0.9447,40.56,25.50,304.88,-4.3462,-3.0358,2.3965,5.8180
3,7,0,0,1,23.155,23155,-5.3400,4.9400,6.3500,9.6562,-1.0199,0.1113,1.3843,34.63,31.06,308.00,-4.4772,-1.9848,2.9174,5.7005
3,7,0,0,1,23.281,23281,-2.5300,6.0500,6.1600,8.9972,-1.3701,-0.4985,1.3254,28.94,45.50,317.13,-4.2206,-0.9260,3.3447,5.4642
3,7,0,0,1,23.403,23403,-7.2100,7.6300,1.8700,10.6629,-0.8116,-1.2610,-1.4410,38.75,57.25,312.00,-4.6145,0.2014,3.1504,5.5910
3,7,0,0,1,23.523,23523,-5.4400,6.7500,3.5500,9.3680,-0.2105,0.1004,2.4347,36.06,63.25,317.13,-4.7233,1.0644,3.2030,5.8053
3,7,0,0,1,23.644,23644,-2.9000,8.8600,2.8900,9.7602,-1.2665,0.2411,1.6722,20.63,71.56,331.25,-4.4830,2.0916,3.1618,5.8711
3,7,0,0,1,23.765,23765,-2.3200,10.9200,1.5300,11.2681,-0.6589,0.3109,0.3938,15.38,78.25,332.44,-4.1980,3.2550,2.9468,6.0747
3,7,0,0,1,23.927,23927,-0.7100,10.9000,1.4300,11.0163,-0.1407,-0.4200,2.0039,4.25,81.63,344.19,-3.7384,4.2624,2.7469,6.2999
3,7,0,0,1,24.049,24049,1.5700,9.6800,1.9400,9.9965,-0.2367,-0.3774,0.4145,-4.25,82.38,355.88,-3.0389,4.9763,2.6406,6.4008
3,7,0,0,1,24.174,24174,-0.5900,10.6800,0.8300,10.7284,-0.4167,-0.3829,-0.3054,-2.13,84.88,356.25,-2.7162,5.7279,2.4020,6.7791
3,7,0,0,1,24.296,24296,-0.5300,10.4500,0.1800,10.4650,0.1309,-0.3305,0.7461,-4.00,85.88,0.88,-2.4281,6.3502,2.1092,7.1182
3,7,0,0,1,24.416,24416,0.8000,9.8800,0.8400,9.9479,0.1374,-0.0218,0.1374,-7.81,84.44,5.25,-2.0027,6.8153,1.9419,7.3641
3,7,0,0,1,24.537,24537,-0.1800,9.1700,0.9400,9.2198,-0.0382,0.4680,-0.8399,-4.44,84.38,358.94,-1.7625,7.1256,1.8099,7.5602
3,7,0,0,1,24.658,24658,-1.1100,10.9800,0.6800,11.0569,-0.0316,0.4767,-0.4647,0.00,84.94,350.00,-1.6765,7.6335,1.6610,7.9900
3,7,0,0,1,24.779,24779,-0.3400,11.4100,0.7300,11.4384,0.3742,0.8018,-0.8596,2.81,83.88,342.25,-1.5004,8.1312,1.5383,8.4103
3,7,0,0,1,24.947,24947,-3.2900,8.1300,2.2200,9.0471,0.4331,0.0425,-4.4953,27.19,77.69,313.00,-1.7362,8.1310,1.6282,8.4722
3,7,0,0,1,25.068,25068,-10.2500,6.6000,1.3900,12.2701,0.7243,0.1233,-1.8850,52.13,68.50,289.38,-2.8581,7.9293,1.5968,8.5786
3,7,0,0,1,25.189,25189,-5.5600,5.2700,2.5600,8.0771,1.4857,0.8083,-0.3469,52.44,54.25,290.25,-3.2142,7.5788,1.7237,8.4107
3,7,0,0,1,25.310,25310,-7.3900,1.8600,4.1800,8.6916,0.9174,0.0829,-3.3281,59.31,26.19,279.63,-3.7644,6.8252,2.0474,8.0589
3,7,0,0,1,25.431,25431,-8.8100,-0.9200,3.1500,9.4013,0.6949,-0.1189,-2.5602,62.50,-14.06,262.94,-4.4293,5.8046,2.1927,7.6237
3,7,0,0,1,25.552,25552,-8.0900,-3.1500,4.0900,9.5968,0.7341,0.2618,-1.4573,55.75,-38.75,252.88,-4.9117,4.6246,2.4427,7.1749
3,7,0,0,1,25.673,25673,-8.3800,-4.1500,3.3700,9.9400,0.6654,0.3731,-1.4377,46.88,-50.75,244.69,-5.3687,3.4684,2.5649,6.8870
3,7,0,0,1,25.800,25800,-4.9400,-5.1700,3.7500,8.0743,1.0101,0.6676,0.1734,42.94,-53.88,248.19,-5.3122,2.3300,2.7211,6.4073
3,7,0,0,1,25.962,25962,-5.0300,-8.0300,1.9100,9.6659,0.4996,-0.9207,-2.2078,31.44,-67.44,235.25,-5.2750,0.9648,2.6142,5.9658
3,7,0,0,1,26.083,26083,-4.4200,-8.6900,1.6500,9.8881,0.5312,-0.5421,-0.5007,26.38,-75.19,225.88,-5.1624,-0.3074,2.4871,5.7385
3,7,0,0,1,26.205,26205,-2.7900,-8.6400,2.1600,9.3327,-0.5585,0.0862,-0.6130,22.44,-76.44,220.94,-4.8498,-1.4054,2.4440,5.6097
3,8,0,0,1,26.325,26325,-4.2500,-6.4100,1.4500,7.8264,-0.4625,1.0788,1.0363,23.13,-70.25,224.00,-4.7707,-2.0649,2.3130,5.6898
3,8,0,0,1,26.452,26452,-2.9600,-9.1700,4.3000,10.5518,0.1429,1.2086,0.5563,24.44,-66.06,234.63,-4.5321,-3.0012,2.5749,6.0147
3,8,0,0,1,26.573,26573,-3.1100,-6.4600,3.4200,7.9436,-0.4680,0.0731,1.5893,30.56,-59.56,245.44,-4.3447,-3.4570,2.6862,6.1679
3,8,0,0,1,26.694,26694,-9.0600,-6.4300,3.3600,11.6068,-0.9447,0.0927,0.9436,37.81,-53.13,251.38,-4.9661,-3.8487,2.7750,6.8684
3,8,0,0,1,26.815,26815,-4.9500,-4.6000,4.5000,8.1187,-0.3807,2.1162,1.0690,36.00,-39.56,259.19,-4.9640,-3.9477,3.0023,7.0171
3,8,0,0,1,26.977,26977,-2.0700,-3.4800,6.8400,7.9486,-1.6679,0.8803,2.5853,31.31,-18.31,277.56,-4.5826,-3.8861,3.5080,6.9576
3,8,0,0,1,27.104,27104,-2.2700,2.3200,5.7400,6.5942,-2.2242,-0.3687,1.8380,31.94,6.13,289.00,-4.2779,-3.0683,3.8021,6.4939
3,8,0,0,1,27.225,27225,-5.8600,6.7900,5.1800,10.3574,-2.2449,-1.2948,2.2613,34.50,31.50,298.63,-4.4863,-1.7692,3.9837,6.2552
3,8,0,0,1,27.346,27346,-5.6300,9.8000,5.4200,12.5345,-1.3843,-0.6261,2.0028,28.69,54.00,312.31,-4.6371,-0.2447,4.1730,6.2431
3,8,0,0,1,27.467,27467,-3.9000,8.6600,4.6600,10.5793,-0.7450,-0.3174,0.9828,22.13,63.13,321.13,-4.5399,0.9287,4.2372,6.2791
3,8,0,0,1,27.588,27588,-2.5200,10.9100,2.7200,11.5229,-1.3145,-0.6021,1.3668,15.81,72.44,329.06,-4.2738,2.2440,4.0372,6.2928
3,8,0,0,1,27.709,27709,-1.8200,10.7700,1.3500,11.0058,-0.4254,-0.9087,0.6850,9.94,80.00,339.75,-3.9504,3.3675,3.6831,6.3648
3,8,0,0,1,27.830,27830,-2.3800,9.8700,1.5200,10.2660,0.1156,-0.5607,0.4102,8.06,81.25,346.50,-3.7435,4.2244,3.3981,6.5883
3,8,0,0,1,27.998,27998,-1.6300,9.7800,1.2800,9.9972,-0.0764,0.1254,0.5160,4.25,81.25,352.25,-3.4650,4.9565,3.1190,6.8044
3,8,0,0,1,28.118,28118,-1.3800,10.0300,1.0800,10.1819,0.1254,0.3578,0.0502,3.06,81.50,351.56,-3.1902,5.6250,2.8503,7.0670
3,8,0,0,1,28.240,28240,-0.1900,9.9700,1.6300,10.1042,0.3720,0.1571,-1.0428,5.94,79.75,346.06,-2.7949,6.1976,2.6895,7.3113
3,8,0,0,1,28.360,28360,-3.3100,9.7000,2.0500,10.4522,0.3502,-0.3469,-1.5664,16.19,77.19,337.00,-2.8628,6.6591,2.6052,7.7024
3,8,0,0,1,28.481,28481,-5.1600,9.0800,2.3400,10.7027,0.4516,0.4167,-0.7101,23.50,73.75,330.31,-3.1655,6.9781,2.5703,8.0821
3,8,0,0,1,28.602,28602,-3.4400,10.4700,2.9400,11.4061,0.4941,1.2261,-0.4712,24.00,67.81,324.44,-3.2016,7.4383,2.6190,8.5110
3,8,0,0,1,28.723,28723,-2.9500,7.2800,3.9000,8.7699,1.0450,0.5476,-1.7115,27.75,58.06,314.88,-3.1685,7.4174,2.7878,8.5340
3,8,0,0,1,28.845,28845,-5.1100,5.4700,4.7800,8.8815,0.6556,-0.2738,-1.8151,37.88,46.69,303.63,-3.4243,7.1608,3.0503,8.5034
3,8,0,0,1,29.011,29011,-6.2100,3.9700,4.4200,8.5943,0.4276,-1.7519,-1.8402,53.25,38.13,295.94,-3.7914,6.7403,3.2308,8.3812
3,8,0,0,1,29.132,29132,-12.0600,-0.1600,2.3600,12.2898,0.1549,-0.7723,-3.8179,71.69,-0.56,276.06,-4.8810,5.8310,3.1161,8.2180
3,8,0,0,1,29.253,29253,-12.8700,-0.9200,2.1400,13.0791,0.1974,2.3082,0.6305,62.44,-29.00,264.88,-5.9337,4.9414,2.9874,8.2796
3,8,0,0,1,29.374,29374,-1.7300,-1.4300,5.8900,6.3032,0.4571,1.6821,-1.1377,48.56,-15.31,273.81,-5.3798,4.1018,3.3699,7.5580
3,8,0,0,1,29.495,29495,-6.3900,-2.8000,5.7800,9.0598,0.5181,-0.2389,-2.7064,38.06,-31.81,256.94,-5.5129,3.1923,3.6875,7.3608
3,8,0,0,1,29.633,29633,-4.6800,-4.8400,4.1700,7.9194,1.7835,-1.4235,-0.2334,38.00,-47.88,250.50,-5.4032,2.1339,3.7511,6.9151
3,8,0,0,1,29.754,29754,-7.5400,-8.9500,2.9700,12.0737,0.4887,-0.5083,-1.5184,39.00,-65.94,245.69,-5.6847,0.6733,3.6482,6.7881
3,8,0,0,1,29.875,29875,-4.6800,-7.0300,2.3600,8.7689,-0.4985,0.4167,-1.1159,28.13,-66.44,234.44,-5.5523,-0.3418,3.4784,6.5608
3,8,0,0,1,30.037,30037,-3.5100,-8.0400,3.8900,9.5966,-0.0698,-0.0087,0.0153,25.31,-63.81,233.38,-5.2832,-1.3562,3.5326,6.4986
3,9,0,0,1,30.163,30163,-4.0200,-7.4800,3.8000,9.3033,-0.5247,-0.2651,-0.7876,23.50,-62.44,229.25,-5.1168,-2.1632,3.5679,6.6023
3,9,0,0,1,30.285,30285,-4.9100,-7.1500,3.9000,9.5100,-0.0709,-0.3523,-0.5760,20.38,-61.75,224.13,-5.0895,-2.8203,3.6116,6.8484
3,9,0,0,1,30.407,30407,-2.2500,-8.1000,3.9700,9.2970,0.1865,-0.6196,-0.7734,17.31,-65.63,218.31,-4.7153,-3.5160,3.6589,6.9271
3,9,0,0,1,30.527,30527,-2.2100,-7.4600,3.6600,8.5983,-0.1985,-0.5487,-0.4614,15.25,-67.00,211.50,-4.3852,-4.0358,3.6590,6.9933
3,9,0,0,1,30.648,30648,-2.7000,-6.9300,3.7000,8.3069,0.2585,0.0415,0.9556,16.00,-67.25,210.63,-4.1631,-4.4171,3.6644,7.0902
3,9,0,0,1,30.769,30769,-2.6500,-6.8400,3.6400,8.1889,-0.0764,0.0502,2.2144,26.44,-66.31,222.88,-3.9637,-4.7364,3.6612,7.1798
3,9,0,0,1,30.891,30891,-7.5500,-5.9300,1.5200,9.7200,-0.7385,-0.0120,3.4187,44.56,-57.25,242.00,-4.4363,-4.8937,3.3790,7.4194
3,9,0,0,1,31.058,31058,-8.6300,-1.9600,2.6200,9.2295,-0.4821,-0.3207,2.1817,60.13,-36.19,258.25,-4.9889,-4.5071,3.2790,7.4803
3,9,0,0,1,31.179,31179,-9.0900,2.4700,3.4900,10.0454,-0.0469,0.7450,4.2651,62.94,18.88,282.81,-5.5294,-3.5877,3.3068,7.3743
3,9,0,0,1,31.300,31300,-5.6700,2.8700,6.2200,8.8924,-0.4014,0.2705,1.1061,50.75,39.00,299.13,-5.5479,-2.7367,3.6907,7.2035
3,9,0,0,1,31.421,31421,-6.3900,6.6000,3.4600,9.8165,-1.3363,-0.0022,1.3712,45.75,51.13,302.13,-5.6589,-1.5064,3.6603,6.9058
3,9,0,0,1,31.542,31542,-5.1000,8.8800,3.0100,10.6735,-0.5105,-0.1113,1.9351,36.13,62.81,311.19,-5.5852,-0.1377,3.5746,6.6326
3,9,0,0,1,31.663,31663,-3.7400,9.3800,3.2300,10.6021,-0.0404,-0.5051,1.3897,26.69,68.00,323.19,-5.3421,1.1165,3.5292,6.4992
3,9,0,0,1,31.785,31785,-2.9700,9.2400,2.3900,9.9955,-0.2967,-0.7189,0.8792,20.75,72.25,333.56,-5.0295,2.1869,3.3791,6.4418
3,9,0,0,1,31.911,31911,-3.0500,9.4800,1.9100,10.1401,-0.3262,-0.7527,0.8083,17.50,76.44,341.44,-4.7686,3.1480,3.1855,6.5419
3,9,0,0,1,32.073,32073,-2.5600,10.7100,0.8200,11.0422,0.0502,0.0218,1.6690,6.13,80.00,356.81,-4.4776,4.1445,2.8738,6.7442
3,9,0,0,1,32.194,32194,2.8700,8.3400,2.4700,9.1593,0.4680,-0.3872,-1.7671,2.44,77.38,0.13,-3.5094,4.6973,2.8206,6.5066
3,9,0,0,1,32.316,32316,-7.6000,9.6600,0.6700,12.3095,-0.2291,-0.9599,-2.6485,25.63,78.13,342.19,-4.0484,5.3513,2.5372,7.1738
3,9,0,0,1,32.437,32437,-3.1900,7.9900,0.7600,8.6368,0.6294,-1.5904,-1.1617,34.56,79.88,340.81,-3.9353,5.6990,2.3030,7.2986
3,9,0,0,1,32.563,32563,-6.6200,5.4800,-0.5500,8.6115,-0.0676,-1.8937,-2.9496,50.94,87.31,334.56,-4.2891,5.6701,1.9270,7.3661
3,9,0,0,1,32.685,32685,-12.3300,5.0100,-1.2300,13.3657,0.1691,0.0894,-0.8508,65.31,103.00,324.88,-5.3487,5.5831,1.5110,7.8780
3,9,0,0,1,32.805,32805,-7.0900,3.0200,0.5900,7.7289,-0.3534,2.1108,-0.2323,66.69,81.13,319.81,-5.5781,5.2454,1.3897,7.7821
3,9,0,0,1,32.926,32926,-7.9900,3.9700,0.9400,8.9713,-1.0952,1.0865,-1.4672,69.56,54.69,304.13,-5.8959,5.0773,1.3304,7.8938
3,9,0,0,1,33.088,33088,-6.7300,2.3900,2.1600,7.4613,0.5661,-0.2127,-0.7341,72.63,32.06,293.94,-6.0059,4.7232,1.4397,7.7751
3,9,0,0,1,33.209,33209,-10.3100,0.1600,0.2000,10.3132,0.5858,-1.7181,-2.1697,81.94,-21.19,286.63,-6.5730,4.1219,1.2764,7.8628
3,9,0,0,1,33.330,33330,-10.6900,-2.5800,-0.5900,11.0127,-0.1604,-0.5160,-1.7835,74.25,-94.63,276.44,-7.1155,3.2388,1.0304,7.8856
3,9,0,0,1,33.456,33456,-9.2200,-3.6700,-0.5900,9.9411,-0.9261,1.0461,-1.9711,60.50,-84.00,262.38,-7.3929,2.3284,0.8169,7.7938
3,9,0,0,1,33.578,33578,-5.6600,-4.2800,0.7500,7.1356,-0.6141,1.1705,-1.0657,48.44,-68.88,252.50,-7.1645,1.4575,0.8081,7.3558
3,9,0,0,1,33.698,33698,-5.2400,-5.8500,2.8900,8.3685,0.1178,0.1233,-0.4941,42.75,-64.75,249.44,-6.9109,0.4946,1.0824,7.0126
3,9,0,0,1,33.819,33819,-8.0500,-7.7000,3.0800,11.5576,-0.2749,-0.0927,-0.7734,39.06,-67.13,244.63,-7.0610,-0.5852,1.3457,7.2119
3,9,0,0,1,33.940,33940,-4.6900,-6.6300,2.4300,8.4769,-0.7549,0.4658,-1.5523,31.56,-64.38,236.69,-6.7486,-1.3818,1.4885,7.0476
3,9,0,0,1,34.103,34103,-2.9400,-6.7900,4.9400,8.8967,-0.2705,0.0982,-0.6283,20.31,-60.88,225.31,-6.2467,-2.0945,1.9434,6.8691
3,9,0,0,1,34.229,34229,-2.8700,-6.1300,4.1900,7.9605,-0.0316,-0.2323,-0.1058,19.31,-60.06,223.19,-5.8017,-2.6262,2.2394,6.7507
3,10,0,0,1,34.351,34351,-2.7500,-7.6200,4.0700,9.0660,0.3840,-0.3480,-0.2247,19.50,-63.13,221.44,-5.3996,-3.2843,2.4806,6.7894
3,10,0,0,1,34.471,34471,-3.1800,-6.9800,3.4000,8.3900,0.1734,-0.3425,0.6534,21.19,-65.50,221.00,-5.1071,-3.7713,2.6018,6.8611
3,10,0,0,1,34.592,34592,-4.2100,-6.6900,3.1400,8.5053,0.0175,-0.3011,2.1053,31.00,-65.31,229.94,-4.9889,-4.1559,2.6727,7.0217
3,10,0,0,1,34.713,34713,-6.8100,-4.8700,2.4100,8.7121,0.0622,-1.1999,1.6341,45.06,-65.00,240.69,-5.2289,-4.2500,2.6381,7.2362
3,10,0,0,1,34.835,34835,-9.8800,-3.3700,1.4700,10.5419,-0.1451,-0.7669,2.5798,59.50,-66.38,249.56,-5.8418,-4.1340,2.4842,7.5755
3,10,0,0,1,34.961,34961,-11.1300,0.0200,0.3900,11.1368,0.7330,1.2763,3.4590,74.94,-23.44,273.31,-6.5386,-3.5866,2.2082,7.7778
3,10,0,0,1,35.123,35123,-6.7800,-0.4600,5.8400,8.9602,1.8282,2.7303,1.7311,51.19,16.63,305.13,-6.5704,-3.1746,2.6868,7.7761
3,10,0,0,1,35.244,35244,-1.3800,0.8700,7.8300,7.9981,-2.2166,1.2654,1.6744,34.19,23.94,314.06,-5.8865,-2.6417,3.3645,7.2766
3,10,0,0,1,35.365,35365,-2.1100,8.8200,3.1000,9.5841,-2.3507,-1.2675,0.4418,30.81,46.44,316.38,-5.3888,-1.1313,3.3297,6.4347
3,10,0,0,1,35.486,35486,-7.6600,9.5800,3.0600,12.6418,-0.2171,-1.1726,0.3425,35.44,60.19,319.31,-5.6881,0.2802,3.2941,6.5791
3,10,0,0,1,35.607,35607,-4.5200,6.9200,4.1300,9.2398,0.3382,-0.5901,1.3068,32.00,62.94,328.38,-5.5342,1.1551,3.4043,6.5993
3,10,0,0,1,35.728,35728,-3.4300,10.4500,3.6300,11.5821,-0.5574,-0.6076,1.5893,24.38,68.75,341.00,-5.2569,2.3800,3.4340,6.7150
3,10,0,0,1,35.850,35850,-2.5400,9.1300,2.3300,9.7590,-0.0011,-0.6894,0.4549,19.50,73.38,349.81,-4.8989,3.2694,3.2885,6.7456
3,10,0,0,1,35.975,35975,-3.4300,9.2800,2.1800,10.1309,0.0524,-0.7472,1.1279,16.50,74.69,358.13,-4.7053,4.0615,3.1425,6.9650
3,10,0,0,1,36.138,36138,-3.0800,9.5000,1.4600,10.0930,-0.1484,-0.0338,0.0098,9.13,77.56,8.88,-4.4911,4.7781,2.9208,7.1786
3,10,0,0,1,36.259,36259,-4.1900,10.1800,1.5500,11.1171,0.0785,0.8519,-1.0974,13.81,76.88,0.25,-4.4515,5.4900,2.7401,7.5805
3,10,0,0,1,36.381,36381,-2.8400,9.5300,1.4800,10.0537,-0.2542,1.4181,-0.9937,18.31,74.69,346.50,-4.2391,6.0223,2.5741,7.8016
3,10,0,0,1,36.502,36502,-2.6600,10.3500,2.6000,10.9981,0.0142,1.1039,-1.1061,22.63,71.75,332.94,-4.0310,6.5926,2.5775,8.1459
3,10,0,0,1,36.628,36628,-3.2700,9.3200,3.2100,10.3855,0.4352,0.5574,-1.6504,29.38,66.19,320.75,-3.9307,6.9520,2.6608,8.4179
3,10,0,0,1,36.749,36749,-5.2100,7.1000,4.2300,9.7697,0.6872,-0.0033,-1.6166,39.50,56.63,309.75,-4.0993,6.9715,2.8676,8.5808
3,10,0,0,1,36.869,36869,-6.2900,5.3200,4.2100,9.2515,0.5923,-0.2694,-1.3025,47.56,47.81,302.88,-4.3880,6.7539,3.0445,8.6104
3,10,0,0,1,36.990,36990,-6.9600,4.0800,4.2700,9.1280,0.6174,-0.3447,-2.0486,56.00,36.19,295.63,-4.7269,6.4015,3.2060,8.5792
3,10,0,0,1,37.152,37152,-8.3500,-0.6200,2.8500,8.8447,1.1454,-1.5468,-2.5787,69.13,-14.06,278.00,-5.2043,5.4763,3.1591,8.1887
3,10,0,0,1,37.273,37273,-10.6000,-4.2400,1.6300,11.5323,0.8748,-0.8519,-2.2297,65.56,-65.94,265.75,-5.9154,4.1959,2.9576,7.8323
3,10,0,0,1,37.395,37395,-7.9400,-5.0800,1.1500,9.4959,-0.2203,0.8727,-2.0737,53.50,-73.50,254.94,-6.1822,2.9736,2.7194,7.3795
3,10,0,0,1,37.521,37521,-3.5200,-7.0300,2.0400,8.1224,0.0927,0.3578,-2.9212,34.50,-72.50,239.50,-5.8313,1.6554,2.6299,6.6077
3,10,0,0,1,37.642,37642,-5.1100,-7.6200,1.5700,9.3081,0.2607,-0.3731,0.3992,27.06,-76.44,231.50,-5.7363,0.4331,2.4902,6.2685
3,10,0,0,1,37.763,37763,-4.4200,-9.0800,1.7100,10.2424,0.4483,-0.4756,-1.0668,26.88,-80.94,229.94,-5.5628,-0.8205,2.3874,6.1088
3,10,0,0,1,37.884,37884,-2.8000,-9.7500,1.7200,10.2889,-0.2673,-0.5105,-1.7311,16.06,-82.38,216.00,-5.1988,-1.9972,2.2994,6.0252
3,10,0,0,1,38.005,38005,-2.2700,-7.4100,1.3600,7.8683,-0.0436,-0.2891,-0.0098,10.81,-81.81,207.44,-4.8128,-2.7104,2.1757,5.9366
3,10,0,0,1,38.169,38169,-1.9500,-8.8700,1.2300,9.1647,0.1036,-0.0425,-0.6621,9.75,-82.63,205.06,-4.4356,-3.5221,2.0510,6.0238
3,10,0,0,1,38.294,38294,-1.2400,-8.2500,1.1500,8.4216,0.3414,0.1265,0.1331,8.38,-84.69,204.44,-4.0145,-4.1451,1.9323,6.0854
3,10,0,0,1,38.416,38416,-0.7600,-8.0000,1.4200,8.1605,0.1320,0.0873,0.4429,8.75,-86.56,205.88,-3.5856,-4.6531,1.8648,6.1632
3,10,0,0,1,38.536,38536,-3.1300,-7.6200,0.3000,8.2433,-0.0185,0.3011,2.3616,18.75,-85.88,216.06,-3.5256,-5.0441,1.6586,6.3736
3,10,0,0,1,38.657,38657,-4.6100,-4.9400,-0.1900,6.7596,-0.1396,0.4298,4.0732,41.06,-82.88,240.94,-3.6685,-5.0303,1.4150,6.3847
3,10,0,0,1,38.778,38778,-8.4500,-2.0600,-0.3400,8.7041,-0.6185,0.4069,4.0808,68.56,-66.38,269.25,-4.2986,-4.6389,1.1837,6.4342
3,10,0,0,1,38.900,38900,-9.0100,2.5500,1.8100,9.5372,-1.0036,0.6938,3.1656,75.94,15.19,287.38,-4.9194,-3.6916,1.2663,6.2795
