participant,rep,equipment_code,exercise_code,timestamp,timestamp_ms,accelX,accelY,accelZ,accelMag,gyroX,gyroY,gyroZ,roll,pitch,yaw,filteredX,filteredY,filteredZ,filteredMag
3,1,0,0,00.000,0,-1.8900,9.4900,0.3800,9.6838,0.0175,0.0164,0.0404,11.19,87.94,58.75,-2.0047,9.5685,0.3025,9.7809
3,1,0,0,00.121,121,-1.8800,9.5000,0.3500,9.6906,-0.0065,0.0109,0.0164,11.06,87.88,58.75,-1.9882,9.5595,0.3088,9.7689
3,1,0,0,00.243,243,-1.7800,9.6500,0.2900,9.8171,-0.0305,-0.0055,0.0753,10.69,88.00,59.13,-1.9608,9.5714,0.3063,9.7750
3,1,0,0,00.369,369,-1.8700,9.6000,0.3000,9.7850,-0.0436,0.0295,0.0153,10.31,88.25,59.38,-1.9488,9.5752,0.3055,9.7763
3,1,0,0,00.531,531,-1.8900,9.3600,0.3100,9.5539,-0.0055,0.1047,0.0393,10.19,88.38,58.81,-1.9411,9.5468,0.3061,9.7470
3,1,0,0,00.653,653,-1.8600,9.8600,0.2800,10.0378,-0.0349,0.1200,0.0894,9.94,88.25,58.31,-1.9304,9.5881,0.3026,9.7852
3,1,0,0,00.773,773,-1.4600,9.9800,0.2000,10.0882,0.0175,0.0698,-0.0567,9.50,88.25,58.00,-1.8684,9.6397,0.2891,9.8234
3,1,0,0,00.895,895,-1.6100,9.4000,0.3800,9.5444,0.0349,0.0087,-0.1582,10.38,87.94,56.94,-1.8344,9.6081,0.3011,9.7863
3,1,0,0,01.020,1020,-1.8300,9.4100,0.3900,9.5942,-0.0480,-0.0044,0.0327,10.69,88.06,56.63,-1.8338,9.5820,0.3128,9.7609
3,1,0,0,01.142,1142,-1.8500,9.9600,0.2700,10.1340,0.0262,0.0196,0.1669,9.88,88.19,57.38,-1.8359,9.6318,0.3072,9.8101
3,1,0,0,01.264,1264,-1.8800,9.3900,0.6300,9.5971,0.0698,0.0644,-0.0698,9.50,87.75,57.50,-1.8417,9.6000,0.3497,9.7813
3,1,0,0,01.384,1384,-2.3100,9.8700,0.8700,10.1740,0.1462,0.0916,-0.3622,11.31,86.69,55.31,-1.9034,9.6356,0.4183,9.8307
3,1,0,0,01.546,1546,-3.1500,9.4700,1.1000,10.0406,0.6589,0.2498,-1.1705,17.94,82.56,47.94,-2.0677,9.6137,0.5081,9.8467
3,1,0,0,01.669,1669,-4.9600,9.2800,2.2500,10.7602,0.6883,0.4712,-0.6938,24.06,76.50,40.88,-2.4488,9.5698,0.7376,9.9056
3,1,0,0,01.794,1794,-4.8000,8.7300,2.6900,10.3194,0.8170,0.7254,-0.3153,25.19,68.81,37.06,-2.7587,9.4591,0.9949,9.9033
3,1,0,0,01.915,1915,-3.7000,7.4100,3.9400,9.1718,1.1301,0.5738,-1.4781,29.31,58.38,29.31,-2.8827,9.1891,1.3830,9.7294
3,1,0,0,02.035,2035,-4.9700,6.2200,4.9300,9.3645,1.0548,-0.3567,-0.9807,36.38,47.25,22.44,-3.1578,8.7978,1.8504,9.5288
3,1,0,0,02.156,2156,-6.6000,5.0100,4.9000,9.6265,0.9708,-0.8978,-0.9697,43.50,40.63,21.69,-3.6114,8.2987,2.2523,9.3265
3,1,0,0,02.277,2277,-8.3000,2.9200,4.5100,9.8872,0.6436,-0.4516,-2.1991,53.38,27.19,14.38,-4.2292,7.5899,2.5498,9.0551
3,1,0,0,02.398,2398,-9.2500,0.3200,4.3800,10.2396,0.5236,-0.5345,-2.1609,60.31,0.50,1.19,-4.8908,6.6319,2.7910,8.7001
3,1,0,0,02.560,2560,-8.3800,-2.7200,3.4400,9.4581,0.3545,-0.7287,-2.5275,59.00,-40.25,343.69,-5.3506,5.3996,2.8765,8.1276
3,1,0,0,02.686,2686,-7.0500,-4.7900,3.3700,9.1653,0.0916,-0.3109,-2.4620,47.94,-58.81,326.13,-5.5745,4.0569,2.9415,7.4957
3,1,0,0,02.808,2808,-4.1300,-7.5700,3.3600,9.2548,-0.2367,-0.6370,-2.9769,31.13,-67.94,304.75,-5.3842,2.5247,2.9967,6.6591
3,1,0,0,02.928,2928,-3.2900,-7.2400,2.4000,8.3067,-0.3502,-0.7549,-1.8795,17.31,-71.00,283.75,-5.1082,1.2380,2.9180,6.0118
3,1,0,0,03.049,3049,-2.8000,-7.0500,2.8400,8.0999,-0.4080,0.5661,0.6370,13.69,-69.63,279.13,-4.8041,0.1458,2.9078,5.6174
3,2,0,0,03.170,3170,-7.7600,-8.8900,3.2600,12.2424,-0.1844,1.6973,3.7045,25.44,-62.56,299.75,-5.1936,-1.0448,2.9542,6.0656
3,2,0,0,03.293,3293,-3.5700,-6.4700,4.4700,8.6364,0.3011,2.6791,0.9927,32.00,-49.63,326.13,-4.9796,-1.7597,3.1539,6.1515
3,2,0,0,03.414,3414,-1.3000,-6.3200,5.5100,8.4848,-0.3163,1.6897,0.2782,23.75,-43.06,334.44,-4.4947,-2.3607,3.4644,6.1463
3,2,0,0,03.580,3580,-3.1300,-3.5900,5.7300,7.4510,-1.4530,0.8236,2.3387,22.19,-26.56,346.94,-4.3149,-2.5227,3.7629,6.2564
3,2,0,0,03.701,3701,-2.0300,-1.3700,7.4600,7.8517,-1.6275,0.5803,1.2468,21.13,-11.06,358.44,-4.0138,-2.3708,4.2501,6.3083
3,2,0,0,03.821,3821,-2.7000,2.2800,7.2400,8.0564,-2.4620,-0.5171,1.0385,21.44,5.81,2.44,-3.8407,-1.7579,4.6441,6.2777
3,2,0,0,03.943,3943,-4.3100,5.8600,7.3700,10.3553,-2.1446,-1.0297,1.4235,24.75,25.56,8.50,-3.9025,-0.7541,5.0033,6.3900
3,2,0,0,04.063,4063,-4.7800,9.5900,6.6100,12.5900,-2.0191,-1.0592,1.4203,24.81,45.13,17.25,-4.0182,0.6090,5.2150,6.6116
3,2,0,0,04.185,4185,-3.7700,9.3000,4.8600,11.1500,-1.2359,-0.6545,1.1126,21.31,60.19,25.56,-3.9855,1.7543,5.1682,6.7581
3,2,0,0,04.306,4306,-2.8300,10.7600,3.7800,11.7505,-0.8378,-0.4985,1.1356,16.19,69.00,33.50,-3.8332,2.9410,4.9853,6.9423
3,2,0,0,04.432,4432,-2.2100,10.4400,2.3800,10.9335,-0.6109,-0.5869,1.0014,10.50,75.31,42.50,-3.6193,3.9292,4.6420,7.0771
3,2,0,0,04.595,4595,-2.1600,9.8500,1.9300,10.2671,0.1756,-0.5301,0.1724,6.00,77.56,52.56,-3.4270,4.7094,4.2846,7.2305
3,2,0,0,04.715,4715,-2.3900,8.3400,2.3000,8.9754,0.1167,-0.2891,-0.2509,7.06,76.69,54.25,-3.2904,5.1878,4.0231,7.3434
3,2,0,0,04.836,4836,-1.9200,10.2800,1.9800,10.6436,-0.1724,-0.0295,-0.2454,8.81,77.31,53.50,-3.1098,5.8588,3.7539,7.6216
3,2,0,0,04.957,4957,-1.8700,8.9300,1.6000,9.2629,0.1811,0.1364,-0.6327,11.81,77.06,49.94,-2.9464,6.2635,3.4700,7.7430
3,2,0,0,05.078,5078,-2.0600,9.3400,2.0500,9.7817,0.1134,0.1320,0.0196,13.56,75.75,47.25,-2.8296,6.6689,3.2829,7.9535
3,2,0,0,05.205,5205,-1.6600,10.1800,2.6200,10.6420,0.0698,-0.1102,0.4658,11.31,75.50,49.50,-2.6755,7.1316,3.1956,8.2601
3,2,0,0,05.326,5326,-2.3400,10.2900,3.1400,11.0100,0.4123,-0.1418,-0.6960,12.44,73.88,49.75,-2.6313,7.5478,3.1882,8.6057
3,2,0,0,05.447,5447,-3.8100,9.8400,4.0400,11.2988,1.2130,-0.7494,-1.1290,20.00,68.31,45.81,-2.7866,7.8498,3.3005,8.9598
3,2,0,0,05.610,5610,-5.1500,7.2200,3.3400,9.4766,0.9534,-0.8868,-1.7551,33.94,59.06,42.00,-3.0980,7.7669,3.3057,8.9916
3,2,0,0,05.730,5730,-7.3600,5.4800,3.7900,9.9279,0.7930,-0.8563,-2.2886,48.44,50.31,33.06,-3.6597,7.4655,3.3695,8.9711
3,2,0,0,05.857,5857,-9.4900,3.2900,3.1200,10.5175,0.3305,-0.7887,-1.6122,61.81,39.19,23.75,-4.4279,6.9153,3.3366,8.8635
3,2,0,0,05.979,5979,-10.2300,0.6600,3.1700,10.7302,0.0371,0.1047,-1.9373,69.94,15.44,13.06,-5.1925,6.0910,3.3147,8.6631
3,2,0,0,06.099,6099,-10.2500,-0.3300,3.1300,10.7223,-0.1658,0.8694,-1.9515,65.81,-16.06,359.69,-5.8590,5.2449,3.2903,8.5242
3,2,0,0,06.221,6221,-8.5200,-1.2800,4.0000,9.4989,-0.0829,0.5607,-2.0922,55.44,-33.31,346.56,-6.2096,4.3851,3.3839,8.3210
3,2,0,0,06.341,6341,-5.6400,-3.2400,4.3100,7.8028,0.0971,-0.1342,-2.2100,45.31,-45.56,333.00,-6.1346,3.3803,3.5059,7.8326
3,2,0,0,06.462,6462,-4.8100,-5.1700,3.8900,8.0621,0.4811,-0.7254,-1.3723,37.88,-56.56,320.31,-5.9600,2.2536,3.5565,7.2972
3,2,0,0,06.625,6625,-4.1300,-7.9500,3.0200,9.4541,0.2476,-0.4821,-1.1694,32.63,-68.19,309.88,-5.7189,0.9090,3.4858,6.7589
3,2,0,0,06.750,6750,-4.4000,-7.0300,2.4400,8.6449,-0.5018,0.2683,-0.3676,26.63,-68.69,302.44,-5.5451,-0.1372,3.3480,6.4789
3,3,0,0,06.871,6871,-4.8600,-7.5600,4.2600,9.9459,-0.0164,0.6360,1.4083,30.38,-63.56,309.94,-5.4548,-1.1153,3.4682,6.5595
3,3,0,0,06.992,6992,-5.2700,-6.5100,4.7500,9.6289,-0.4342,0.4385,0.6872,34.44,-57.56,317.50,-5.4304,-1.8262,3.6371,6.7862
3,3,0,0,07.113,7113,-5.5500,-4.4200,3.8200,8.0580,-0.2345,0.5760,1.6024,38.31,-49.31,325.44,-5.4462,-2.1680,3.6612,6.9113
3,3,0,0,07.233,7233,-6.9700,-3.3600,4.6100,9.0068,-0.4669,0.3502,2.3846,45.63,-37.50,339.50,-5.6470,-2.3251,3.7862,7.1854
3,3,0,0,07.355,7355,-6.9000,-2.6700,5.1700,9.0260,-0.5596,0.3262,1.6275,49.50,-22.50,350.63,-5.8121,-2.3705,3.9686,7.4263
3,3,0,0,07.493,7493,-7.3700,1.8600,5.7300,9.5189,-0.6370,0.0044,1.9657,51.25,2.50,4.00,-6.0174,-1.8130,4.2007,7.5592
3,3,0,0,07.655,7655,-8.5400,4.1800,5.7400,11.1064,-0.9490,-0.3545,1.8828,49.81,24.94,15.88,-6.3498,-1.0233,4.4035,7.7948
3,3,0,0,07.776,7776,-5.7000,5.8600,4.0300,9.1143,-0.7123,-0.2302,1.6450,44.06,43.81,26.00,-6.2642,-0.1163,4.3543,7.6298
3,3,0,0,07.897,7897,-6.4000,7.0900,4.9200,10.7440,-0.1364,-0.3262,1.0025,39.25,52.50,33.94,-6.2821,0.8333,4.4288,7.7313
3,3,0,0,08.020,8020,-5.1900,6.9500,4.4500,9.7489,-0.8018,-0.3720,1.3919,34.13,59.88,41.56,-6.1382,1.6394,4.4316,7.7462
3,3,0,0,08.145,8145,-3.8800,10.0600,2.4300,11.0527,-0.8007,-0.3622,1.2697,26.81,69.88,50.00,-5.8406,2.7490,4.1679,7.6838
3,3,0,0,08.267,8267,-3.9300,9.8900,2.4900,10.9296,-0.1004,-0.1636,0.8487,20.69,74.50,57.44,-5.5888,3.6900,3.9468,7.7735
3,3,0,0,08.387,8387,-2.7300,9.4000,2.8300,10.1893,-0.0469,-0.0218,1.1410,14.25,75.44,60.75,-5.2121,4.4424,3.7996,7.8319
3,3,0,0,08.508,8508,-1.4000,9.9000,2.0500,10.2065,-0.1407,-0.0807,0.4472,9.06,76.50,64.00,-4.7098,5.1616,3.5691,7.8462
3,3,0,0,08.671,8671,-1.9900,9.4200,1.9200,9.8175,0.2389,0.0676,0.3185,7.63,76.19,62.81,-4.3514,5.7227,3.3518,7.9321
3,3,0,0,08.791,8791,-1.1900,8.8000,2.6700,9.2728,-0.0524,0.3043,0.3109,4.75,75.25,61.88,-3.9348,6.1282,3.2619,7.9799
3,3,0,0,08.918,8918,-1.0300,10.3500,2.1500,10.6210,-0.2029,0.3207,-0.2618,3.94,76.38,58.94,-3.5520,6.6846,3.1154,8.1857
3,3,0,0,09.039,9039,-1.9200,9.5100,2.7000,10.0706,0.4342,0.4058,-0.6087,6.88,74.94,52.06,-3.3370,7.0569,3.0607,8.3847
3,3,0,0,09.159,9159,-1.9800,9.4500,2.8200,10.0586,0.1887,0.4854,-0.9359,10.44,72.06,45.38,-3.1581,7.3722,3.0289,8.5731
3,3,0,0,09.281,9281,-3.3900,10.3800,2.7500,11.2605,0.3185,0.4549,-1.8282,18.56,69.31,33.63,-3.1887,7.7686,2.9922,8.9147
3,3,0,0,09.401,9401,-5.2900,8.0200,4.2200,10.4935,0.5618,0.4058,-1.8588,29.38,62.31,20.00,-3.4656,7.8017,3.1540,9.1008
3,3,0,0,09.522,9522,-5.1000,7.7100,4.1400,10.1289,0.4331,0.3207,-1.6384,37.00,54.25,9.50,-3.6810,7.7896,3.2839,9.2202
3,3,0,0,09.685,9685,-7.0400,4.3300,4.8000,9.5577,0.4952,0.1113,-1.7813,48.00,37.00,353.56,-4.1236,7.3337,3.4837,9.1063
3,3,0,0,09.811,9811,-7.7000,4.1600,4.7000,9.9341,0.2836,-0.1560,-1.0417,52.81,25.94,346.06,-4.5949,6.9155,3.6440,9.0673
3,3,0,0,09.932,9932,-8.7500,0.5200,5.8000,10.5106,0.3349,-0.1200,-2.1129,57.38,7.00,336.75,-5.1424,6.0728,3.9281,8.8743
3,3,0,0,10.053,10053,-8.8300,-0.3200,4.8800,10.0938,0.3992,0.3327,-1.5610,56.31,-12.75,325.44,-5.6283,5.2304,4.0535,8.6871
3,3,0,0,10.173,10173,-7.4800,-1.3000,5.5200,9.3867,0.5127,1.5512,-1.6657,46.44,-25.44,317.69,-5.8723,4.3698,4.2468,8.4626
3,3,0,0,10.296,10296,-3.4700,-4.1900,5.7100,7.8868,1.0908,0.2574,-0.8552,35.94,-35.25,313.13,-5.5558,3.2419,4.4396,7.8158
3,3,0,0,10.422,10422,-4.2700,-5.3500,4.5400,8.2138,1.1246,-1.2490,-0.5792,37.06,-46.13,312.50,-5.3863,2.1097,4.4528,7.3001
3,3,0,0,10.543,10543,-6.3900,-7.2900,3.4600,10.2931,0.2956,-0.8498,-0.8956,36.75,-58.63,306.50,-5.5186,0.8710,4.3220,7.0635
3,3,0,0,10.705,10705,-5.5000,-6.6800,3.7300,9.4226,0.1527,0.5160,-0.1494,33.94,-59.75,303.13,-5.5162,-0.1240,4.2440,6.9609
3,4,0,0,10.825,10825,-5.1700,-8.8200,4.8600,11.3199,-0.6621,0.4963,-0.1636,30.50,-57.81,302.31,-5.4705,-1.2699,4.3252,7.0885
3,4,0,0,10.946,10946,-5.1900,-3.9400,4.1400,7.7201,-1.0679,1.2097,1.7388,30.50,-45.63,307.38,-5.4336,-1.6218,4.3008,7.1169
3,4,0,0,11.067,11067,-3.6600,-4.4300,6.5700,8.7284,-0.8149,1.1956,3.4143,34.81,-27.06,327.56,-5.1999,-1.9918,4.5998,7.2225
3,4,0,0,11.188,11188,-4.2500,-1.3800,6.9500,8.2625,-2.0213,0.8268,1.0614,33.31,-5.88,340.56,-5.0747,-1.9112,4.9095,7.3149
3,4,0,0,11.309,11309,-4.7000,1.8800,7.3300,8.9080,-0.8454,0.1309,0.9719,29.75,7.50,342.69,-5.0253,-1.4116,5.2284,7.3880
3,4,0,0,11.432,11432,-3.8600,3.1700,6.2000,7.9617,-0.5509,-1.0319,1.5228,31.25,16.81,350.88,-4.8718,-0.8079,5.3565,7.2855
3,4,0,0,11.557,11557,-4.8300,6.6000,6.4600,10.4221,-1.0057,-1.5446,1.6755,35.19,30.44,1.94,-4.8663,0.1683,5.5019,7.3471
3,4,0,0,11.720,11720,-6.0900,7.3700,4.5100,10.5710,-0.7494,-0.9741,1.1105,36.88,52.56,15.75,-5.0275,1.1173,5.3712,7.4414
3,4,0,0,11.840,11840,-6.4600,8.6200,3.6800,11.3833,-0.9479,-0.3000,1.3864,33.13,62.63,22.50,-5.2163,2.1060,5.1483,7.6256
3,4,0,0,11.961,11961,-4.6100,8.8400,3.4300,10.5434,0.0295,0.1898,1.7202,23.13,68.81,32.38,-5.1364,2.9933,4.9219,7.7180
3,4,0,0,12.083,12083,-2.7800,8.1000,4.0500,9.4732,-0.2858,0.3218,0.6730,15.44,69.13,38.38,-4.8259,3.6663,4.8070,7.7355
3,4,0,0,12.208,12208,-1.5500,9.8200,2.2500,10.1930,-0.4778,-0.3589,0.7832,11.13,73.06,42.69,-4.3942,4.4772,4.4701,7.7029
3,4,0,0,12.330,12330,-2.3300,9.9000,2.6200,10.5025,-0.0295,-0.5770,0.7047,6.94,75.19,50.75,-4.1222,5.1918,4.2263,7.8618
3,4,0,0,12.452,12452,-1.2100,8.9300,2.7000,9.4074,0.0207,-0.6403,0.3109,4.25,75.63,56.81,-3.7384,5.6844,4.0251,7.9050
3,4,0,0,12.573,12573,-1.8200,10.1600,2.0100,10.5156,-0.1080,-0.3992,-0.2149,5.06,76.31,57.56,-3.4856,6.2741,3.7596,8.1024
3,4,0,0,12.735,12735,-2.0700,9.8000,2.1800,10.2507,0.0164,0.0131,-0.0774,7.19,76.44,54.75,-3.2991,6.7388,3.5514,8.3011
3,4,0,0,12.861,12861,-1.6300,10.1300,2.6300,10.5920,0.0644,0.0196,-0.4080,7.75,76.38,52.81,-3.0791,7.1856,3.4300,8.5370
3,4,0,0,12.983,12983,-2.3900,8.9400,2.8600,9.6858,0.5661,-0.8138,-2.2657,18.25,74.06,44.00,-2.9883,7.4168,3.3549,8.6715
3,4,0,0,13.103,13103,-7.2500,8.0700,2.4000,11.1107,0.3643,-1.3057,-1.3341,33.38,72.69,37.44,-3.5499,7.5029,3.2291,8.9063
3,4,0,0,13.224,13224,-6.5100,7.7200,1.8700,10.2701,0.1680,-0.2989,-0.9665,40.25,73.63,35.44,-3.9400,7.5315,3.0500,9.0305
3,4,0,0,13.345,13345,-8.4300,5.5700,2.1900,10.3386,-0.1178,-0.0338,-2.3453,51.81,69.94,24.06,-4.5316,7.2730,2.9367,9.0585
3,4,0,0,13.466,13466,-9.1400,4.5800,1.5100,10.3342,0.1767,-0.0742,-1.8500,64.56,61.44,10.31,-5.1389,6.9182,2.7487,9.0457
3,4,0,0,13.587,13587,-7.2100,1.7500,1.5800,7.5857,0.3687,-0.7265,-2.1958,75.94,40.94,359.50,-5.4118,6.2371,2.5947,8.6557
3,4,0,0,13.749,13749,-10.5100,-1.2000,-0.7200,10.6028,0.1113,-1.5173,-1.5239,82.06,-113.19,345.69,-6.0836,5.2571,2.1579,8.3249
3,4,0,0,13.875,13875,-11.4700,-2.7700,-1.2100,11.8616,-0.4407,0.4581,-2.0857,68.81,-105.13,330.50,-6.7934,4.1993,1.7141,8.1684
3,4,0,0,13.996,13996,-8.2500,-3.8900,-0.7700,9.1536,-0.6720,1.5032,-1.6766,56.50,-83.63,317.81,-6.9854,3.1334,1.3867,7.7805
3,4,0,0,14.117,14117,-5.9600,-5.3700,1.5500,8.1707,-0.2411,1.4006,-1.2883,43.88,-71.69,311.13,-6.8502,2.0128,1.4083,7.2774
3,4,0,0,14.238,14238,-4.2500,-6.7800,2.8200,8.4843,-0.3567,0.8268,-1.3254,33.19,-67.13,305.88,-6.5076,0.8542,1.5943,6.7543
3,4,0,0,14.358,14358,-4.0900,-6.9400,2.9500,8.5787,-0.2771,0.0436,-1.2315,23.44,-65.88,297.38,-6.1890,-0.1729,1.7729,6.4403
3,4,0,0,14.479,14479,-2.0200,-7.6800,2.9900,8.4855,0.0796,-0.2814,-1.2130,16.94,-67.06,288.81,-5.6397,-1.1621,1.9333,6.0740
3,4,0,0,14.600,14600,-1.3000,-7.7000,3.1600,8.4241,-0.1942,-0.2553,-0.3622,12.19,-68.13,281.63,-5.0678,-2.0237,2.0950,5.8452
3,5,0,0,14.767,14767,-2.1600,-7.7300,3.6900,8.8337,-0.1244,0.2803,1.0036,16.25,-66.06,286.13,-4.6846,-2.7756,2.3051,5.9130
3,5,0,0,14.889,14889,-3.7400,-6.8700,3.2800,8.4819,-0.3469,0.4691,1.7791,24.25,-61.88,297.25,-4.5601,-3.3152,2.4336,6.1407
3,5,0,0,15.009,15009,-3.4000,-5.1300,4.5900,7.6776,-0.3414,0.4200,2.5504,34.88,-52.94,313.75,-4.4073,-3.5543,2.7178,6.2804
3,5,0,0,15.130,15130,-7.8200,-4.6400,4.5900,10.1858,-0.2749,-0.1233,2.3355,45.88,-42.63,328.13,-4.8570,-3.6974,2.9645,6.7859
3,5,0,0,15.251,15251,-8.3500,-1.7300,3.0900,9.0699,-1.0210,1.6722,2.6213,52.19,-16.81,345.19,-5.3173,-3.4381,2.9810,6.9986
3,5,0,0,15.372,15372,-3.4500,0.5500,7.4100,8.1923,-0.8628,1.6450,1.2992,40.19,3.31,355.19,-5.0712,-2.9126,3.5646,6.8489
3,5,0,0,15.495,15495,-4.3500,3.4300,7.2500,9.1241,-1.2806,-0.9283,1.3057,36.56,16.13,0.13,-4.9762,-2.0768,4.0503,6.7439
3,5,0,0,15.620,15620,-6.5900,6.4200,4.4900,10.2374,-1.0537,-1.5981,1.8446,40.63,35.69,10.38,-5.1888,-0.9571,4.1082,6.6871
3,5,0,0,15.782,15782,-4.5800,9.1000,2.7000,10.5393,-0.9905,-1.5490,2.3006,32.81,62.69,33.00,-5.1086,0.3681,3.9227,6.4514
3,5,0,0,15.903,15903,-6.3300,9.3000,1.7100,11.3791,-0.5531,-1.3788,1.1334,26.06,75.94,49.00,-5.2696,1.5451,3.6311,6.5833
3,5,0,0,16.024,16024,-4.9100,9.7000,1.5300,10.9790,-0.4407,-0.2443,1.1737,19.88,81.94,58.94,-5.2222,2.6197,3.3542,6.7368
3,5,0,0,16.146,16146,-4.1800,9.9000,1.6600,10.8737,-0.2694,0.4581,0.8803,12.38,84.50,64.75,-5.0848,3.5791,3.1310,6.9619
3,5,0,0,16.266,16266,-3.3400,9.7600,1.3600,10.4049,-0.0065,0.7232,0.2476,9.00,84.44,63.81,-4.8549,4.3936,2.8976,7.1603
3,5,0,0,16.387,16387,-0.5200,10.4100,0.5100,10.4354,0.2574,1.0625,0.0273,7.13,82.81,59.69,-4.2837,5.1864,2.5830,7.2056
3,5,0,0,16.509,16509,-1.2700,8.2100,1.7000,8.4798,0.5869,0.7636,-1.4563,11.63,78.38,48.13,-3.8866,5.5848,2.4666,7.2374
3,5,0,0,16.634,16634,-3.6000,8.6100,2.3300,9.6188,-0.0338,0.0873,-0.3556,17.50,75.56,39.81,-3.8488,5.9835,2.4486,7.5240
3,5,0,0,16.796,16796,-3.9400,9.7400,2.7700,10.8657,0.3491,-0.3698,-0.4123,18.88,75.75,40.81,-3.8608,6.4785,2.4910,7.9424
3,5,0,0,16.917,16917,-4.8400,7.8000,2.7700,9.5885,0.4571,-0.3196,-1.6973,26.94,72.50,35.81,-3.9898,6.6526,2.5277,8.1588
3,5,0,0,17.038,17038,-6.4000,7.4700,2.6600,10.1900,0.2203,-0.0316,-1.3035,37.06,69.25,27.00,-4.3074,6.7603,2.5452,8.4103
3,5,0,0,17.160,17160,-7.0900,7.5600,2.8100,10.7386,0.2073,0.4636,-0.9261,43.38,64.19,19.31,-4.6741,6.8657,2.5801,8.6972
3,5,0,0,17.286,17286,-5.7400,6.2500,3.5600,9.2024,0.2858,0.4091,-0.8879,46.56,56.50,13.00,-4.8146,6.7846,2.7092,8.7493
3,5,0,0,17.407,17407,-8.6400,3.0500,4.0100,10.0016,0.3054,-0.8879,-2.3889,57.56,46.56,4.50,-5.3187,6.2925,2.8806,8.7282
3,5,0,0,17.528,17528,-12.5100,2.7300,2.3800,13.0237,0.7821,0.5083,-1.5599,68.38,22.31,353.19,-6.2663,5.8230,2.8146,9.0053
3,5,0,0,17.649,17649,-5.0300,0.3000,4.5800,6.8094,0.8018,1.7486,0.7832,58.56,11.38,358.13,-6.1034,5.0952,3.0473,8.5146
3,5,0,0,17.813,17813,-9.1100,0.6900,4.2400,10.0720,0.1887,-0.2607,-1.8839,56.13,-3.19,351.19,-6.4996,4.5147,3.2044,8.5379
3,5,0,0,17.938,17938,-6.4600,-2.3900,4.9300,8.4705,0.6261,0.0033,-0.7243,54.50,-17.69,345.69,-6.4944,3.6049,3.4318,8.1822
3,5,0,0,18.060,18060,-9.0900,-2.1200,3.5700,9.9934,0.5618,-1.8697,-0.7636,59.25,-35.94,341.38,-6.8364,2.8505,3.4500,8.1709
3,5,0,0,18.181,18181,-10.9900,-5.4700,2.9600,12.6278,0.4385,-0.5247,-1.2261,60.88,-57.56,335.69,-7.3837,1.7540,3.3855,8.3101
3,5,0,0,18.301,18301,-7.6700,-4.9100,2.4800,9.4386,-0.4211,0.8890,-1.7322,51.25,-61.63,326.31,-7.4215,0.8759,3.2661,8.1555
3,5,0,0,18.422,18422,-5.4900,-5.7200,3.3300,8.5993,0.1680,0.5334,-1.6002,38.31,-61.25,316.69,-7.1669,0.0067,3.2746,7.8796
3,5,0,0,18.545,18545,-3.3200,-6.8000,2.7900,8.0651,0.4472,-0.5531,-0.4418,32.81,-65.69,310.75,-6.6600,-0.8902,3.2107,7.4469
3,5,0,0,18.666,18666,-4.3800,-8.2200,2.9400,9.7671,-0.1124,-0.6567,-0.9108,30.31,-71.00,303.94,-6.3596,-1.8561,3.1750,7.3464
3,5,0,0,18.832,18832,-4.2000,-6.6500,2.5500,8.2683,-0.3120,0.3840,0.8290,27.13,-69.50,298.88,-6.0750,-2.4878,3.0927,7.2567
3,6,0,0,18.953,18953,-4.6000,-6.8400,4.3200,9.3063,0.0055,0.6905,2.2875,37.19,-63.56,314.06,-5.8806,-3.0613,3.2544,7.3854
3,6,0,0,19.074,19074,-6.3800,-4.4200,2.9000,8.2856,-0.1462,0.5225,2.0137,48.00,-51.94,330.38,-5.9464,-3.2404,3.2077,7.4933
3,6,0,0,19.194,19194,-5.6100,-4.4000,3.7300,8.0464,-0.9032,-0.2793,1.5359,54.63,-40.00,340.19,-5.9021,-3.3932,3.2765,7.5554
3,6,0,0,19.315,19315,-9.3100,1.3300,2.3900,9.7035,-1.1672,-1.0439,1.8795,65.19,-16.06,346.13,-6.3512,-2.7708,3.1597,7.6157
3,6,0,0,19.437,19437,-9.0900,3.0700,1.3300,9.6862,-0.0044,-1.0832,1.7835,72.38,20.13,356.31,-6.7121,-2.0011,2.9186,7.5878
3,6,0,0,19.559,19559,-10.5000,2.9900,2.6700,11.2392,-0.2683,-0.5694,1.8424,69.56,58.63,10.19,-7.2112,-1.3434,2.8858,7.8826
3,6,0,0,19.684,19684,-8.7800,6.4600,1.4200,10.9926,-0.3622,0.1451,2.0562,57.81,73.25,21.25,-7.4180,-0.3151,2.6927,7.8978
3,6,0,0,19.846,19846,-7.5600,6.5700,2.2400,10.2633,0.1353,0.8061,1.2119,41.31,74.63,35.31,-7.4367,0.5922,2.6330,7.9112
3,6,0,0,19.967,19967,-6.0800,7.4400,3.5400,10.2397,-0.3174,0.8127,0.9785,32.81,72.56,38.13,-7.2579,1.4945,2.7525,7.9049
3,6,0,0,20.089,20089,-4.0600,9.4900,2.2600,10.5665,-0.1058,0.3687,0.3687,27.50,73.13,39.50,-6.8365,2.5481,2.6876,7.7752
3,6,0,0,20.210,20210,-4.6100,8.6700,2.2900,10.0829,0.3054,-0.0600,0.6283,24.50,72.06,42.06,-6.5431,3.3548,2.6352,7.8110
3,6,0,0,20.330,20330,-4.1600,8.4300,2.9400,9.8496,0.3491,0.8029,0.8018,18.88,69.69,46.31,-6.2291,4.0236,2.6754,7.8834
3,6,0,0,20.455,20455,-2.3300,9.3400,3.1900,10.1410,0.0349,1.0188,0.4538,12.19,67.56,46.63,-5.7153,4.7242,2.7432,7.9062
3,6,0,0,20.577,20577,-2.1000,7.8800,3.9800,9.0744,-0.0480,0.5629,-0.1080,9.38,65.88,44.13,-5.2389,5.1400,2.9062,7.8938
3,6,0,0,20.699,20699,-2.7400,8.8900,3.2100,9.8409,-0.3676,0.0000,-0.5978,11.25,67.44,39.75,-4.9096,5.6342,2.9462,8.0329
3,6,0,0,20.861,20861,-2.1700,9.0500,3.0600,9.7967,-0.1833,-0.3709,-0.3807,14.06,70.44,38.00,-4.5486,6.0843,2.9612,8.1533
3,6,0,0,20.982,20982,-3.5500,8.8900,3.3900,10.1551,0.1418,-0.6981,-0.9610,19.88,71.44,34.19,-4.4170,6.4540,3.0177,8.3828
3,6,0,0,21.120,21120,-6.0600,8.6700,3.5700,11.1641,0.7210,-0.4581,-1.0036,28.94,68.31,30.50,-4.6335,6.7460,3.0905,8.7481
3,6,0,0,21.240,21240,-6.1300,7.3100,3.8600,10.2914,0.5956,-0.0709,-1.6461,37.25,62.13,24.69,-4.8307,6.8203,3.1919,8.9466
3,6,0,0,21.361,21361,-7.6000,6.0200,3.6500,10.3597,0.4963,0.0720,-1.4792,46.69,52.81,15.00,-5.1956,6.7149,3.2523,9.0918
3,6,0,0,21.482,21482,-7.5300,4.8400,4.1700,9.8750,0.5247,0.1909,-1.0483,51.63,42.81,8.94,-5.5032,6.4678,3.3732,9.1377
3,6,0,0,21.603,21603,-8.7900,2.8400,5.4200,10.7101,0.6076,0.2629,-1.1159,54.69,29.31,3.44,-5.9363,5.9898,3.6429,9.1863
3,6,0,0,21.724,21724,-8.2500,1.7200,4.9500,9.7736,0.3392,0.2476,-1.2588,56.06,14.25,356.63,-6.2412,5.4271,3.8152,9.1083
3,6,0,0,21.891,21891,-7.1400,0.5900,4.9300,8.6967,1.0341,0.3567,-2.6551,54.31,-10.63,345.44,-6.3597,4.7897,3.9621,8.8929
3,6,0,0,22.013,22013,-9.0900,-5.4100,6.6500,12.4947,0.1134,1.3308,-1.7715,39.75,-36.06,328.25,-6.7194,3.4456,4.3163,8.6979
3,6,0,0,22.134,22134,-1.8900,-2.8100,4.9300,5.9811,0.8563,1.3112,0.6883,30.56,-35.06,332.88,-6.0831,2.6213,4.3971,7.9504
3,6,0,0,22.256,22256,-3.3500,-5.2300,6.6400,9.0920,0.2607,-0.2520,-0.9196,27.94,-38.81,334.19,-5.7229,1.5867,4.6927,7.5691
3,6,0,0,22.377,22377,-4.5600,-6.6500,5.6900,9.8687,0.9447,-1.5261,-0.8814,28.19,-46.56,326.31,-5.5697,0.5013,4.8241,7.3854
3,6,0,0,22.503,22503,-5.3300,-7.7600,3.6200,10.0862,0.7996,-1.5970,-0.5192,31.13,-60.06,318.56,-5.5381,-0.5873,4.6654,7.2651
3,7,0,0,22.625,22625,-5.6700,-8.1900,3.8900,10.6938,0.4200,-0.8029,-0.4832,31.25,-69.13,311.63,-5.5555,-1.5891,4.5633,7.3629
3,7,0,0,22.745,22745,-5.5900,-7.2800,2.0700,9.4091,0.0491,-0.3327,-0.0567,31.19,-71.75,308.69,-5.5600,-2.3391,4.2347,7.3701
3,7,0,0,22.908,22908,-4.5900,-7.4600,1.6000,8.9039,-0.1134,-0.1996,-0.2793,30.50,-74.06,305.63,-5.4322,-3.0139,3.8875,7.3284
3,7,0,0,23.028,23028,-5.1600,-6.2500,2.0600,8.3625,-0.3305,0.4145,1.0385,31.88,-71.13,307.00,-5.3963,-3.4403,3.6467,7.3658
3,7,0,0,23.149,23149,-4.9000,-6.3100,3.1400,8.5840,-0.2443,0.7221,2.4020,41.88,-62.31,321.44,-5.3309,-3.8185,3.5799,7.4710
3,7,0,0,23.270,23270,-5.9300,-3.2400,3.2700,7.5070,-0.3872,0.4494,2.2657,51.75,-46.31,336.69,-5.4099,-3.7422,3.5391,7.4697
3,7,0,0,23.396,23396,-8.6900,-0.7700,4.8800,9.9962,-0.2989,0.0044,3.1340,60.88,-18.94,354.50,-5.8421,-3.3506,3.7158,7.6918
3,7,0,0,23.518,23518,-8.7000,1.3700,4.5200,9.8994,-0.7189,-0.5847,1.4421,64.00,18.75,9.94,-6.2187,-2.7285,3.8218,7.7925
3,7,0,0,23.639,23639,-9.1200,4.1900,2.7500,10.4064,-0.7101,0.0262,1.2086,62.44,37.44,13.88,-6.6010,-1.8168,3.6805,7.7731
3,7,0,0,23.759,23759,-9.0300,5.9000,4.4100,11.6533,-0.3011,0.4309,1.9962,52.81,51.75,23.25,-6.9211,-0.8000,3.7767,7.9249
3,7,0,0,23.921,23921,-6.5500,6.6800,4.0800,10.2064,-0.2858,0.0589,0.9479,41.13,58.31,33.25,-6.8722,0.1857,3.8166,7.8631
3,7,0,0,24.042,24042,-5.7300,8.6200,2.9800,10.7712,-0.2040,-0.3578,1.4301,34.63,64.38,41.13,-6.7217,1.2971,3.7064,7.7847
3,7,0,0,24.167,24167,-3.8500,7.4800,3.1600,8.9866,0.7527,-0.4014,0.9425,27.75,66.06,52.19,-6.3433,2.1119,3.6344,7.6096
3,7,0,0,24.290,24290,-4.6100,7.3700,3.4200,9.3416,-0.0556,-1.0734,1.1345,24.81,66.00,61.69,-6.1149,2.8048,3.6061,7.6330
3,7,0,0,24.411,24411,-4.2500,9.5400,1.6700,10.5765,-0.1505,-1.2185,-0.0022,23.38,72.38,72.00,-5.8691,3.6923,3.3510,7.7012
3,7,0,0,24.531,24531,-5.5100,8.2600,1.5000,10.0418,0.2880,-0.7396,-0.2258,27.19,74.00,74.75,-5.8218,4.2942,3.1071,7.8732
3,7,0,0,24.653,24653,-5.1300,7.2500,2.0100,9.1060,-0.1778,-0.1484,0.3272,26.81,75.19,78.13,-5.7306,4.6837,2.9625,7.9721
3,7,0,0,24.773,24773,-5.5000,9.7700,1.7600,11.3490,-0.3120,0.4778,0.0600,25.31,76.75,77.69,-5.7002,5.3539,2.8041,8.3078
3,7,0,0,24.936,24936,-4.1600,7.8800,2.0800,9.1502,-0.3305,0.8476,-0.3436,25.06,75.56,69.06,-5.4973,5.6868,2.7086,8.3604
3,7,0,0,25.060,25060,-5.1600,9.1400,2.0800,10.7001,-0.5727,0.8029,-0.1538,25.75,75.94,61.13,-5.4528,6.1419,2.6258,8.6227
3,7,0,0,25.181,25181,-4.9300,9.5300,1.5000,10.8340,-0.3065,0.9719,-0.6240,26.13,76.25,53.19,-5.3839,6.5883,2.4775,8.8618
3,7,0,0,25.303,25303,-5.7700,8.3400,2.7400,10.5051,-0.1396,1.1039,-1.1945,31.00,72.44,39.88,-5.4348,6.8192,2.5120,9.0746
3,7,0,0,25.424,25424,-5.7200,8.6400,3.0100,10.7902,0.2967,0.9948,-1.5599,37.31,65.44,26.25,-5.4724,7.0591,2.5777,9.2964
3,7,0,0,25.546,25546,-6.9800,6.0600,4.3100,10.1990,0.8203,0.5072,-1.5915,44.44,52.44,14.69,-5.6711,6.9274,2.8059,9.3821
3,7,0,0,25.667,25667,-7.4800,4.5600,4.6700,9.9274,0.3763,0.0436,-1.0581,48.94,41.81,8.69,-5.9094,6.6155,3.0516,9.3807
3,7,0,0,25.787,25787,-8.3600,3.7800,4.3100,10.1368,0.2945,0.1189,-2.0529,54.88,28.06,358.50,-6.2324,6.2418,3.2174,9.3891
3,7,0,0,25.954,25954,-8.6700,1.2900,4.1600,9.7025,0.6076,0.3011,-1.5293,57.25,-0.44,345.75,-6.5536,5.5893,3.3416,9.2388
3,7,0,0,26.076,26076,-7.1800,-1.2400,5.0000,8.8369,0.5629,0.2531,-1.8261,52.38,-22.38,335.94,-6.6361,4.6894,3.5601,8.8715
3,7,0,0,26.198,26198,-5.7900,-3.2800,5.0700,8.3658,0.7930,0.1287,-1.6537,46.25,-36.56,327.44,-6.5246,3.6392,3.7591,8.3633
3,7,0,0,26.319,26319,-5.2200,-4.9800,3.8500,8.1775,0.5770,-0.5749,-1.3014,40.88,-49.06,319.69,-6.3527,2.5034,3.7711,7.8003
3,7,0,0,26.439,26439,-5.7300,-6.7000,3.0500,9.3287,0.4047,-0.9370,-1.0472,37.44,-60.13,310.56,-6.2706,1.2906,3.6761,7.3824
3,7,0,0,26.561,26561,-5.4600,-7.0800,2.9000,9.3994,0.1920,-0.2825,-1.2599,31.69,-67.50,300.81,-6.1638,0.1876,3.5738,7.1274
3,7,0,0,26.681,26681,-3.6600,-7.9300,2.7700,9.1626,-0.2291,0.2182,-0.3992,26.44,-68.00,295.25,-5.8339,-0.8821,3.4679,6.8439
3,7,0,0,26.807,26807,-3.4300,-8.0200,3.7800,9.5065,-0.1244,0.3109,0.5269,27.06,-65.81,297.56,-5.5171,-1.8227,3.5090,6.7878
3,7,0,0,26.970,26970,-3.7600,-6.4300,3.3900,8.1838,-0.2913,0.3065,1.1617,33.00,-59.50,307.00,-5.2856,-2.4298,3.4933,6.7856
3,8,0,0,27.090,27090,-4.4700,-5.3900,3.6200,7.8827,-0.4920,-0.0055,1.4759,39.88,-52.81,316.25,-5.1781,-2.8199,3.5100,6.8618
3,8,0,0,27.211,27211,-6.5000,-2.7000,3.6000,7.9057,-0.6294,0.0295,2.7522,50.81,-37.31,329.13,-5.3523,-2.8041,3.5219,6.9938
3,8,0,0,27.332,27332,-9.0500,-0.6900,5.3600,10.5408,-0.5989,-0.0665,2.1577,57.94,-14.69,342.75,-5.8396,-2.5255,3.7641,7.3924
3,8,0,0,27.453,27453,-7.1400,2.1900,4.4400,8.6885,-0.7789,-0.1571,2.0998,58.44,15.06,354.69,-6.0109,-1.9041,3.8532,7.3894
3,8,0,0,27.576,27576,-8.6000,4.8600,4.5000,10.8549,-0.6120,-0.3316,2.1151,54.19,38.56,6.00,-6.3521,-1.0128,3.9384,7.5423
3,8,0,0,27.697,27697,-7.5000,6.6100,3.7400,10.6738,-0.2618,-0.3469,1.7562,45.75,54.56,19.38,-6.5034,-0.0083,3.9123,7.5894
3,8,0,0,27.821,27821,-6.2800,7.2600,3.4600,10.2038,-0.2498,-0.4407,1.3145,37.94,63.88,30.88,-6.4739,0.9495,3.8527,7.5932
3,8,0,0,27.984,27984,-5.9500,8.3100,2.6600,10.5610,-0.0993,-0.3938,1.2315,29.69,70.88,43.44,-6.4049,1.9194,3.6955,7.6396
3,8,0,0,28.105,28105,-4.4100,8.3900,2.5900,9.8259,-0.0262,-0.0109,0.9196,23.38,72.81,51.25,-6.1420,2.7721,3.5498,7.6164
3,8,0,0,28.226,28226,-3.7600,9.2000,2.5700,10.2656,-0.2793,0.1287,0.8770,17.44,74.56,55.94,-5.8281,3.6191,3.4207,7.6659
3,8,0,0,28.348,28348,-3.6800,9.4600,2.3400,10.4168,0.1484,-0.0567,0.2585,13.63,75.31,58.06,-5.5451,4.3888,3.2783,7.7946
3,8,0,0,28.473,28473,-3.6300,8.0600,2.2300,9.1167,0.1418,0.0513,-0.2771,14.56,74.19,57.75,-5.2927,4.8726,3.1402,7.8495
3,8,0,0,28.594,28594,-3.7500,9.1600,2.0200,10.1019,-0.2389,0.4527,-0.4472,16.88,73.94,52.06,-5.0894,5.4375,2.9925,8.0265
3,8,0,0,28.715,28715,-4.0400,9.3400,2.7200,10.5335,0.0949,0.6327,-0.7679,19.81,73.00,44.44,-4.9511,5.9518,2.9566,8.2873
3,8,0,0,28.837,28837,-4.6700,9.0300,3.2300,10.6669,0.0065,0.5356,-1.0886,24.25,70.19,35.63,-4.9141,6.3574,2.9927,8.5744
3,8,0,0,28.999,28999,-6.3000,8.1500,3.6900,10.9421,0.4265,0.1756,-1.5490,34.38,64.13,22.75,-5.0967,6.5936,3.0845,8.8863
3,8,0,0,29.121,29121,-7.2400,5.8600,3.8200,10.0673,0.3305,0.1953,-2.1086,44.50,55.44,11.56,-5.3791,6.4970,3.1815,9.0148
3,8,0,0,29.242,29242,-7.8100,4.9800,3.7500,9.9929,0.3000,0.4549,-1.8675,53.13,41.31,358.25,-5.6995,6.2971,3.2564,9.0962
3,8,0,0,29.366,29366,-7.2300,2.6700,5.0100,9.1925,0.7810,0.2662,-1.3854,56.69,21.31,349.00,-5.9012,5.8191,3.4875,8.9915
3,8,0,0,29.488,29488,-8.0300,0.2900,5.0800,9.5064,0.8847,-0.1942,-1.4039,58.94,0.94,342.63,-6.1817,5.0905,3.6973,8.8202
3,8,0,0,29.608,29608,-8.3200,-1.8400,3.8700,9.3587,0.7483,-0.2171,-1.2032,58.81,-19.94,336.44,-6.4635,4.1772,3.7201,8.5478
3,8,0,0,29.729,29729,-7.3700,-3.6300,3.3600,8.8760,0.6818,-0.4636,-1.1552,57.06,-37.44,330.88,-6.5829,3.1485,3.6726,8.1692
3,8,0,0,29.850,29850,-9.5500,-4.8200,3.5500,11.2711,0.0731,-0.3382,-1.0265,54.25,-50.81,325.13,-6.9739,2.0984,3.6565,8.1491
3,8,0,0,30.013,30013,-6.7400,-5.8900,3.5400,9.6256,-0.0131,0.7549,-1.8915,42.31,-57.25,315.25,-6.9431,1.0457,3.6411,7.9093
3,8,0,0,30.139,30139,-4.2300,-5.7200,3.8300,8.0796,0.0371,0.4385,-1.0712,31.88,-58.00,308.00,-6.5856,0.1542,3.6660,7.5388
3,8,0,0,30.260,30260,-3.8800,-7.5200,4.5800,9.6219,0.3338,-0.1593,-0.5825,26.19,-61.06,303.75,-6.2290,-0.8571,3.7864,7.3398
3,8,0,0,30.381,30381,-2.9000,-8.2900,3.7500,9.5497,0.0873,-0.6076,-0.9348,22.50,-65.50,297.31,-5.7904,-1.8365,3.7816,7.1556
3,8,0,0,30.501,30501,-2.9100,-6.9500,2.6500,7.9871,-0.1004,-0.3011,0.1320,20.81,-67.56,292.06,-5.4108,-2.5104,3.6325,6.9838
3,8,0,0,30.622,30622,-3.2200,-6.4300,3.1100,7.8349,-0.1364,0.0742,1.7311,26.75,-66.31,298.13,-5.1221,-3.0269,3.5637,6.9352
3,9,0,0,30.744,30744,-6.4900,-5.8700,2.9700,9.2411,0.0480,0.2389,2.2329,38.94,-61.75,312.88,-5.3024,-3.4015,3.4854,7.1996
3,9,0,0,30.864,30864,-7.1500,-5.5500,2.4400,9.3744,-0.1200,0.2738,1.7301,49.63,-53.25,327.31,-5.5458,-3.6846,3.3477,7.4525
3,9,0,0,31.032,31032,-6.6600,-2.2200,3.8500,8.0067,-1.0221,0.4669,1.5915,55.19,-28.88,337.88,-5.6927,-3.4916,3.4139,7.5002
3,9,0,0,31.153,31153,-8.6200,0.5800,4.9400,9.9521,-0.7014,-0.1822,2.1511,58.75,-2.69,348.44,-6.0784,-2.9551,3.6150,7.6647
3,9,0,0,31.273,31273,-7.7100,1.2200,4.6200,9.0707,-0.4680,-0.2422,1.1006,58.75,17.75,356.63,-6.2934,-2.4049,3.7474,7.7093
3,9,0,0,31.394,31394,-9.6100,4.3900,4.6900,11.5594,-0.8978,0.1767,2.0289,54.50,36.50,4.50,-6.7304,-1.5095,3.8716,7.9099
3,9,0,0,31.515,31515,-6.2600,6.1400,4.1400,9.6967,-0.5618,0.2803,1.2632,45.13,48.75,12.63,-6.6685,-0.5015,3.9070,7.7450
3,9,0,0,31.636,31636,-6.3900,7.1200,4.7300,10.6724,-0.5509,-0.1560,1.7519,37.00,57.38,20.94,-6.6318,0.5028,4.0154,7.7690
3,9,0,0,31.758,31758,-4.9000,9.3000,3.3600,11.0358,-0.2051,-0.0774,1.3188,28.50,63.81,30.50,-6.4036,1.6621,3.9291,7.6945
3,9,0,0,31.878,31878,-3.6200,7.4900,4.0400,9.2480,-0.0644,-0.3665,1.3254,21.19,66.25,39.94,-6.0368,2.4300,3.9437,7.6092
3,9,0,0,32.045,32045,-3.6800,9.6000,2.5900,10.6024,-0.1014,-0.6469,0.8094,14.19,71.31,52.75,-5.7262,3.3748,3.7653,7.6391
3,9,0,0,32.166,32166,-2.6100,8.7700,2.8300,9.5778,0.2749,-0.5280,0.3698,11.81,71.00,59.25,-5.3156,4.0858,3.6421,7.6298
3,9,0,0,32.287,32287,-3.4500,8.5500,2.7300,9.6155,-0.2040,-0.2280,-0.0807,11.94,71.50,60.56,-5.0697,4.6741,3.5219,7.7429
3,9,0,0,32.409,32409,-3.8400,9.3100,2.6800,10.4213,-0.1614,0.2760,-0.3774,13.31,72.94,57.13,-4.9077,5.2850,3.4109,7.9781
3,9,0,0,32.529,32529,-4.3800,8.4500,3.3500,10.0901,0.1462,0.5738,-1.6646,19.50,71.13,46.63,-4.8381,5.7020,3.4029,8.2159
3,9,0,0,32.650,32650,-5.5500,8.2500,3.1100,10.4181,-0.0829,0.6163,-1.3003,28.44,67.56,32.56,-4.9320,6.0378,3.3643,8.4910
3,9,0,0,32.772,32772,-3.5500,9.0500,3.3800,10.2922,0.4363,0.1102,-1.2370,33.88,63.25,23.69,-4.7498,6.4347,3.3664,8.6775
3,9,0,0,32.898,32898,-5.5000,4.2900,2.6800,7.4724,0.6436,-2.6824,-1.9711,49.31,60.13,18.50,-4.8487,6.1521,3.2759,8.4906
3,9,0,0,33.060,33060,-11.5700,1.5500,-1.0000,11.7161,0.4069,-2.3267,-1.8261,71.75,109.06,17.31,-5.7344,5.5457,2.7125,8.4259
3,9,0,0,33.181,33181,-11.4900,0.4600,-2.2300,11.7134,-0.5661,0.1593,-1.7421,77.50,156.88,5.69,-6.4928,4.8755,2.0612,8.3771
3,9,0,0,33.302,33302,-10.8300,-1.0200,-1.8500,11.0341,-0.8247,1.2163,-1.1956,81.75,-141.19,350.63,-7.0644,4.0986,1.5458,8.3122
3,9,0,0,33.423,33423,-12.0600,-1.0100,-0.6100,12.1176,-1.0341,2.8842,-0.9185,75.25,-58.31,338.94,-7.7227,3.4254,1.2617,8.5420
3,9,0,0,33.550,33550,-6.4100,-1.0300,1.9400,6.7759,0.1102,4.1964,0.3076,53.44,-22.75,339.31,-7.5497,2.8383,1.3511,8.1780
3,9,0,0,33.671,33671,1.4500,-1.4700,7.6800,7.9527,-0.0949,0.7669,0.3556,36.06,-13.06,347.69,-6.3638,2.2706,2.1851,7.1012
3,10,0,0,33.792,33792,-8.3000,-1.6800,4.7600,9.7144,0.4385,-2.9507,-1.1977,45.69,-20.81,341.44,-6.6189,1.7500,2.5244,7.2969
3,10,0,0,33.913,33913,-10.1400,-4.4200,3.4200,11.5781,0.7374,-1.4933,-0.6752,55.94,-42.38,334.88,-7.0829,0.9370,2.6424,7.6176
3,10,0,0,34.079,34079,-7.6300,-4.9900,2.7700,9.5284,0.0305,-0.0916,-1.1105,54.69,-55.13,330.25,-7.1550,0.1559,2.6592,7.6348
3,10,0,0,34.203,34203,-7.5900,-4.8500,3.2900,9.5893,-0.4494,0.2585,-0.8094,47.50,-57.25,321.44,-7.2123,-0.5037,2.7423,7.7325
3,10,0,0,34.324,34324,-6.9300,-6.2500,3.9500,10.1336,0.2007,0.1025,-0.9021,42.44,-58.56,317.25,-7.1751,-1.2609,2.9015,7.8416
3,10,0,0,34.445,34445,-4.5900,-6.2600,2.9100,8.2900,-0.1254,-0.2574,-1.6875,34.50,-63.31,307.56,-6.8345,-1.9197,2.9026,7.6694
3,10,0,0,34.565,34565,-4.0000,-6.4000,2.9400,8.0996,-0.3022,-0.1865,0.1734,30.63,-64.63,300.69,-6.4609,-2.5101,2.9075,7.5165
3,10,0,0,34.687,34687,-6.1000,-7.1400,3.9900,10.2034,0.1854,0.1680,1.4803,36.50,-62.31,307.63,-6.4134,-3.1202,3.0502,7.7570
3,10,0,0,34.808,34808,-5.3700,-5.8000,4.1300,8.9182,-0.2203,0.2694,1.1290,43.81,-57.13,317.38,-6.2759,-3.4733,3.1925,7.8513
3,10,0,0,34.934,34934,-6.9800,-3.8900,3.2400,8.6227,-0.1320,0.4887,1.8326,49.69,-47.13,327.00,-6.3687,-3.5282,3.1987,7.9524
3,10,0,0,35.096,35096,-8.2800,-1.7900,3.7600,9.2682,-0.6327,0.2203,2.4227,58.00,-19.25,346.75,-6.6205,-3.2992,3.2727,8.0887
3,10,0,0,35.217,35217,-6.2800,1.9700,4.3500,7.8893,-0.8018,0.0567,2.6518,57.56,15.31,1.94,-6.5757,-2.6048,3.4147,7.8539
3,10,0,0,35.338,35338,-7.8000,4.2600,4.4400,9.9348,-0.5705,-0.2923,1.7159,51.94,38.63,13.50,-6.7370,-1.7002,3.5498,7.8025
3,10,0,0,35.459,35459,-7.9700,6.2700,4.7200,11.1854,-0.5378,-0.2793,1.4977,46.00,52.50,22.94,-6.8995,-0.6499,3.7040,7.8578
3,10,0,0,35.581,35581,-6.2900,7.0800,3.9200,10.2497,-0.3022,-0.3076,1.8228,37.75,61.75,33.44,-6.8192,0.3687,3.7324,7.7825
3,10,0,0,35.708,35708,-4.5800,8.8100,2.7300,10.2978,-0.3109,-0.7199,1.1748,29.25,69.75,46.25,-6.5241,1.4810,3.6003,7.5974
3,10,0,0,35.829,35829,-5.4600,9.6000,2.3500,11.2913,0.1691,-0.2018,0.6938,25.94,72.13,53.13,-6.3839,2.5509,3.4356,7.6853
3,10,0,0,35.949,35949,-3.6800,8.2300,2.6000,9.3827,-0.1756,0.1636,1.0603,19.88,72.69,59.56,-6.0276,3.2993,3.3255,7.6338
3,10,0,0,36.112,36112,-2.8400,10.1200,2.0600,10.7109,-0.1636,0.2247,0.4920,11.75,75.56,65.13,-5.6075,4.1981,3.1587,7.6841
3,10,0,0,36.233,36233,-2.4100,9.0600,2.7700,9.7757,0.1636,0.0153,0.3153,9.13,75.19,67.25,-5.1862,4.8387,3.1075,7.7438
3,10,0,0,36.354,36354,-2.0600,9.2400,2.7300,9.8526,0.1931,-0.1342,-0.1636,9.19,73.88,66.44,-4.7742,5.4187,3.0577,7.8425
3,10,0,0,36.477,36477,-2.0100,9.4200,2.6800,9.9979,0.0851,-0.1582,-0.3447,11.56,72.94,63.56,-4.4100,5.9460,3.0080,7.9906
3,10,0,0,36.601,36601,-2.9500,8.4300,2.0400,9.1613,-0.0567,-0.0709,-0.1113,13.56,73.00,61.63,-4.2176,6.2733,2.8804,8.0895
3,10,0,0,36.722,36722,-3.2200,8.5700,2.1900,9.4133,-0.2225,0.0665,-0.3447,14.63,73.75,60.00,-4.0861,6.5760,2.7894,8.2293
3,10,0,0,36.843,36843,-4.5300,9.2400,2.3500,10.5556,-0.2367,0.2662,-1.0799,19.69,74.81,52.94,-4.1446,6.9270,2.7315,8.5219
3,10,0,0,36.963,36963,-4.9400,8.8000,2.2100,10.3309,-0.1844,0.3338,-0.9828,25.75,74.44,44.13,-4.2494,7.1738,2.6628,8.7528
3,10,0,0,37.126,37126,-5.4400,8.4700,2.3000,10.3259,-0.0665,-0.1069,-1.0974,33.63,73.56,34.19,-4.4063,7.3446,2.6150,8.9553
3,10,0,0,37.246,37246,-7.5600,7.6800,2.4900,11.0606,-0.1756,-0.1320,-1.8261,43.31,73.06,25.50,-4.8219,7.3888,2.5985,9.1977
3,10,0,0,37.367,37367,-9.1200,5.8100,2.1800,11.0310,0.1004,0.7003,-2.5264,57.19,64.50,8.94,-5.3883,7.1808,2.5434,9.3309
3,10,0,0,37.493,37493,-8.1800,3.1500,2.9700,9.2550,0.7592,0.9512,-2.0082,65.19,34.38,354.50,-5.7562,6.6496,2.5996,9.1711
3,10,0,0,37.615,37615,-7.8000,1.0100,3.6700,8.6792,0.2400,0.2683,-1.2665,64.44,3.50,344.81,-6.0255,5.9065,2.7406,8.8715
3,10,0,0,37.735,37735,-8.5600,-0.4600,3.3900,9.2183,0.4265,-0.0905,-1.4104,63.19,-17.50,337.75,-6.3595,5.0675,2.8262,8.6087
3,10,0,0,37.857,37857,-8.9600,-2.5600,3.2500,9.8690,0.2869,-0.0600,-1.1912,60.19,-34.88,332.50,-6.7021,4.0624,2.8821,8.3503
3,10,0,0,37.977,37977,-8.1200,-3.7800,3.7500,9.7101,0.1538,0.2356,-1.3723,54.19,-45.38,326.13,-6.8890,3.0290,2.9964,8.1001
3,10,0,0,38.140,38140,-5.5100,-4.8100,3.7100,8.2012,0.3174,0.0425,-2.0977,41.06,-56.81,313.25,-6.7073,1.9960,3.0905,7.6500
