participant,rep,equipment_code,exercise_code,timestamp,timestamp_ms,accelX,accelY,accelZ,accelMag,gyroX,gyroY,gyroZ,roll,pitch,yaw,filteredX,filteredY,filteredZ,filteredMag
3,1,0,0,00.000,0,-2.7200,9.3800,0.9700,9.8145,-0.0164,-0.0011,-0.0120,15.81,84.25,1.94,-2.6178,9.4072,0.9414,9.8099
3,1,0,0,00.122,122,-2.6800,9.3900,0.9200,9.8082,0.0098,-0.0055,-0.0338,15.94,84.25,1.88,-2.6260,9.4049,0.9385,9.8096
3,1,0,0,00.243,243,-2.7500,9.3700,0.9800,9.8143,0.0164,-0.0284,0.0011,16.13,84.19,1.94,-2.6423,9.4003,0.9440,9.8101
3,1,0,0,00.369,369,-2.7400,9.4300,0.9500,9.8659,-0.0055,-0.0164,0.0055,16.13,84.25,2.31,-2.6552,9.4042,0.9448,9.8174
3,1,0,0,00.491,491,-2.7400,9.4000,0.9600,9.8381,0.0000,0.0153,-0.0098,16.13,84.25,2.31,-2.6664,9.4037,0.9468,9.8201
3,1,0,0,00.653,653,-2.7200,9.3500,0.9700,9.7858,-0.0011,-0.0065,0.0011,16.06,84.19,2.25,-2.6734,9.3966,0.9499,9.8156
3,1,0,0,00.774,774,-2.7500,9.3500,0.9700,9.7942,0.0098,-0.0055,-0.0098,16.13,84.19,2.19,-2.6835,9.3905,0.9525,9.8127
3,1,0,0,00.895,895,-2.7600,9.3900,0.9600,9.8342,0.0044,0.0022,-0.0142,16.19,84.19,2.13,-2.6936,9.3904,0.9535,9.8155
3,1,0,0,01.021,1021,-2.7300,9.3700,1.0000,9.8107,0.0295,-0.0284,0.0164,16.19,84.13,2.19,-2.6984,9.3877,0.9596,9.8148
3,1,0,0,01.157,1157,-2.8700,9.4100,0.9800,9.8866,0.0142,-0.0327,-0.0164,16.31,84.00,2.44,-2.7210,9.3906,0.9623,9.8242
3,1,0,0,01.282,1282,-2.7600,9.3000,1.0300,9.7554,-0.0076,0.0011,-0.0513,16.50,84.00,2.31,-2.7261,9.3787,0.9712,9.8150
3,1,0,0,01.404,1404,-2.7400,9.5900,1.1600,10.0410,0.0262,0.0382,0.1200,16.25,83.94,2.50,-2.7280,9.4065,0.9961,9.8446
3,1,0,0,01.524,1524,-1.7700,10.0500,1.4900,10.3129,0.0654,-0.0076,0.4778,14.19,83.69,4.44,-2.6017,9.4913,1.0612,9.8985
3,1,0,0,01.687,1687,-0.8800,10.2300,1.4100,10.3641,0.5007,-0.2094,0.8312,7.38,81.44,12.69,-2.3749,9.5887,1.1072,9.9402
3,1,0,0,01.808,1808,-0.5300,10.1500,2.1200,10.3826,0.7069,-0.3207,0.6425,3.00,77.44,19.31,-2.1317,9.6626,1.2406,9.9725
3,1,0,0,01.934,1934,0.0200,9.4800,2.7800,9.8792,0.4996,-0.2389,1.0450,-1.75,73.31,26.00,-1.8482,9.6386,1.4435,9.9198
3,1,0,0,02.055,2055,1.3600,9.2800,3.1000,9.8782,0.2727,-0.0393,0.9545,-8.88,70.38,33.56,-1.4254,9.5913,1.6618,9.8380
3,1,0,0,02.176,2176,2.1400,9.6800,3.4500,10.4969,0.2956,0.0055,0.9697,-14.31,68.25,38.06,-0.9556,9.6030,1.8974,9.8352
3,1,0,0,02.296,2296,3.9500,8.7300,4.1300,10.4342,0.4429,-0.2880,1.3984,-21.56,64.25,45.88,-0.3092,9.4880,2.1916,9.7427
3,1,0,0,02.418,2418,4.1800,8.9700,4.8300,11.0119,0.4996,-0.4658,1.2599,-27.75,58.31,55.25,0.2824,9.4197,2.5393,9.7601
3,1,0,0,02.538,2538,5.3800,6.7600,5.4300,10.2043,0.8607,-0.5345,2.0082,-35.25,47.63,66.50,0.9541,9.0692,2.9202,9.5754
3,1,0,0,02.702,2702,5.3700,3.7500,6.2500,9.0533,1.2872,-0.7549,2.1402,-41.06,24.06,82.44,1.5360,8.3683,3.3590,9.1472
3,1,0,0,02.827,2827,4.8000,0.9400,7.1100,8.6299,1.0701,-0.5400,1.3559,-39.69,5.06,92.06,1.9661,7.3894,3.8533,8.5625
3,1,0,0,02.948,2948,4.8500,-1.7600,7.6800,9.2522,0.8236,-0.3033,1.9275,-36.25,-11.44,101.94,2.3461,6.1838,4.3575,7.9203
3,1,0,0,03.069,3069,3.0400,-2.8500,5.5400,6.9322,1.1497,-0.2313,1.4355,-31.63,-24.44,110.13,2.4376,4.9934,4.5134,7.1586
3,1,0,0,03.190,3190,2.7700,-6.5700,6.4800,9.6347,0.8356,-0.3894,0.6381,-25.31,-35.88,116.00,2.4814,3.4696,4.7725,6.4010
3,1,0,0,03.311,3311,1.2800,-5.8200,5.9700,8.4351,-0.3316,0.3142,-0.9425,-26.44,-35.81,113.31,2.3231,2.2455,4.9303,5.8946
3,2,0,0,03.433,3433,4.3000,-3.8300,7.1900,9.2117,-0.6010,0.7963,-1.1999,-34.25,-29.25,108.00,2.5836,1.4449,5.2281,6.0079
3,2,0,0,03.554,3554,6.6600,-2.4600,7.2900,10.1760,-0.1265,0.6970,-1.7573,-42.31,-21.13,100.88,3.1207,0.9303,5.4998,6.3916
3,2,0,0,03.717,3717,6.9900,0.1500,6.0400,9.2393,-0.3262,1.0581,-1.9166,-54.06,-0.06,82.81,3.6306,0.8275,5.5710,6.7009
3,2,0,0,03.840,3840,7.3200,0.7000,4.8400,8.8033,-0.4189,1.5261,-0.3665,-62.63,16.06,76.56,4.1168,0.8107,5.4746,6.8976
3,2,0,0,03.961,3961,8.1800,2.3500,2.6500,8.9139,-0.7810,1.3701,-1.3919,-68.31,42.63,72.19,4.6522,1.0135,5.1024,6.9789
3,2,0,0,04.082,4082,7.2200,4.9300,0.1900,8.7447,-0.6447,0.9523,-1.6482,-63.06,75.56,62.88,4.9906,1.5296,4.4551,6.8625
3,2,0,0,04.204,4204,8.3600,7.4400,0.3600,11.1970,-0.2738,0.2683,-2.0508,-52.38,87.50,52.50,5.4346,2.3085,3.9155,7.0848
3,2,0,0,04.324,4324,3.6400,8.0900,-0.0700,8.8714,-0.0120,0.3131,-2.9932,-34.25,89.50,33.44,5.1981,3.0703,3.3903,6.9240
3,2,0,0,04.450,4450,3.0700,10.5300,0.1900,10.9700,-0.4909,0.5890,-1.4203,-19.56,93.13,16.75,4.9177,4.0533,2.9686,7.0303
3,2,0,0,04.572,4572,2.4900,11.3800,-1.0200,11.6938,-0.2007,0.5945,-1.2239,-11.38,96.88,5.31,4.5978,5.0188,2.4430,7.2316
3,2,0,0,04.735,4735,0.7300,10.2700,-0.9100,10.3360,0.2596,0.3262,-1.2566,-0.56,96.00,350.56,4.0881,5.7108,2.0011,7.3027
3,2,0,0,04.855,4855,-1.0200,9.3900,-1.1900,9.5199,-0.0338,0.3600,-0.5312,6.19,95.13,341.81,3.4150,6.1956,1.5806,7.2488
3,2,0,0,04.976,4976,-0.4400,10.0500,-1.2200,10.1333,-0.0360,0.2891,-0.1244,7.06,95.56,339.19,2.9070,6.7035,1.2116,7.4064
3,2,0,0,05.098,5098,-1.4300,9.7200,-0.8900,9.8649,0.0862,0.0305,-0.3971,8.63,95.25,336.63,2.3355,7.1010,0.9346,7.5334
3,2,0,0,05.219,5219,-1.7200,9.5200,-0.8500,9.7114,0.0480,-0.1342,-0.1669,10.25,94.94,336.63,1.8011,7.4198,0.6995,7.6672
3,2,0,0,05.345,5345,-1.7700,9.9200,-0.8600,10.1133,0.0022,-0.1385,-0.0633,11.13,95.06,337.13,1.3305,7.7492,0.4940,7.8781
3,2,0,0,05.466,5466,-0.6100,10.4800,-0.8900,10.5354,0.1625,-0.2214,0.4123,9.56,94.81,340.25,1.0748,8.1091,0.3116,8.1859
3,2,0,0,05.587,5587,-0.2400,11.1000,-0.9600,11.1440,0.7843,-1.0996,0.5901,5.31,92.31,349.63,0.9015,8.5032,0.1440,8.5521
3,2,0,0,05.748,5748,-0.3800,9.6100,1.2800,9.7023,1.0527,-1.5577,0.5901,0.00,82.69,9.00,0.7327,8.6491,0.2937,8.6850
3,2,0,0,05.869,5869,-0.4100,10.2900,2.0500,10.5002,0.4592,-0.9196,1.1290,-3.75,77.88,21.19,0.5821,8.8653,0.5252,8.8999
3,2,0,0,05.990,5990,1.7400,9.7800,2.7400,10.3045,0.6087,-0.0982,1.6057,-13.00,73.75,33.44,0.7347,8.9858,0.8170,9.0527
3,2,0,0,06.112,6112,3.0300,8.6900,3.5100,9.8497,0.6436,0.6076,1.3515,-22.31,69.00,39.81,1.0371,8.9468,1.1719,9.0827
3,2,0,0,06.238,6238,5.6400,7.4800,3.1700,9.8898,0.1636,0.3436,1.9766,-34.38,65.75,48.38,1.6437,8.7535,1.4352,9.0214
3,2,0,0,06.359,6359,6.6000,7.1900,3.1800,10.2649,0.1374,-0.4658,1.1596,-44.00,60.19,59.69,2.2968,8.5475,1.6651,9.0060
3,2,0,0,06.479,6479,6.6600,5.3400,4.0800,9.4614,0.4909,-0.7276,1.7355,-49.31,48.00,69.50,2.8718,8.1248,1.9833,8.8427
3,2,0,0,06.600,6600,7.5000,4.1300,5.3800,10.1119,0.3392,-0.6469,1.3483,-52.19,32.25,79.69,3.4816,7.5984,2.4309,8.7044
3,2,0,0,06.762,6762,7.2400,1.3900,5.9700,9.4863,0.7058,-0.5018,2.3213,-52.69,4.50,93.69,3.9769,6.7803,2.8973,8.3775
3,2,0,0,06.884,6884,5.3000,-1.1100,5.2800,7.5631,0.9207,-0.3392,2.3126,-48.13,-18.06,105.56,4.1512,5.7406,3.2113,7.7781
3,2,0,0,07.010,7010,4.1400,-4.6500,5.1500,8.0799,0.5869,-0.2465,1.5152,-40.19,-34.94,115.88,4.1498,4.3714,3.4667,6.9532
3,2,0,0,07.132,7132,3.4800,-5.6400,5.6400,8.7023,0.1364,0.1669,0.1887,-36.31,-40.75,120.69,4.0615,3.0521,3.7531,6.3164
3,2,0,0,07.252,7252,3.7900,-5.8000,5.3100,8.7293,-0.0764,0.3294,-0.3883,-36.81,-41.81,121.81,4.0257,1.8856,3.9583,5.9523
3,3,0,0,07.373,7373,5.0000,-3.9700,5.7900,8.6189,-0.3545,0.4167,-1.8315,-43.88,-35.69,115.31,4.1541,1.1140,4.1997,6.0112
3,3,0,0,07.494,7494,4.9100,-2.1700,6.0000,8.0509,-0.3512,0.8956,-1.6515,-53.25,-23.19,103.38,4.2537,0.6813,4.4369,6.1842
3,3,0,0,07.617,7617,9.0100,0.9600,2.6700,9.4462,-0.5291,1.7235,-0.8727,-65.00,-12.44,98.00,4.8805,0.7180,4.2041,6.4814
3,3,0,0,07.778,7778,11.4900,2.6500,2.1500,11.9860,0.4407,0.0807,-2.1337,-71.69,29.06,81.19,5.7514,0.9726,3.9334,7.0354
3,3,0,0,07.903,7903,8.0800,4.2200,3.5100,9.7681,0.4134,-1.5392,-3.3303,-53.19,48.19,60.00,6.0583,1.4005,3.8776,7.3280
3,3,0,0,08.024,8024,2.9600,5.3900,6.1900,8.7252,-0.1451,-0.9436,-1.0123,-35.50,49.38,47.50,5.6500,1.9262,4.1823,7.2887
3,3,0,0,08.144,8144,2.9300,7.7700,4.6500,9.5174,-1.6417,0.2727,-1.6188,-28.94,57.94,44.19,5.2916,2.6963,4.2439,7.2994
3,3,0,0,08.266,8266,4.0900,10.8900,0.6300,11.6498,-1.1148,1.8402,0.7156,-28.00,74.00,38.31,5.1332,3.7760,3.7677,7.4030
3,3,0,0,08.386,8386,8.7100,7.6600,1.3400,11.6763,0.4974,0.6240,-0.2073,-34.75,79.75,37.00,5.6046,4.2878,3.4478,7.8539
3,3,0,0,08.508,8508,3.3500,8.7900,2.2200,9.6651,-0.1134,-0.4451,-3.6390,-18.81,79.44,20.50,5.3075,4.8811,3.2860,7.9242
3,3,0,0,08.630,8630,0.4600,10.4900,1.6600,10.6305,-0.7658,-0.5203,-0.3938,-3.56,82.56,8.50,4.6687,5.6202,3.0717,7.9258
3,3,0,0,08.796,8796,3.2400,9.6500,0.5500,10.1942,-0.3174,-0.7538,0.2629,-9.06,87.13,20.19,4.4804,6.1512,2.7394,8.0880
3,3,0,0,08.917,8917,-2.1200,10.2700,-0.0700,10.4868,0.2956,-1.3035,-1.8119,0.00,86.63,19.44,3.6107,6.6940,2.3692,7.9661
3,3,0,0,09.037,9037,-1.4900,9.1700,1.6700,9.4392,0.3349,-0.6545,0.6567,3.63,83.94,22.25,2.9385,7.0203,2.2771,7.9438
3,3,0,0,09.158,9158,3.9200,10.5000,0.9500,11.2481,-0.3491,-1.0614,-1.0581,3.00,84.88,27.19,3.0679,7.4788,2.1022,8.3525
3,3,0,0,09.279,9279,-6.7400,11.0100,0.2900,12.9125,1.2261,-1.2108,-0.1429,14.19,83.88,26.75,1.7754,7.9441,1.8634,8.3507
3,3,0,0,09.400,9400,1.6400,7.9100,3.4100,8.7685,0.6338,-0.0393,2.3060,0.38,77.13,44.81,1.7576,7.9396,2.0672,8.3905
3,3,0,0,09.522,9522,-1.2200,11.9700,1.5700,12.1340,0.4843,0.4036,-0.2116,-1.25,75.63,45.25,1.3652,8.4707,2.0017,8.8104
3,3,0,0,09.648,9648,2.2100,8.2200,4.1500,9.4697,0.9981,0.8508,1.6897,-9.50,69.00,48.56,1.4765,8.4377,2.2848,8.8654
3,3,0,0,09.810,9810,3.0000,9.3400,4.3600,10.7352,1.0036,0.0938,1.2414,-20.94,61.69,55.50,1.6773,8.5566,2.5582,9.0870
3,3,0,0,09.931,9931,5.0100,6.5000,5.1400,9.6835,1.0428,0.4429,1.5643,-31.31,51.63,63.69,2.1165,8.2856,2.8985,9.0295
3,3,0,0,10.052,10052,7.0800,7.1700,5.6100,11.5329,0.9294,-0.3720,1.1126,-37.69,43.00,68.50,2.7705,8.1386,3.2558,9.1931
3,3,0,0,10.173,10173,6.4500,3.9100,6.8100,10.1620,1.4835,-1.6330,1.6002,-37.19,24.19,77.44,3.2554,7.5814,3.7241,9.0523
3,3,0,0,10.297,10297,2.7300,1.7100,8.3200,8.9218,1.4355,-0.9501,1.4334,-30.19,7.69,83.56,3.1862,6.8077,4.3297,8.6742
3,3,0,0,10.421,10421,4.0100,0.0000,9.0000,9.8529,1.3788,-0.2727,0.9261,-26.50,-7.38,90.00,3.2947,5.9106,4.9452,8.3812
3,3,0,0,10.542,10542,3.1400,-3.0400,7.7800,8.9235,1.0112,0.5007,0.6501,-26.94,-17.75,92.06,3.2743,4.7311,5.3187,7.8354
3,3,0,0,10.664,10664,4.3600,-3.9500,6.7300,8.9390,0.5901,0.5912,0.9141,-28.13,-26.44,97.94,3.4174,3.5872,5.5047,7.4059
3,3,0,0,10.826,10826,4.2300,-4.6700,6.2700,8.8890,-0.2509,0.3829,-0.8410,-32.63,-28.56,97.38,3.5245,2.4991,5.6055,7.0774
3,4,0,0,10.952,10952,4.8100,-2.6600,6.8700,8.7982,-0.7429,0.2378,-1.0025,-37.13,-19.88,92.13,3.6939,1.8193,5.7722,7.0903
3,4,0,0,11.074,11074,5.0300,-0.9100,6.9800,8.6516,-0.8618,0.4265,-1.6068,-41.50,-7.00,85.19,3.8699,1.4596,5.9313,7.2310
3,4,0,0,11.194,11194,6.2700,3.0500,6.8500,9.7743,-1.2686,0.6621,-1.3744,-45.06,10.06,77.75,4.1862,1.6692,6.0524,7.5460
3,4,0,0,11.315,11315,6.6700,4.5700,4.5000,9.2533,-0.1200,0.7898,-1.0090,-48.19,22.38,72.69,4.5135,2.0514,5.8478,7.6666
3,4,0,0,11.436,11436,6.7300,3.7200,6.0600,9.7906,-0.1178,0.4592,-1.8457,-46.75,32.88,61.25,4.8056,2.2713,5.8758,7.9232
3,4,0,0,11.557,11557,4.9800,7.2900,3.5200,9.5045,-1.1170,0.7014,-2.0519,-40.44,50.06,48.75,4.8286,2.9326,5.5653,7.9302
3,4,0,0,11.679,11679,6.3200,8.0900,3.7600,10.9329,-0.4505,0.7123,-1.2741,-34.81,62.63,39.25,5.0251,3.6123,5.3274,8.1659
3,4,0,0,11.841,11841,4.2000,8.2600,2.9400,9.7217,-0.2334,0.2182,-1.0265,-25.06,70.69,25.94,4.9164,4.2247,5.0128,8.1944
3,4,0,0,11.966,11966,2.7200,9.4100,2.5600,10.1242,-0.4963,0.1287,-1.0014,-19.13,74.50,19.69,4.6269,4.9080,4.6896,8.2152
3,4,0,0,12.087,12087,1.1800,9.9300,2.3700,10.2769,-0.1745,0.5051,-1.0963,-13.00,78.00,12.50,4.1727,5.5698,4.3840,8.2251
3,4,0,0,12.208,12208,0.3500,9.7300,2.3000,10.0043,-0.0382,1.2086,-1.2403,-5.88,79.44,0.56,3.6690,6.1180,4.1093,8.2327
3,4,0,0,12.329,12329,0.1100,10.2300,0.7000,10.2545,-0.4974,1.4824,-0.4800,-1.31,82.00,347.94,3.2000,6.6598,3.6601,8.2456
3,4,0,0,12.449,12449,2.1700,10.6600,-0.6200,10.8963,-0.4243,1.6461,0.7363,-4.56,85.69,341.75,3.0643,7.1870,3.0961,8.4040
3,4,0,0,12.570,12570,3.2500,9.7700,-0.5400,10.3105,-0.1309,1.0079,0.8912,-10.50,88.38,339.69,3.0888,7.5273,2.6169,8.5469
3,4,0,0,12.691,12691,3.7400,9.2200,-0.2700,9.9533,-0.4701,0.0535,1.5621,-18.88,91.13,345.50,3.1746,7.7504,2.2365,8.6688
3,4,0,0,12.858,12858,5.6900,8.8900,-1.1900,10.6219,-0.5345,-0.4145,1.2021,-32.75,95.50,3.63,3.5060,7.9006,1.7850,8.8259
3,4,0,0,12.980,12980,7.0400,8.3600,-1.0000,10.9750,-0.4538,-0.9545,1.4606,-43.00,96.06,19.81,3.9717,7.9611,1.4180,9.0091
3,4,0,0,13.100,13100,7.5600,6.1000,0.2600,9.7176,-0.1931,-1.1039,2.1478,-55.31,90.50,38.25,4.4446,7.7159,1.2654,8.9939
3,4,0,0,13.221,13221,9.0600,4.7100,0.6900,10.2344,-0.5356,-0.5858,2.1838,-69.31,80.06,57.69,5.0528,7.3198,1.1896,8.9735
3,4,0,0,13.342,13342,9.0100,2.3600,1.1600,9.3859,-0.1167,-0.1462,1.6646,-79.94,61.50,71.75,5.5742,6.6662,1.1857,8.7702
3,4,0,0,13.463,13463,9.5500,0.6400,1.0400,9.6278,-0.4909,-0.6578,1.8871,-81.81,-27.88,86.25,6.0981,5.8721,1.1665,8.5457
3,4,0,0,13.585,13585,8.6700,-1.7300,1.9100,9.0449,-0.2378,-0.6938,1.7857,-69.13,-52.44,100.69,6.4370,4.8703,1.2645,8.1703
3,4,0,0,13.711,13711,7.2700,-3.1700,2.1600,8.2199,-0.2214,-0.4102,1.5588,-59.13,-56.94,110.06,6.5468,3.8108,1.3825,7.7003
3,4,0,0,13.873,13873,6.6100,-5.3700,3.2900,9.1298,0.1211,-0.0622,0.9447,-47.94,-62.31,122.13,6.5551,2.6010,1.6338,7.2391
3,4,0,0,13.994,13994,4.6900,-6.2300,3.4900,8.5434,-0.0382,0.1974,0.6698,-43.63,-65.25,127.31,6.3094,1.4373,1.8784,6.7381
3,4,0,0,14.115,14115,5.2500,-7.0500,3.2500,9.3716,-0.1527,-0.0807,1.1170,-37.31,-67.56,134.19,6.1698,0.3189,2.0592,6.5121
3,4,0,0,14.236,14236,4.0800,-6.2600,2.0200,7.7404,-0.1582,-0.3087,-0.7821,-35.50,-66.13,133.38,5.8944,-0.5480,2.0540,6.2660
3,5,0,0,14.358,14358,5.6700,-6.4600,3.5700,9.3073,-0.4331,-0.4691,-1.4519,-41.88,-60.19,122.88,5.8648,-1.3271,2.2538,6.4216
3,5,0,0,14.484,14484,5.1600,-3.8000,3.8100,7.4553,-0.6283,-0.8639,-1.5523,-47.25,-45.88,112.13,5.7719,-1.6529,2.4588,6.4879
3,5,0,0,14.605,14605,5.8100,-2.5500,4.9500,8.0474,-0.3065,-0.2771,-1.9482,-51.25,-28.44,100.13,5.7770,-1.7712,2.7871,6.6542
3,5,0,0,14.726,14726,5.9200,-0.5600,4.3700,7.3795,-0.9250,-0.0295,-2.0933,-55.13,-7.63,88.38,5.7958,-1.6116,2.9957,6.7203
3,5,0,0,14.889,14889,8.5300,5.3100,4.6900,11.0884,-1.6395,-0.3338,-2.2373,-50.81,28.06,77.06,6.1561,-0.6995,3.2190,6.9820
3,5,0,0,15.009,15009,3.1600,7.6800,4.6200,9.5033,-0.8639,-0.4941,-2.7783,-35.69,48.88,62.50,5.7613,0.4047,3.4036,6.7038
3,5,0,0,15.130,15130,4.2800,7.2000,5.0500,9.7806,-1.2610,-0.2869,-0.7461,-27.50,57.19,56.94,5.5661,1.3002,3.6205,6.7661
3,5,0,0,15.251,15251,1.4300,10.0500,3.8900,10.8710,-1.9799,0.0273,-2.5307,-15.25,71.38,48.00,5.0211,2.4532,3.6560,6.6780
3,5,0,0,15.377,15377,1.8500,12.1200,1.7900,12.3904,-1.3221,0.4003,-0.9927,-4.81,83.38,36.69,4.6032,3.7270,3.4102,6.8344
3,5,0,0,15.498,15498,1.7100,11.2800,1.5300,11.5110,0.1494,-0.0687,-0.7363,0.00,86.50,30.75,4.2219,4.7223,3.1624,7.0800
3,5,0,0,15.619,15619,-0.5800,10.4600,2.6900,10.8159,0.6589,-0.2531,-0.8530,5.69,82.75,26.44,3.5892,5.4784,3.1001,7.2461
3,5,0,0,15.739,15739,-2.8800,8.4100,1.7900,9.0679,0.5770,-0.0916,0.7036,7.88,78.81,26.13,2.7367,5.8647,2.9275,7.1031
3,5,0,0,15.902,15902,1.8600,9.1900,2.0900,9.6064,-0.1058,-0.1385,0.4538,-3.50,76.44,38.38,2.6212,6.3029,2.8171,7.3847
3,5,0,0,16.022,16022,0.3600,9.8000,2.2000,10.0504,-0.0774,-0.0971,-0.4974,-0.69,77.50,36.56,2.3232,6.7637,2.7358,7.6570
3,5,0,0,16.143,16143,1.6000,10.7000,2.8800,11.1957,0.2629,-0.2334,0.9817,-3.13,76.94,39.88,2.2279,7.2824,2.7548,8.0985
3,5,0,0,16.265,16265,2.3900,10.4500,3.5800,11.3018,0.8094,-0.6490,0.8879,-8.56,72.88,49.19,2.2493,7.6998,2.8636,8.5174
3,5,0,0,16.391,16391,1.7400,9.7700,4.2900,10.8113,1.3603,-0.9032,1.1617,-13.06,64.00,59.19,2.1822,7.9726,3.0515,8.8111
3,5,0,0,16.511,16511,1.9700,7.4600,5.9500,9.7435,1.6079,-0.5869,1.3210,-17.75,50.19,69.56,2.1542,7.9051,3.4335,8.8837
3,5,0,0,16.633,16633,2.6100,5.9000,6.6300,9.2509,1.2708,-0.0545,1.1639,-22.00,37.88,76.63,2.2143,7.6409,3.8547,8.8399
3,5,0,0,16.753,16753,3.3100,4.3600,7.6200,9.3824,1.2370,0.3589,1.1585,-26.94,27.25,81.75,2.3587,7.2085,4.3509,8.7439
3,5,0,0,16.916,16916,5.6300,2.2400,8.1100,10.1236,0.9577,0.8279,1.1126,-36.19,13.00,88.19,2.7897,6.5538,4.8462,8.6151
3,5,0,0,17.053,17053,5.4900,0.2600,6.5500,8.5505,1.0057,0.3600,1.1945,-41.63,-1.44,93.63,3.1456,5.7244,5.0707,8.2690
3,5,0,0,17.174,17174,4.9200,-1.5200,6.2600,8.1058,0.8748,0.3218,0.9632,-42.44,-15.00,99.06,3.3794,4.7698,5.2274,7.8420
3,5,0,0,17.294,17294,5.9100,-2.5300,5.5700,8.5061,0.5400,0.1625,1.0559,-41.69,-26.19,104.50,3.7129,3.8079,5.2726,7.4890
3,5,0,0,17.415,17415,4.4600,-4.4300,5.2600,8.1966,0.6556,-0.1134,0.7341,-38.88,-33.81,108.31,3.8113,2.7223,5.2709,7.0512
3,5,0,0,17.537,17537,5.1000,-5.9400,6.0800,9.9126,0.1091,0.2814,-1.3963,-39.25,-36.50,106.94,3.9811,1.5809,5.3775,6.8751
3,6,0,0,17.658,17658,6.5900,-1.8900,5.8100,8.9865,-0.2760,0.3109,-0.0709,-47.56,-27.63,98.06,4.3249,1.1235,5.4345,7.0357
3,6,0,0,17.778,17778,6.8000,-4.9800,5.9100,10.2941,-0.0273,-0.6545,0.5443,-41.81,-33.06,105.63,4.6511,0.3192,5.4972,7.2079
3,6,0,0,17.946,17946,3.2300,-1.9100,6.1400,7.1959,-0.9479,0.4451,-2.0660,-46.69,-14.13,91.88,4.4638,0.0255,5.5819,7.1473
3,6,0,0,18.067,18067,8.2300,1.7400,4.7000,9.6359,-1.4464,0.5574,-0.8192,-52.44,2.75,89.56,4.9601,0.2514,5.4657,7.3851
3,6,0,0,18.187,18187,7.4300,3.9200,5.7800,10.1970,-0.9119,0.0109,-3.1547,-49.56,28.63,78.44,5.2856,0.7348,5.5071,7.6685
3,6,0,0,18.308,18308,4.2400,6.9600,4.8100,9.4634,-1.1454,0.1440,-2.2700,-36.25,50.56,60.56,5.1478,1.5551,5.4152,7.6317
3,6,0,0,18.430,18430,2.0500,8.4300,3.1000,9.2129,-1.3875,1.0090,-1.3668,-29.06,64.13,51.31,4.7396,2.4611,5.1102,7.3915
3,6,0,0,18.551,18551,7.8600,9.3400,-0.1300,12.2079,-1.1006,1.5588,0.3065,-30.19,79.75,45.25,5.1508,3.3675,4.4196,7.5765
3,6,0,0,18.677,18677,3.7700,9.9200,0.8700,10.6478,0.3872,-0.9294,-2.5220,-22.31,83.75,37.38,4.9688,4.2310,3.9519,7.6294
3,6,0,0,18.799,18799,0.2900,7.5100,3.0500,8.1109,-0.1091,-0.4189,-0.6163,-11.06,79.38,31.56,4.3523,4.6631,3.8330,7.4417
3,6,0,0,18.962,18962,-0.1500,10.8500,0.0800,10.8513,-0.9119,0.7243,-0.8563,-3.81,86.81,23.13,3.7590,5.4784,3.3385,7.4356
3,6,0,0,19.082,19082,-0.0900,11.1500,-0.3500,11.1559,-0.2203,0.9807,-0.9708,1.25,90.69,12.56,3.2518,6.2257,2.8524,7.5809
3,6,0,0,19.204,19204,-0.2700,9.8900,0.0000,9.8937,0.0371,0.6349,-0.6480,7.13,90.50,1.31,2.7877,6.7086,2.4766,7.6753
3,6,0,0,19.326,19326,-0.4800,10.2700,-0.1800,10.2828,0.2454,-0.2422,-0.4320,9.13,89.69,0.50,2.3571,7.1779,2.1265,7.8486
3,6,0,0,19.451,19451,-1.4900,9.9200,-0.0900,10.0317,0.2913,-0.5476,-0.3120,11.63,88.38,2.31,1.8502,7.5392,1.8344,7.9767
3,6,0,0,19.571,19571,-2.4700,10.2500,0.3900,10.5506,0.1854,-0.1974,1.0199,9.63,87.44,8.63,1.2809,7.8964,1.6441,8.1668
3,6,0,0,19.693,19693,1.1100,10.0200,0.8800,10.1196,0.1582,-0.1047,1.3952,-0.63,86.31,19.75,1.2584,8.1763,1.5434,8.4153
3,6,0,0,19.813,19813,0.6300,10.1300,1.0400,10.2027,0.4047,-0.6283,0.6763,-5.94,84.25,28.25,1.1756,8.4337,1.4771,8.6424
3,6,0,0,19.976,19976,2.4200,10.1900,1.4300,10.5706,0.2127,-0.5803,1.3450,-16.13,80.31,44.00,1.3395,8.6652,1.4709,8.8906
3,6,0,0,20.097,20097,2.9600,9.5600,1.7200,10.1545,0.4461,-0.2520,1.2741,-23.13,76.63,52.81,1.5531,8.7831,1.5037,9.0452
3,6,0,0,20.218,20218,5.2100,7.5800,2.8100,9.6175,0.1931,-0.3742,1.4933,-32.88,71.38,63.13,2.0350,8.6245,1.6758,9.0184
3,6,0,0,20.343,20343,5.1200,9.4600,2.3700,11.0147,0.2378,-0.7298,1.0854,-37.94,66.81,70.88,2.4415,8.7346,1.7673,9.2400
3,6,0,0,20.465,20465,6.8100,5.9900,4.4700,10.1112,0.8672,-1.2970,1.3919,-43.94,51.50,83.25,3.0172,8.3730,2.1234,9.1498
3,6,0,0,20.585,20585,5.2000,6.2000,6.2600,10.2307,0.7559,-0.8388,0.8945,-42.25,37.94,88.88,3.3048,8.0866,2.6685,9.1343
3,6,0,0,20.706,20706,6.2400,2.1100,6.7200,9.4100,1.4617,-0.5269,2.3464,-44.88,16.44,98.31,3.6916,7.2991,3.2024,8.7840
3,6,0,0,20.827,20827,6.1700,1.1900,6.5000,9.0407,0.8967,-0.5781,1.0374,-43.06,-0.75,104.50,4.0182,6.4940,3.6370,8.4585
3,6,0,0,20.995,20995,4.0000,-0.8600,6.2600,7.4784,0.9425,-0.9283,0.5269,-34.31,-15.31,109.19,4.0158,5.5250,3.9826,7.9065
3,6,0,0,21.117,21117,3.4000,-3.2800,7.0200,8.4616,1.0548,-0.3960,0.6490,-28.44,-24.63,110.25,3.9346,4.3647,4.3829,7.3308
3,6,0,0,21.237,21237,3.3100,-4.5100,7.6100,9.4450,0.3742,-0.0229,0.3534,-25.94,-29.50,111.81,3.8523,3.1952,4.8081,6.9403
3,6,0,0,21.358,21358,3.5400,-5.6700,7.2800,9.8833,-0.0731,0.2073,-0.4080,-26.31,-30.88,111.88,3.8112,2.0270,5.1338,6.7075
3,6,0,0,21.479,21479,2.8400,-2.6300,7.0700,8.0602,-0.7614,0.3796,-1.9886,-32.56,-22.31,102.81,3.6832,1.4133,5.3890,6.6787
3,7,0,0,21.600,21600,4.7800,-1.1700,7.7100,9.1467,-0.6250,0.7472,-0.4363,-38.38,-13.19,96.50,3.8277,1.0729,5.6948,6.9451
3,7,0,0,21.721,21721,6.1300,1.6000,4.7100,7.8944,-1.3483,0.5291,-1.6788,-43.63,-2.13,93.56,4.1311,1.1424,5.5651,7.0243
3,7,0,0,21.844,21844,6.2200,3.1000,5.8900,9.1099,-1.1508,0.3992,-4.2531,-42.88,23.25,77.06,4.4064,1.4003,5.6079,7.2681
3,7,0,0,22.009,22009,3.7100,7.1400,5.3500,9.6626,-0.9316,0.8847,0.1484,-31.38,52.56,53.63,4.3146,2.1567,5.5739,7.3713
3,7,0,0,22.130,22130,5.0500,8.6500,3.2000,10.5150,-1.4890,0.1996,-2.8209,-27.31,64.38,47.81,4.4115,3.0123,5.2611,7.4976
3,7,0,0,22.251,22251,-0.8200,9.9300,1.9700,10.1567,-0.8661,-0.2040,-1.7181,-8.38,75.06,30.94,3.7221,3.9239,4.8274,7.2495
3,7,0,0,22.372,22372,0.9900,9.3300,1.0100,9.4366,-2.1315,-0.6076,-2.1315,0.69,83.81,24.00,3.3621,4.6363,4.3244,7.1763
3,7,0,0,22.494,22494,-4.6300,12.5800,-2.7500,13.6841,-0.9218,-1.1705,-1.2501,14.00,97.25,15.94,2.3090,5.6831,3.3921,7.0096
3,7,0,0,22.616,22616,-3.1100,9.7500,-0.6400,10.2540,0.7985,0.1091,0.3742,13.44,96.50,20.00,1.5949,6.2190,2.8608,7.0288
3,7,0,0,22.741,22741,-4.8600,10.0800,0.1200,11.1911,0.6087,1.4835,-0.3785,14.88,90.56,14.69,0.7443,6.7278,2.4996,7.2156
3,7,0,0,22.862,22862,-2.1400,8.3600,1.1100,8.7006,-0.0698,2.6769,0.3360,13.25,83.56,0.56,0.3642,6.9429,2.3165,7.3282
3,7,0,0,23.024,23024,0.0700,10.4000,0.3700,10.4068,-0.5770,0.9599,0.8214,6.25,85.38,350.00,0.3254,7.3984,2.0600,7.6868
3,7,0,0,23.145,23145,0.2300,10.4300,0.3800,10.4395,0.2771,-0.3043,1.2010,-0.13,86.13,354.94,0.3129,7.7979,1.8386,8.0178
3,7,0,0,23.267,23267,1.4900,10.0000,1.2800,10.1911,0.5803,-1.0036,1.1312,-7.88,82.31,7.63,0.4680,8.0881,1.7650,8.2916
3,7,0,0,23.392,23392,1.7100,9.9300,1.9100,10.2556,0.2171,-0.9283,0.8312,-12.56,78.44,18.81,0.6316,8.3308,1.7841,8.5431
3,7,0,0,23.514,23514,2.4700,10.0400,2.4000,10.6143,0.2694,-0.3458,1.7301,-20.44,75.00,31.69,0.8739,8.5560,1.8653,8.8005
3,7,0,0,23.635,23635,4.3600,8.5400,2.7300,9.9697,0.3414,-0.0469,1.6286,-31.56,70.63,45.06,1.3333,8.5539,1.9792,8.8806
3,7,0,0,23.757,23757,4.8000,7.8400,2.8600,9.6273,0.1887,-0.1189,1.1083,-38.56,66.69,52.38,1.7901,8.4598,2.0953,8.8974
3,7,0,0,23.877,23877,6.2300,7.1400,3.4700,10.0913,-0.2596,-0.3982,1.6341,-44.81,62.50,61.19,2.3752,8.2859,2.2764,8.9152
3,7,0,0,24.045,24045,7.6500,6.0900,3.7000,10.4547,0.4756,-0.7625,1.5152,-55.19,44.81,79.88,3.0703,7.9966,2.4640,8.9131
3,7,0,0,24.167,24167,7.0600,2.5900,5.3400,9.2232,0.5890,-0.5127,1.8937,-57.81,21.06,89.50,3.5960,7.2841,2.8430,8.6065
3,7,0,0,24.288,24288,7.3300,1.5700,5.3900,9.2329,0.2836,-0.3163,1.7857,-57.19,-1.25,100.75,4.0880,6.5311,3.1786,8.3350
3,7,0,0,24.408,24408,6.1500,-0.6700,4.7400,7.7935,0.6327,-0.1549,2.2024,-52.81,-22.81,112.38,4.3598,5.5822,3.3844,7.8500
3,7,0,0,24.530,24530,5.9700,-3.2000,4.6200,8.1991,0.8247,-0.1571,2.2809,-44.06,-41.69,124.50,4.5719,4.4249,3.5472,7.2846
3,7,0,0,24.650,24650,3.4600,-5.7000,3.8100,7.6797,0.6556,0.0207,1.3363,-34.88,-53.38,134.06,4.4254,3.0907,3.5818,6.4782
3,7,0,0,24.771,24771,4.9400,-7.3300,4.9400,10.1260,-0.1800,0.1233,0.5498,-30.00,-57.75,140.25,4.4932,1.7175,3.7608,6.1060
3,7,0,0,24.896,24896,3.7300,-5.5900,3.8700,7.7549,0.0022,-0.3000,-0.6087,-30.13,-55.94,139.63,4.3927,0.7546,3.7752,5.8410
3,8,0,0,25.059,25059,5.0200,-5.9700,5.3700,9.4699,-0.0971,-0.0753,-1.8424,-38.38,-50.56,126.44,4.4753,-0.1315,3.9854,5.9941
3,8,0,0,25.180,25180,5.3700,-2.8300,4.6100,7.6222,-0.5051,0.1702,-2.7674,-50.13,-37.38,110.38,4.5932,-0.4871,4.0677,6.1547
3,8,0,0,25.302,25302,9.7700,-1.3500,4.8700,10.9997,-0.3480,-0.0731,-3.6205,-59.25,-8.69,92.19,5.2754,-0.6008,4.1734,6.7534
3,8,0,0,25.422,25422,0.1300,5.7700,3.3500,6.6733,-0.8214,-1.3188,-4.4310,-43.75,37.63,62.38,4.5974,0.2387,4.0649,6.1413
3,8,0,0,25.543,25543,3.4700,5.7700,5.1500,8.4768,-0.9196,-0.0109,-0.1931,-34.00,45.88,54.56,4.4488,0.9676,4.2079,6.1995
3,8,0,0,25.664,25664,2.7700,8.2600,3.8500,9.5249,-1.6712,0.5781,-2.0257,-29.25,59.50,49.00,4.2276,1.9285,4.1607,6.2372
3,8,0,0,25.786,25786,1.9900,11.2600,1.5500,11.5391,-1.4584,0.5552,-1.8522,-18.63,73.75,36.31,3.9327,3.1582,3.8167,6.3252
3,8,0,0,25.912,25912,0.7500,11.6600,0.0000,11.6841,-1.1268,0.3949,-1.5239,-8.00,84.06,24.25,3.5133,4.2785,3.3138,6.4521
3,8,0,0,26.073,26073,-0.5100,11.4200,0.3800,11.4377,-0.2847,0.0774,-0.8890,2.06,90.38,13.56,2.9831,5.2196,2.9272,6.6867
3,8,0,0,26.194,26194,-1.6600,10.5400,0.0800,10.6702,-0.2171,0.3447,-0.9948,8.56,91.69,7.19,2.3713,5.9207,2.5520,6.8695
3,8,0,0,26.315,26315,-3.6700,9.9000,-0.3900,10.5656,0.1767,0.6894,-0.3425,13.50,91.06,359.63,1.5752,6.4450,2.1643,6.9788
3,8,0,0,26.436,26436,-2.5400,8.8600,0.3700,9.2243,0.2236,0.7167,-0.4494,15.31,87.94,354.69,1.0329,6.7633,1.9279,7.1081
3,8,0,0,26.559,26559,-3.3500,10.0300,-0.1100,10.5752,0.1887,0.2629,-0.6120,19.38,86.06,348.44,0.4554,7.1937,1.6593,7.3967
3,8,0,0,26.680,26680,-2.7500,9.5800,0.4600,9.9775,0.5541,-0.2487,0.2618,20.06,83.81,349.44,0.0330,7.5082,1.5013,7.6569
3,8,0,0,26.805,26805,-2.5100,9.5000,1.0500,9.8819,0.3622,-0.6785,1.4650,13.63,81.88,1.63,-0.3021,7.7707,1.4418,7.9091
3,8,0,0,26.926,26926,-1.7100,10.1400,1.1700,10.3495,0.3578,-0.6970,1.0090,5.81,81.06,15.63,-0.4876,8.0829,1.4060,8.2187
3,8,0,0,27.088,27088,-0.8000,9.8300,2.2700,10.1204,0.5018,-0.6120,1.1563,-1.25,77.38,29.25,-0.5288,8.3131,1.5198,8.4674
3,8,0,0,27.209,27209,0.4700,9.8600,2.8300,10.2689,0.3862,-0.5181,0.9774,-7.44,74.00,39.44,-0.3972,8.5169,1.6925,8.6926
3,8,0,0,27.330,27330,1.1700,9.5900,3.2700,10.1995,0.5127,-0.2487,1.1672,-13.00,70.31,47.69,-0.1907,8.6583,1.9004,8.8665
3,8,0,0,27.456,27456,2.7100,8.9600,3.5900,10.0257,0.4734,0.0044,1.3504,-20.38,66.00,55.06,0.1916,8.6981,2.1230,8.9555
3,8,0,0,27.578,27578,3.8000,8.3300,3.8300,9.9246,0.4232,0.0469,1.4715,-29.50,60.75,64.00,0.6671,8.6496,2.3480,8.9874
3,8,0,0,27.699,27699,5.5600,7.6400,4.5600,10.4917,0.4003,-0.0196,1.6570,-38.44,54.56,73.50,1.3118,8.5166,2.6394,9.0122
3,8,0,0,27.820,27820,6.6100,5.9500,4.9700,10.1880,0.5880,-0.3185,1.9668,-47.06,42.88,84.69,2.0100,8.1783,2.9466,8.9223
3,8,0,0,27.942,27942,5.6000,3.4200,5.0500,8.2800,0.7745,-0.5291,1.8446,-51.31,25.00,95.06,2.4831,7.5513,3.2237,8.5779
3,8,0,0,28.107,28107,7.2900,0.7000,6.4800,9.7788,0.7254,-1.0788,1.9275,-46.81,-8.56,114.13,3.1165,6.6485,3.6528,8.2011
3,8,0,0,28.230,28230,5.5900,-1.8800,7.9900,9.9309,0.7538,-0.9567,1.7148,-35.69,-23.38,123.81,3.4424,5.5247,4.2244,7.7600
3,8,0,0,28.351,28351,2.8200,-3.6200,5.6800,7.3020,1.1748,-0.0774,0.8781,-28.56,-34.13,129.19,3.3604,4.3196,4.4162,7.0324
3,8,0,0,28.473,28473,4.3700,-6.0500,6.7300,10.0495,0.4538,0.7690,0.5683,-28.19,-43.44,132.75,3.4935,2.9532,4.7211,6.5737
3,8,0,0,28.594,28594,4.5900,-5.8600,5.1800,9.0686,0.2258,0.5476,-0.0371,-29.81,-47.63,136.31,3.6380,1.7918,4.7816,6.2697
3,9,0,0,28.714,28714,5.7100,-5.2300,5.7400,9.6387,-0.0949,0.1734,-1.8446,-37.31,-45.38,129.31,3.9110,0.8665,4.9078,6.3351
3,9,0,0,28.835,28835,5.6700,-4.1200,5.1400,8.6915,-0.1713,-0.4091,-1.1159,-43.50,-36.69,118.88,4.1428,0.2094,4.9384,6.4494
3,9,0,0,28.959,28959,5.9300,-1.3100,6.2400,8.7074,-0.9087,-0.4778,-3.1787,-47.75,-17.50,104.38,4.3783,0.0092,5.1100,6.7291
3,9,0,0,29.123,29123,6.4800,2.7200,7.1700,10.0398,-0.9741,-0.0556,-2.2198,-45.56,15.25,85.38,4.6552,0.3664,5.3814,7.1250
3,9,0,0,29.244,29244,4.0900,6.8200,6.0600,9.9982,-1.0657,0.0796,-2.2853,-37.75,37.31,71.56,4.5808,1.2168,5.4708,7.2384
3,9,0,0,29.366,29366,5.2100,7.2500,6.2300,10.8867,-0.9316,0.1396,-2.0246,-30.63,49.81,61.69,4.6637,2.0119,5.5709,7.5387
3,9,0,0,29.486,29486,-1.7300,9.2700,4.1600,10.3069,-0.8258,1.0897,-2.0911,-18.31,61.31,45.31,3.8212,2.9683,5.3850,7.2395
3,9,0,0,29.607,29607,3.8200,9.8300,2.1000,10.7532,-1.0221,2.5471,-1.2305,-16.00,72.00,29.31,3.8210,3.8725,4.9521,7.3566
3,9,0,0,29.729,29729,4.7000,11.8600,0.1200,12.7579,-0.4276,-0.7407,-1.5348,-6.94,80.25,13.56,3.9368,4.9250,4.3153,7.6405
3,9,0,0,29.850,29850,-1.6300,9.7000,1.4500,9.9423,0.5541,-1.9831,-0.1604,-0.44,78.25,19.44,3.2033,5.5543,3.9378,7.5244
3,9,0,0,29.975,29975,-2.6500,9.1700,3.0000,10.0056,0.0131,-0.7112,-0.5181,3.81,75.88,24.13,2.4320,6.0307,3.8142,7.5387
3,9,0,0,30.138,30138,-1.6900,10.1900,1.5600,10.4463,-0.7778,0.4854,-0.1309,7.00,80.94,19.63,1.8888,6.5788,3.5171,7.6954
3,9,0,0,30.259,30259,-0.8700,10.7000,1.0200,10.7837,-0.0458,0.6741,0.6709,4.50,83.31,17.69,1.5252,7.1219,3.1881,7.9506
3,9,0,0,30.380,30380,0.7700,10.0800,1.5900,10.2336,0.2345,0.2662,1.0537,-1.75,82.00,21.06,1.4257,7.5117,2.9775,8.2051
3,9,0,0,30.501,30501,1.1800,10.8300,1.3800,10.9812,0.1680,-0.1614,0.9817,-8.44,80.94,27.81,1.3933,7.9489,2.7670,8.5313
3,9,0,0,30.624,30624,2.5400,9.2300,1.8000,9.7409,0.4843,-0.1756,1.9875,-18.31,77.69,38.38,1.5444,8.1178,2.6396,8.6747
3,9,0,0,30.745,30745,3.2700,8.7600,2.8100,9.7635,0.1091,-0.2160,1.5195,-29.38,73.63,50.63,1.7718,8.2024,2.6620,8.8037
3,9,0,0,30.869,30869,5.5500,6.9300,2.7000,9.2799,0.0502,0.9087,2.6213,-45.00,72.13,64.25,2.2697,8.0347,2.6670,8.7648
3,9,0,0,30.990,30990,9.0800,6.1800,1.2100,11.0500,-0.3196,0.5531,2.2133,-60.50,76.25,76.75,3.1671,7.7903,2.4750,8.7662
3,9,0,0,31.152,31152,13.6000,2.1800,1.5000,13.8551,-0.4734,-1.9439,3.2310,-78.75,9.19,106.63,4.5419,7.0510,2.3465,8.7093
3,9,0,0,31.273,31273,6.2000,3.8000,-0.7700,7.3125,0.8149,-5.1454,-0.0589,-52.44,-12.00,115.19,4.7604,6.6226,1.9359,8.3826
3,9,0,0,31.394,31394,-1.8000,-3.1500,8.3700,9.1225,1.2905,-2.4227,-0.3796,-26.88,-15.38,104.44,3.8959,5.3348,2.7837,7.1685
3,9,0,0,31.520,31520,2.9500,-1.0900,7.2800,7.9303,-0.1287,0.3011,0.9207,-21.56,-18.81,107.06,3.7713,4.4882,3.3762,6.7650
3,9,0,0,31.642,31642,3.6400,-2.8900,7.6900,8.9854,0.8367,0.3305,0.0142,-23.56,-24.69,109.50,3.7540,3.5159,3.9447,6.4819
3,9,0,0,31.762,31762,2.2100,-5.1000,8.3000,9.9892,0.6534,0.5432,0.7636,-24.25,-31.31,111.69,3.5505,2.3806,4.5186,6.2202
3,9,0,0,31.883,31883,3.9800,-4.4800,6.7500,9.0263,0.1974,1.4323,0.3087,-28.88,-36.50,115.63,3.6071,1.4765,4.8126,6.1930
3,10,0,0,32.004,32004,5.5100,-5.6500,6.7300,10.3719,0.4287,0.9610,0.6414,-32.75,-43.75,121.44,3.8579,0.5374,5.0653,6.3898
3,10,0,0,32.167,32167,5.5500,-5.3200,5.7500,9.6004,-0.1844,-0.0305,-0.7494,-36.06,-45.69,122.38,4.0808,-0.2344,5.1555,6.5793
3,10,0,0,32.288,32288,5.6400,-3.8900,5.6000,8.8488,-0.2705,-0.4123,-1.4268,-40.00,-38.69,114.31,4.2863,-0.7161,5.2141,6.7876
3,10,0,0,32.408,32408,5.6300,-2.4900,6.2900,8.8012,-0.4276,-0.2160,-1.4530,-43.44,-28.44,103.69,4.4634,-0.9499,5.3559,7.0363
3,10,0,0,32.534,32534,5.3900,-0.3200,5.0600,7.3999,-0.9610,0.3698,-1.9842,-48.25,-14.00,94.00,4.5855,-0.8669,5.3169,7.0744
3,10,0,0,32.655,32655,5.7900,3.5200,5.3500,8.6335,-0.8661,0.8236,-2.6289,-52.50,12.44,80.38,4.7442,-0.2888,5.3212,7.1349
3,10,0,0,32.776,32776,7.2400,5.1400,4.8600,10.1221,-0.7134,0.4800,-1.6144,-51.13,37.25,68.56,5.0731,0.4266,5.2605,7.3206
3,10,0,0,32.897,32897,5.0700,6.7500,4.8900,9.7560,-0.5738,-0.2029,-2.7871,-40.31,53.38,55.25,5.0727,1.2598,5.2116,7.3811
3,10,0,0,33.017,33017,1.8600,10.0000,3.8900,10.8900,-0.5498,0.0862,-2.3758,-24.94,63.06,39.19,4.6493,2.4116,5.0375,7.2669
3,10,0,0,33.180,33180,1.7800,9.9200,3.5100,10.6722,-0.4974,0.3502,-1.9875,-10.00,70.44,20.81,4.2712,3.4010,4.8362,7.2938
3,10,0,0,33.302,33302,-0.0600,10.9200,2.7900,11.2709,-0.3752,-0.0436,-1.5163,1.38,73.88,7.94,3.7005,4.3918,4.5666,7.3372
3,10,0,0,33.427,33427,-2.0600,10.0700,2.4300,10.5619,-0.1156,-0.1887,-0.7799,8.31,75.06,1.88,2.9414,5.1400,4.2850,7.3098
3,10,0,0,33.548,33548,-2.3300,9.1400,2.1600,9.6765,-0.2182,0.0840,-0.5225,12.75,75.88,357.44,2.2468,5.6671,4.0050,7.2941
3,10,0,0,33.669,33669,-2.3000,10.0900,1.4700,10.4527,-0.2923,0.0676,-0.1745,15.38,77.63,354.75,1.6476,6.2500,3.6709,7.4332
3,10,0,0,33.790,33790,-2.2900,10.1600,1.7700,10.5642,0.0600,-0.1222,0.7941,13.00,78.81,358.25,1.1287,6.7652,3.4205,7.6643
3,10,0,0,33.912,33912,-0.7500,10.0000,2.0800,10.2415,0.2607,-0.4767,0.9174,6.81,78.25,7.50,0.8812,7.1915,3.2438,7.9383
3,10,0,0,34.032,34032,-2.7200,10.5500,2.4000,11.1562,0.6305,-0.9545,0.4451,4.44,75.81,16.38,0.4066,7.6340,3.1326,8.2618
3,10,0,0,34.200,34200,2.5100,8.2300,3.2300,9.1905,0.1233,1.0505,2.4947,-11.75,71.69,32.44,0.6838,7.7126,3.1455,8.3573
3,10,0,0,34.321,34321,4.1600,9.7400,2.1600,10.8092,-0.0851,0.8018,1.9068,-26.94,73.75,41.44,1.1419,7.9797,3.0156,8.6066
3,10,0,0,34.441,34441,3.5600,7.6700,2.4300,8.7981,-0.0044,0.4614,2.3027,-41.94,72.56,53.69,1.4605,7.9389,2.9384,8.5903
3,10,0,0,34.562,34562,8.3200,4.7100,0.4800,9.5727,-1.0941,2.0344,2.2471,-60.81,82.63,68.38,2.3644,7.5134,2.6145,8.2993
3,10,0,0,34.684,34684,10.3800,5.6400,-1.7200,11.9379,-0.4276,0.6578,1.5021,-69.69,114.06,80.31,3.4207,7.2666,2.0433,8.2873
3,10,0,0,34.805,34805,10.8400,1.5500,-0.3700,10.9565,-0.1625,-1.3548,2.1249,-84.00,176.19,96.31,4.3983,6.5133,1.7253,8.0464
3,10,0,0,34.931,34931,8.3800,0.6700,0.5500,8.4247,-0.2313,-1.6101,1.9602,-79.88,-53.50,109.50,4.9230,5.7433,1.5704,7.7258
3,10,0,0,35.053,35053,7.4600,-2.0400,1.9000,7.9639,-0.4691,-1.5272,2.4107,-57.69,-55.44,127.25,5.2573,4.7176,1.6138,7.2457
3,10,0,0,35.216,35216,3.3800,-4.6600,4.0200,7.0214,0.0022,-0.6316,1.7442,-35.56,-55.50,144.00,5.0100,3.4819,1.9309,6.3994
3,10,0,0,35.336,35336,6.0800,-6.6600,4.7800,10.2064,-0.4440,-0.1604,0.6949,-27.00,-56.81,153.31,5.1510,2.1455,2.3064,6.0378
3,10,0,0,35.457,35457,3.5500,-6.7800,4.8500,9.0605,-0.0938,-1.4486,-0.7789,-23.63,-53.69,150.13,4.9400,0.9693,2.6415,5.6851
3,10,0,0,35.582,35582,1.3500,-5.6300,6.2200,8.4975,-0.4560,-1.2185,-0.2574,-20.88,-46.94,140.44,4.4669,0.0997,3.1131,5.4456
3,10,0,0,35.705,35705,1.6300,-4.6800,6.4200,8.1102,-0.1865,-0.0491,-0.9632,-20.81,-42.25,134.06,4.0931,-0.5302,3.5489,5.4432
3,10,0,0,35.825,35825,3.2300,-4.8800,6.7100,8.9034,-0.2029,0.9905,-1.6722,-30.31,-39.69,126.25,3.9794,-1.1034,3.9654,5.7251
3,10,0,0,35.946,35946,5.8000,-1.4200,5.5500,8.1522,-0.4691,0.8901,-2.4544,-43.63,-31.69,115.63,4.2193,-1.1451,4.1742,6.0446
3,10,0,0,36.068,36068,6.6400,0.2700,5.4600,8.6008,0.2443,1.3221,-2.7751,-57.38,-13.50,96.94,4.5383,-0.9586,4.3437,6.3547
3,10,0,0,36.229,36229,7.8900,4.2400,2.9000,9.4149,-0.4821,1.0494,-3.6794,-63.19,40.13,69.50,4.9799,-0.2736,4.1534,6.4904
3,10,0,0,36.351,36351,4.3400,8.4500,1.8100,9.6703,-0.6774,0.1734,-3.4078,-44.69,69.13,46.31,4.8956,0.8760,3.8446,6.2861
3,10,0,0,36.472,36472,4.5800,10.8700,1.8300,11.9366,0.0589,0.2585,-2.5907,-27.00,75.44,27.44,4.8540,2.1929,3.5791,6.4172
