participant,rep,equipment_code,exercise_code,timestamp,timestamp_ms,accelX,accelY,accelZ,accelMag,gyroX,gyroY,gyroZ,roll,pitch,yaw,filteredX,filteredY,filteredZ,filteredMag
4,1,0,0,00.000,0,-6.1000,7.5800,0.6200,9.7494,0.0000,-0.0218,0.0196,38.50,84.94,336.13,-6.1129,7.5863,0.6531,9.7645
4,1,0,0,00.120,120,-6.1600,7.5700,0.6600,9.7819,0.0305,-0.0229,-0.0327,38.63,84.94,336.25,-6.1191,7.5841,0.6540,9.7668
4,1,0,0,00.286,286,-6.2900,7.6800,0.6600,9.9490,-0.0011,-0.0447,-0.0556,39.00,85.13,336.19,-6.1416,7.5967,0.6548,9.7908
4,1,0,0,00.409,409,-6.2900,7.6200,0.6700,9.9034,-0.0044,0.0098,0.0251,39.13,85.19,336.13,-6.1612,7.5998,0.6568,9.8056
4,1,0,0,00.529,529,-6.1100,7.5700,0.6000,9.7466,-0.0164,0.0196,0.0218,39.00,85.19,336.13,-6.1544,7.5959,0.6493,9.7978
4,1,0,0,00.650,650,-6.2200,7.6000,0.5400,9.8356,-0.0065,0.0229,-0.0513,39.00,85.06,336.00,-6.1631,7.5964,0.6349,9.8027
4,1,0,0,00.771,771,-6.2700,7.6000,0.5800,9.8696,-0.0153,-0.0087,-0.0349,39.19,85.00,335.69,-6.1772,7.5969,0.6277,9.8114
4,1,0,0,00.892,892,-6.1800,7.5700,0.6200,9.7919,-0.0175,-0.0065,-0.0164,39.31,85.13,335.50,-6.1775,7.5934,0.6267,9.8089
4,1,0,0,01.013,1013,-6.2000,7.5800,0.6400,9.8136,0.0011,0.0164,0.0600,39.31,85.19,335.50,-6.1805,7.5916,0.6284,9.8095
4,1,0,0,01.135,1135,-6.1000,7.7700,0.7500,9.9068,-0.0076,0.0535,0.1036,38.56,85.06,336.00,-6.1699,7.6151,0.6445,9.8221
4,1,0,0,01.301,1301,-5.8400,7.5900,0.6200,9.5968,0.0349,0.0404,0.0818,37.94,84.44,336.31,-6.1264,7.6118,0.6412,9.7920
4,1,0,0,01.422,1422,-5.5900,8.0000,0.8000,9.7922,0.0622,-0.0338,-0.0196,37.69,84.19,336.81,-6.0557,7.6630,0.6622,9.7893
4,1,0,0,01.542,1542,-5.4000,8.7200,1.3900,10.3504,-0.0589,0.1756,1.1094,34.94,83.56,339.25,-5.9693,7.8022,0.7581,9.8530
4,1,0,0,01.664,1664,-4.7300,10.5100,0.9700,11.5661,-0.3262,0.4145,1.4879,26.31,84.88,345.44,-5.8060,8.1591,0.7860,10.0448
4,1,0,0,01.784,1784,-2.1900,9.8200,1.7600,10.2140,-0.3392,0.4647,2.5929,12.94,85.25,354.63,-5.3295,8.3779,0.9143,9.9714
4,1,0,0,01.906,1906,0.8300,11.2500,-0.3200,11.2851,-0.2880,0.0284,2.6780,-7.00,88.63,13.69,-4.5178,8.7564,0.7517,9.8818
4,1,0,0,02.026,2026,1.9400,9.9500,0.3300,10.1427,0.8912,0.5498,0.6643,-17.38,86.25,21.25,-3.6669,8.9137,0.6961,9.6635
4,1,0,0,02.148,2148,4.4700,9.5100,0.8700,10.5441,1.7671,-0.9436,1.6090,-23.94,78.44,25.13,-2.5946,8.9923,0.7190,9.3867
4,1,0,0,02.314,2314,3.3500,5.6300,4.2400,7.8037,0.2476,-0.6076,1.5424,-31.69,59.44,39.63,-1.8113,8.5492,1.1830,8.8187
4,1,0,0,02.436,2436,5.6200,5.5900,2.9200,8.4474,-0.5880,0.8454,1.1290,-40.81,59.13,48.88,-0.8320,8.1593,1.4119,8.3222
4,1,0,0,02.556,2556,7.6200,5.8400,2.1400,9.8361,-0.7396,1.0352,1.0756,-50.13,66.63,55.31,0.2817,7.8536,1.5078,8.0020
4,1,0,0,02.677,2677,8.3900,5.5200,1.3500,10.1334,-0.5051,0.8083,0.8203,-57.88,76.81,61.00,1.3502,7.5461,1.4870,7.8089
4,1,0,0,02.798,2798,8.3400,4.3300,1.1200,9.4636,0.0196,0.0829,0.6632,-64.19,81.44,67.06,2.2713,7.1223,1.4387,7.6129
4,1,0,0,02.919,2919,8.3300,3.6300,1.2300,9.1694,0.5421,-0.0862,0.2356,-66.63,77.13,67.69,3.0697,6.6621,1.4112,7.4698
4,1,0,0,03.042,3042,7.4900,4.0500,1.7600,8.6948,0.3763,0.0229,0.0196,-67.63,72.06,66.38,3.6521,6.3179,1.4571,7.4416
4,1,0,0,03.167,3167,8.8400,2.3400,0.8500,9.1839,-0.0316,0.3742,1.0297,-72.94,72.38,69.94,4.3358,5.7937,1.3771,7.3663
4,1,0,0,03.329,3329,6.9200,0.0000,0.6500,6.9505,-0.0764,-0.0654,-1.0799,-75.31,74.75,72.06,4.6763,5.0303,1.2813,6.9866
4,2,0,0,03.450,3450,6.9700,3.3900,0.7200,7.7840,-0.3218,-0.2858,-1.8293,-64.69,79.38,63.13,4.9786,4.8141,1.2074,7.0299
4,2,0,0,03.571,3571,5.0700,6.9200,0.1900,8.5806,-0.4123,-0.2574,-2.4925,-49.81,83.06,50.50,4.9906,5.0916,1.0733,7.2099
4,2,0,0,03.695,3695,6.1400,8.7200,0.1100,10.6654,-0.3611,-0.3643,-1.8206,-36.81,85.25,40.75,5.1421,5.5697,0.9464,7.6393
4,2,0,0,03.819,3819,0.5100,9.3900,1.0000,9.4569,0.0055,-0.5781,-3.4285,-19.06,85.31,26.63,4.5317,6.0732,0.9534,7.6373
4,2,0,0,03.940,3940,-1.7200,9.9700,1.1500,10.1824,0.0578,-0.0098,-2.3180,-0.25,84.38,9.31,3.7079,6.5867,0.9793,7.6218
4,2,0,0,04.061,4061,-3.8200,10.5600,1.1700,11.2905,-0.2793,-0.3611,-2.4500,15.13,85.56,355.06,2.7159,7.1102,1.0045,7.6773
4,2,0,0,04.182,4182,-5.7900,9.1400,0.2200,10.8218,0.0513,-0.2585,-2.3922,29.13,87.19,342.75,1.5950,7.3777,0.9011,7.6018
4,2,0,0,04.346,4346,-7.6500,7.2800,0.8500,10.5945,0.6076,0.0665,-2.0693,46.94,82.25,327.13,0.3768,7.3648,0.8944,7.4285
4,2,0,0,04.471,4471,-7.6200,5.3100,1.5500,9.4161,0.5072,-0.2007,-0.8443,57.69,75.44,319.31,-0.6770,7.0941,0.9807,7.1935
4,2,0,0,04.592,4592,-9.4000,5.1400,1.0100,10.7610,0.2487,-0.4865,-0.5531,64.06,77.00,316.69,-1.8265,6.8366,0.9846,7.1445
4,2,0,0,04.713,4713,-10.1400,5.7700,1.1600,11.7243,0.2891,0.0938,1.1519,64.50,77.44,318.31,-2.9220,6.6960,1.0077,7.3750
4,2,0,0,04.834,4834,-6.7100,6.6400,0.9500,9.4877,0.5083,-0.2596,1.7170,51.19,79.69,334.94,-3.4211,6.6886,1.0001,7.5791
4,2,0,0,04.955,4955,-7.7200,7.4000,2.0800,10.8943,0.3480,-0.0120,1.6482,42.06,79.38,348.25,-3.9876,6.7824,1.1424,7.9503
4,2,0,0,05.077,5077,-6.0000,9.1300,2.1500,11.1346,0.0524,0.5465,1.7650,30.25,79.13,359.44,-4.2528,7.0917,1.2752,8.3669
4,2,0,0,05.203,5203,-4.4000,9.5300,2.2300,10.7310,0.0316,0.8988,1.8337,17.81,77.50,7.19,-4.2722,7.4130,1.4010,8.6699
4,2,0,0,05.365,5365,-1.2200,9.6700,2.1300,9.9767,0.1636,0.7799,2.3322,-4.13,76.06,21.75,-3.8700,7.7104,1.4971,8.7561
4,2,0,0,05.486,5486,1.7900,8.8800,1.9500,9.2661,0.1396,1.0821,1.9624,-19.75,75.56,31.19,-3.1242,7.8646,1.5568,8.6044
4,2,0,0,05.607,5607,4.4300,6.9600,1.1200,8.3259,0.0753,0.8803,1.6144,-33.19,76.81,38.38,-2.1287,7.7454,1.4992,8.1713
4,2,0,0,05.729,5729,5.3400,6.8700,1.1100,8.7718,0.2531,0.6087,0.6338,-40.75,78.13,41.44,-1.1445,7.6300,1.4479,7.8501
4,2,0,0,05.853,5853,6.3300,6.6900,1.2600,9.2958,0.0055,0.4669,0.8149,-45.31,79.44,42.31,-0.1596,7.5061,1.4232,7.6415
4,2,0,0,05.976,5976,7.8400,6.2000,0.8200,10.0289,-0.3218,0.2782,1.2894,-53.31,82.81,49.50,0.8946,7.3340,1.3437,7.5096
4,2,0,0,06.097,6097,7.2500,5.3000,0.5000,8.9946,-0.0175,0.1985,0.7756,-60.56,85.25,56.94,1.7321,7.0660,1.2325,7.3788
4,2,0,0,06.219,6219,8.1100,4.0100,0.5700,9.0652,0.3076,-0.2225,0.6938,-66.31,83.38,61.31,2.5725,6.6633,1.1452,7.2339
4,2,0,0,06.380,6380,8.4400,3.7200,1.5900,9.3595,0.4723,-0.2738,0.4963,-71.38,66.69,65.50,3.3457,6.2754,1.2038,7.2128
4,2,0,0,06.504,6504,8.4400,1.5500,1.5700,8.7236,0.1440,0.0949,1.1388,-76.63,54.13,69.75,4.0170,5.6527,1.2521,7.0468
4,2,0,0,06.628,6628,9.3500,0.2600,1.2500,9.4368,-0.2182,0.0491,0.6436,-81.63,26.88,77.19,4.7197,4.9421,1.2518,6.9475
4,2,0,0,06.749,6749,8.4500,-0.2800,1.4500,8.5781,-0.2553,-0.1102,-0.4527,-81.00,30.63,77.69,5.2113,4.2540,1.2779,6.8474
4,2,0,0,06.869,6869,7.5800,0.8200,2.0900,7.9055,-0.3480,-0.1734,-1.6832,-75.63,54.06,72.38,5.5234,3.8015,1.3849,6.8467
4,3,0,0,06.990,6990,6.1000,4.8300,1.3600,7.8986,-0.3818,-0.1494,-2.0126,-64.19,70.31,62.38,5.5994,3.9370,1.3816,6.9830
4,3,0,0,07.112,7112,5.8300,5.2300,1.1400,7.9146,-0.3382,0.0654,-1.9297,-52.69,77.81,52.06,5.6298,4.1074,1.3498,7.0984
4,3,0,0,07.232,7232,5.1300,7.9700,1.3500,9.5739,-0.0033,-0.1647,-1.9537,-37.13,81.19,37.38,5.5639,4.6164,1.3498,7.3546
4,3,0,0,07.394,7394,0.5400,9.9200,2.0600,10.1460,0.1145,-0.4254,-1.9864,-14.25,80.63,17.13,4.9019,5.3153,1.4434,7.3732
4,3,0,0,07.520,7520,-1.9500,10.3900,1.8900,10.7390,-0.0578,-0.2825,-2.5198,0.69,80.50,4.13,3.9990,5.9840,1.5023,7.3523
4,3,0,0,07.641,7641,-3.1600,10.2400,2.0900,10.9184,-0.0011,-0.2051,-2.0715,16.06,80.63,350.44,3.0556,6.5448,1.5797,7.3937
4,3,0,0,07.763,7763,-4.6300,9.8500,1.4800,10.9841,0.0425,-0.1167,-1.1988,27.88,79.75,339.13,2.0429,6.9804,1.5666,7.4399
4,3,0,0,07.883,7883,-5.7500,7.7400,1.2700,9.7254,0.1254,-0.2803,-0.7058,34.81,79.00,333.63,1.0160,7.0805,1.5275,7.3143
4,3,0,0,08.004,8004,-7.0500,7.4800,1.2400,10.3533,-0.0545,-0.3392,-0.6250,40.69,79.75,329.81,-0.0469,7.1331,1.4896,7.2871
4,3,0,0,08.127,8127,-6.8800,7.3700,1.3500,10.1722,-0.1124,-0.0273,-0.4505,44.63,80.88,327.19,-0.9474,7.1643,1.4712,7.3749
4,3,0,0,08.248,8248,-7.1900,7.4900,1.3800,10.4738,-0.0742,0.2313,-0.1745,46.25,80.25,325.38,-1.7700,7.2072,1.4592,7.5635
4,3,0,0,08.413,8413,-6.3500,7.8300,1.2300,10.1560,-0.0327,0.3316,1.2501,38.69,79.19,330.69,-2.3735,7.2893,1.4290,7.7980
4,3,0,0,08.534,8534,-6.3000,8.4000,1.5700,10.6167,0.2913,0.5640,0.6960,32.50,77.19,335.31,-2.8909,7.4357,1.4476,8.1081
4,3,0,0,08.655,8655,-5.7300,8.7100,2.8600,10.8109,0.3338,0.3862,1.0276,26.69,73.56,338.94,-3.2650,7.6036,1.6337,8.4347
4,3,0,0,08.776,8776,-3.5000,9.0600,3.1200,10.2014,-0.0764,0.0240,3.0761,13.38,73.50,351.88,-3.2960,7.7955,1.8295,8.6591
4,3,0,0,08.897,8897,0.3900,10.1400,2.6100,10.4778,-0.3807,0.0764,3.0271,-7.94,75.81,14.38,-2.8103,8.1045,1.9324,8.7928
4,3,0,0,09.018,9018,1.7300,9.6500,1.9500,9.9959,-0.0600,0.1844,1.6559,-22.13,76.75,27.38,-2.2120,8.3081,1.9347,8.8125
4,3,0,0,09.140,9140,3.4000,8.2500,1.6100,9.0672,0.3992,0.2694,1.3690,-33.69,74.75,37.56,-1.4725,8.3005,1.8919,8.6397
4,3,0,0,09.266,9266,5.5600,6.5800,2.0500,8.8551,0.4265,0.5334,1.1323,-42.19,72.00,42.31,-0.5458,8.0737,1.9128,8.3152
4,3,0,0,09.427,9427,6.9800,6.0400,1.7900,9.4025,-0.0011,0.4091,0.9272,-52.44,72.00,47.75,0.4459,7.8057,1.8966,8.0452
4,3,0,0,09.548,9548,7.9600,5.2000,1.7000,9.6588,0.0458,-0.0022,1.4824,-59.81,70.13,54.56,1.4361,7.4624,1.8707,7.8262
4,3,0,0,09.669,9669,7.6100,2.4000,2.2200,8.2825,0.1494,-0.1844,1.6592,-68.50,58.94,64.19,2.2497,6.7953,1.9167,7.4102
4,3,0,0,09.792,9792,7.6400,0.4900,2.4500,8.0382,-0.0600,-0.1833,0.4352,-73.94,39.31,72.63,2.9600,5.9644,1.9870,6.9486
4,3,0,0,09.917,9917,7.7700,0.7700,2.4200,8.1745,-0.2891,0.0545,-0.8334,-73.44,41.00,73.13,3.5938,5.2799,2.0440,6.7061
4,3,0,0,10.039,10039,6.3200,3.2800,2.0100,7.3987,-0.4952,0.3523,-1.9951,-66.31,62.50,65.38,3.9531,5.0164,2.0396,6.7045
4,4,0,0,10.159,10159,6.8800,5.2600,0.6100,8.6818,-0.8116,0.2487,-1.9057,-55.44,78.75,54.63,4.3387,5.0485,1.8512,6.9093
4,4,0,0,10.280,10280,5.1600,8.0100,0.1600,9.5295,-0.6480,0.3480,-2.5525,-39.81,87.75,40.69,4.4470,5.4387,1.6283,7.2116
4,4,0,0,10.442,10442,0.4300,10.7900,-0.3500,10.8042,-0.2585,0.2007,-2.1020,-12.13,92.56,12.31,3.9176,6.1439,1.3676,7.4139
4,4,0,0,10.565,10565,-1.4300,10.1900,-1.0800,10.3464,-0.3949,-0.1080,-1.5064,-0.13,94.81,0.44,3.2130,6.6771,1.0451,7.4832
4,4,0,0,10.690,10690,-4.2400,9.0200,-1.7100,10.1125,-0.2083,-0.2247,-2.4533,13.50,97.44,348.00,2.2308,6.9858,0.6820,7.3650
4,4,0,0,10.811,10811,-5.0300,9.8600,-1.8500,11.2224,0.4047,-0.1909,-2.1064,27.38,98.06,335.63,1.2740,7.3646,0.3484,7.4821
4,4,0,0,10.933,10933,-8.3900,7.7900,-0.6800,11.4690,1.0145,0.0709,-1.6461,43.19,94.13,323.44,0.0006,7.4206,0.2129,7.4237
4,4,0,0,11.053,11053,-8.2600,6.4100,-0.0400,10.4555,1.0330,-0.3011,-1.8391,52.50,89.06,320.13,-1.0880,7.2874,0.1795,7.3704
4,4,0,0,11.174,11174,-9.1300,5.3800,1.2300,10.6684,0.7985,0.0556,-0.2607,62.88,81.38,315.13,-2.1477,7.0361,0.3180,7.3634
4,4,0,0,11.295,11295,-9.1200,5.4300,0.9200,10.6539,0.2618,-0.1898,0.2749,61.69,80.94,319.63,-3.0665,6.8244,0.3973,7.4923
4,4,0,0,11.457,11457,-7.9300,6.5700,1.0000,10.3465,-0.1102,0.3283,1.9668,49.31,81.44,332.63,-3.7074,6.7909,0.4767,7.7517
4,4,0,0,11.583,11583,-7.4700,8.6100,1.3500,11.4785,-0.1178,0.6654,1.8915,37.13,81.06,342.00,-4.2032,7.0306,0.5918,8.2126
4,4,0,0,11.704,11704,-5.3300,9.3600,1.6900,10.9030,-0.3469,0.7876,2.7434,19.50,81.06,354.25,-4.3517,7.3376,0.7365,8.5627
4,4,0,0,11.825,11825,-0.8500,8.6900,0.7400,8.7628,-0.9501,0.7145,3.6423,-2.63,85.06,11.06,-3.8902,7.5158,0.7370,8.4950
4,4,0,0,11.946,11946,0.8000,9.6600,-1.0200,9.7466,-0.7025,0.6654,2.2078,-21.44,92.50,27.31,-3.2722,7.7983,0.5054,8.4721
4,4,0,0,12.066,12066,4.2700,7.0200,-0.7900,8.2545,-0.5334,0.4102,1.7704,-34.69,98.50,38.81,-2.2783,7.6958,0.3347,8.0329
4,4,0,0,12.188,12188,5.0800,8.4700,-2.3000,10.1409,0.2203,0.2705,0.8836,-41.56,103.13,45.50,-1.3087,7.7978,-0.0124,7.9069
4,4,0,0,12.308,12308,6.9800,7.2300,-1.0700,10.1063,1.2261,-0.7309,0.4789,-45.81,96.69,46.56,-0.2164,7.7230,-0.1518,7.7275
4,4,0,0,12.475,12475,4.9700,6.2400,1.5300,8.1228,1.3810,-0.9228,0.0884,-47.69,74.88,45.56,0.4670,7.5276,0.0698,7.5424
4,4,0,0,12.597,12597,5.3300,6.3200,3.7000,9.0577,0.4112,-0.3567,0.7232,-47.94,62.88,45.69,1.1078,7.3684,0.5482,7.4714
4,4,0,0,12.717,12717,6.9800,5.3100,3.3500,9.3882,-0.1822,0.2662,1.6930,-55.06,57.63,53.50,1.8816,7.0972,0.9174,7.3995
4,4,0,0,12.838,12838,6.9200,2.6900,2.1300,7.7239,-0.1505,-0.0284,2.6027,-66.44,45.00,67.88,2.5456,6.5164,1.0772,7.0784
4,4,0,0,12.960,12960,8.3500,1.7300,3.5600,9.2406,0.5029,-0.1353,1.0494,-72.19,13.81,78.50,3.3104,5.8857,1.4044,6.8973
4,4,0,0,13.081,13081,7.2200,-0.4800,2.8300,7.7697,0.7723,0.0840,1.4290,-71.50,-17.63,83.88,3.8256,5.0469,1.5922,6.5300
4,4,0,0,13.202,13202,8.4600,-3.6200,2.9000,9.6481,-0.0349,-0.1058,-0.3065,-68.75,-36.69,87.75,4.4363,3.9048,1.7645,6.1678
4,4,0,0,13.324,13324,8.1800,-1.6900,2.8000,8.8096,-0.5901,0.1691,-0.8574,-71.44,-19.88,83.88,4.9296,3.1675,1.9010,6.1602
4,5,0,0,13.489,13489,6.8600,2.1600,1.9200,7.4439,-1.0614,0.2291,-2.6387,-70.63,39.94,71.88,5.1840,3.0348,1.9035,6.3014
4,5,0,0,13.610,13610,6.2100,6.1100,1.1300,8.7848,-1.0559,0.0065,-2.8983,-56.13,68.88,58.88,5.3192,3.4400,1.8016,6.5858
4,5,0,0,13.731,13731,1.8300,8.0700,1.0500,8.3412,-0.9381,0.3022,-3.3587,-35.81,81.88,41.31,4.8594,4.0501,1.7025,6.5510
4,5,0,0,13.853,13853,-0.7900,11.0400,-0.3600,11.0741,-0.8083,0.3982,-3.0260,-15.44,90.31,20.75,4.1150,4.9712,1.4307,6.6101
4,5,0,0,13.973,13973,-1.8400,11.6200,-0.6000,11.7801,0.0720,0.2116,-2.5275,1.63,93.19,2.44,3.3303,5.8474,1.1631,6.8290
4,5,0,0,14.094,14094,-2.7200,10.4400,0.1700,10.7899,1.1541,-0.1374,-1.7519,15.94,88.13,348.56,2.5330,6.4525,1.0323,7.0083
4,5,0,0,14.216,14216,-5.7000,7.7700,1.6100,9.7701,1.0276,-0.1134,-2.1926,29.63,80.06,338.75,1.4481,6.6262,1.1084,6.8725
4,5,0,0,14.341,14341,-6.2600,6.5900,1.6900,9.2451,0.1593,-0.2553,-0.9348,40.06,75.44,330.50,0.4324,6.6214,1.1850,6.7405
4,5,0,0,14.504,14504,-9.0100,5.4400,1.7500,10.6694,0.2454,0.1298,-0.5683,51.88,70.94,320.63,-0.8119,6.4657,1.2595,6.6371
4,5,0,0,14.624,14624,-7.8900,5.1700,1.5700,9.5627,0.3131,-0.2814,-0.8792,55.00,68.81,319.13,-1.7446,6.2950,1.3004,6.6604
4,5,0,0,14.746,14746,-9.8000,3.7200,1.9600,10.6640,0.6240,0.3338,-1.7704,63.69,58.31,312.88,-2.8061,5.9557,1.3873,6.7282
4,5,0,0,14.866,14866,-10.0000,1.6700,2.9800,10.5674,0.3763,0.6294,-1.0396,68.63,32.44,306.00,-3.7541,5.3909,1.5972,6.7606
4,5,0,0,14.990,14990,-8.1000,2.1800,3.4500,9.0700,0.0578,-0.2694,1.3166,64.88,35.50,310.56,-4.3268,4.9678,1.8414,6.8404
4,5,0,0,15.111,15111,-8.9400,4.2100,2.8200,10.2762,-0.6992,-0.9087,3.9706,55.63,62.56,326.75,-4.9347,4.8679,1.9703,7.2062
4,5,0,0,15.234,15234,-7.9800,8.0100,1.0800,11.3581,-0.8345,0.2389,3.3259,33.06,79.69,348.81,-5.3360,5.2820,1.8530,7.7334
4,5,0,0,15.355,15355,-3.4600,10.0500,0.9600,10.6722,-0.6163,0.5661,1.7617,13.13,84.44,4.00,-5.0888,5.9103,1.7353,7.9899
4,5,0,0,15.518,15518,0.4100,9.9700,0.4500,9.9886,-0.5738,0.0731,2.1980,-7.13,88.06,20.06,-4.3642,6.4453,1.5659,7.9397
4,5,0,0,15.641,15641,1.2900,9.9200,-0.9600,10.0495,-0.2258,-0.1789,2.6158,-22.94,90.75,37.31,-3.6191,6.9031,1.2331,7.8912
4,5,0,0,15.762,15762,4.4100,8.7600,-0.9100,9.8496,0.1200,-0.0851,1.6908,-38.75,90.56,54.00,-2.5611,7.1478,0.9507,7.6521
4,5,0,0,15.886,15886,6.4800,6.5700,-0.1800,9.2297,0.1309,-0.1222,1.8097,-52.81,88.19,67.19,-1.3697,7.0717,0.8017,7.2476
4,5,0,0,16.007,16007,6.5000,5.8500,0.1300,8.7458,0.4374,-0.0022,0.7058,-61.25,84.94,74.56,-0.3327,6.9107,0.7132,6.9554
4,5,0,0,16.128,16128,8.3500,4.3600,0.6800,9.4443,0.3971,-0.0338,0.9839,-68.06,80.31,79.00,0.8115,6.5746,0.7088,6.6623
4,5,0,0,16.249,16249,8.5600,3.5200,0.8000,9.2900,0.3938,-0.1811,0.8574,-73.81,71.25,81.25,1.8326,6.1721,0.7208,6.4786
4,5,0,0,16.370,16370,8.5100,2.7600,0.8700,8.9886,0.4396,0.0022,0.6490,-78.31,55.25,82.81,2.7125,5.7224,0.7405,6.3759
4,5,0,0,16.535,16535,9.5400,2.1200,1.3500,9.8655,0.3894,-0.1036,0.4200,-80.88,44.44,80.13,3.6122,5.2477,0.8208,6.4234
4,5,0,0,16.659,16659,8.6300,1.2100,1.5900,8.8583,0.6043,-0.3676,0.7865,-81.00,8.06,81.94,4.2734,4.7157,0.9222,6.4304
4,5,0,0,16.780,16780,7.9800,-0.0500,2.4600,8.3507,0.6458,-0.5629,0.9785,-76.50,-25.88,84.38,4.7618,4.0877,1.1248,6.3757
4,5,0,0,16.900,16900,8.0200,-1.4900,3.1000,8.7264,0.5127,-0.1920,0.6327,-71.44,-39.94,86.19,5.1912,3.3527,1.3851,6.3330
4,5,0,0,17.021,17021,7.8300,-3.4800,2.1400,8.8317,-0.1702,-0.0633,-0.2803,-70.06,-44.00,86.19,5.5389,2.4523,1.4846,6.2368
4,6,0,0,17.143,17143,6.9900,-1.4400,1.9100,7.3879,-0.8094,0.1298,-2.0660,-74.44,-19.69,80.69,5.7301,1.9394,1.5406,6.2425
4,6,0,0,17.263,17263,6.7500,3.6700,2.0400,7.9494,-0.9370,0.3316,-2.6278,-71.31,48.19,67.19,5.8645,2.1674,1.6064,6.4553
4,6,0,0,17.385,17385,6.9800,6.9300,1.2700,9.9176,-0.7767,0.1080,-2.3911,-56.63,73.94,54.00,6.0115,2.7950,1.5621,6.8111
4,6,0,0,17.551,17551,3.2900,8.5900,0.3000,9.2034,-0.5116,-0.0109,-2.5765,-33.06,84.63,33.25,5.6529,3.5587,1.3958,6.8240
4,6,0,0,17.672,17672,0.1300,10.8100,0.0700,10.8110,-0.1233,0.0109,-2.0377,-17.19,87.19,17.94,4.9251,4.5142,1.2211,6.7916
4,6,0,0,17.792,17792,-0.3400,10.6500,0.8400,10.6885,0.0960,-0.1113,-2.0137,-5.25,87.25,6.50,4.2313,5.3227,1.1709,6.8997
4,6,0,0,17.914,17914,-3.0400,10.2600,0.6000,10.7177,0.0960,-0.1691,-1.3286,6.06,86.56,356.31,3.2731,5.9733,1.0956,6.8989
4,6,0,0,18.034,18034,-3.7300,9.8100,0.6200,10.5135,0.1254,-0.1189,-1.2654,14.56,85.94,349.38,2.3503,6.4789,1.0330,6.9690
4,6,0,0,18.155,18155,-4.9700,9.0400,0.6800,10.3385,0.3283,-0.1440,-1.2763,22.75,84.63,343.00,1.3857,6.8164,0.9865,7.0254
4,6,0,0,18.276,18276,-5.5100,8.5500,1.0300,10.2237,0.2825,-0.2476,-0.8868,30.50,82.44,338.44,0.4770,7.0448,0.9922,7.1303
4,6,0,0,18.397,18397,-5.9700,8.7300,0.6900,10.5986,0.0218,-0.1658,-0.1451,34.31,82.50,336.81,-0.3726,7.2669,0.9524,7.3385
4,6,0,0,18.564,18564,-5.6600,8.0000,0.8600,9.8374,-0.0731,0.0556,0.5007,32.44,82.94,338.94,-1.0693,7.3635,0.9402,7.4999
4,6,0,0,18.686,18686,-5.9500,8.7600,0.9300,10.6304,-0.0709,0.0545,0.4800,28.19,83.69,342.81,-1.7125,7.5475,0.9389,7.7961
4,6,0,0,18.806,18806,-4.3500,8.6600,1.3800,9.7889,-0.1582,0.2258,1.1345,22.25,83.94,347.56,-2.0600,7.6941,0.9970,8.0273
4,6,0,0,18.927,18927,-3.3400,9.1200,0.9200,9.7558,-0.2182,0.4974,1.0461,15.25,84.88,351.88,-2.2287,7.8820,0.9868,8.2503
4,6,0,0,19.048,19048,-2.5500,9.7900,0.7300,10.1430,0.1691,0.1374,0.6010,9.06,84.94,355.75,-2.2710,8.1334,0.9530,8.4982
4,6,0,0,19.170,19170,-2.7500,10.0200,1.2800,10.4691,0.8607,0.0142,0.5640,4.94,81.13,0.19,-2.3341,8.3820,0.9961,8.7578
4,6,0,0,19.296,19296,-1.2300,9.6300,2.6400,10.0608,0.3720,0.3676,1.0974,-0.94,76.25,4.94,-2.1886,8.5465,1.2127,8.9052
4,6,0,0,19.418,19418,0.6000,10.8300,2.0200,11.0331,-0.1156,0.6218,1.7311,-12.06,76.69,12.69,-1.8212,8.8474,1.3191,9.1287
4,6,0,0,19.579,19579,2.7600,8.6600,1.6100,9.2307,0.2258,0.0862,2.2787,-30.25,75.56,27.81,-1.2175,8.8227,1.3574,9.0092
4,6,0,0,19.700,19700,4.4300,6.4300,1.9300,8.0433,0.4102,-0.0502,1.7366,-42.00,70.63,38.81,-0.4733,8.5074,1.4329,8.6402
4,6,0,0,19.821,19821,5.9200,6.5200,2.9500,9.2876,0.3414,-0.1865,0.9403,-48.81,64.06,45.56,0.3692,8.2455,1.6328,8.4137
4,6,0,0,19.944,19944,6.8300,5.4700,3.0700,9.2733,0.7156,-0.3153,1.0614,-54.44,54.88,51.13,1.2205,7.8798,1.8222,8.1793
4,6,0,0,20.069,20069,7.6300,4.0600,3.6700,9.3899,1.2010,-0.7450,0.5280,-56.50,36.75,54.25,2.0652,7.3764,2.0657,7.9337
4,6,0,0,20.190,20190,6.0200,2.8000,5.7100,8.7570,1.5828,-0.9796,0.4658,-51.69,20.88,51.50,2.5863,6.7734,2.5459,7.6843
4,6,0,0,20.311,20311,5.0900,1.3400,7.8800,9.4762,0.9719,-0.3142,0.4996,-47.88,8.00,49.50,2.9162,6.0574,3.2488,7.4667
4,6,0,0,20.433,20433,6.2300,1.1200,7.5000,9.8141,0.2913,0.6632,0.8399,-49.69,-1.75,52.75,3.3529,5.4068,3.8090,7.4151
4,6,0,0,20.595,20595,7.2400,-0.8600,5.4000,9.0729,0.0240,0.4527,0.8454,-54.75,-13.88,60.75,3.8651,4.5810,4.0187,7.2162
4,6,0,0,20.721,20721,6.7900,-2.4800,5.1400,8.8698,-0.1385,-0.0284,-0.2378,-55.44,-18.31,63.50,4.2505,3.6505,4.1664,6.9823
4,7,0,0,20.842,20842,7.0700,-1.5300,5.4300,9.0449,-0.2138,-0.5061,-1.2250,-54.38,-9.56,58.88,4.6221,2.9679,4.3329,6.9961
4,7,0,0,20.962,20962,6.4000,2.0300,5.7200,8.8204,-0.7538,-0.7690,-1.4039,-50.06,6.38,50.00,4.8564,2.8443,4.5157,7.2157
4,7,0,0,21.083,21083,5.2800,3.9800,6.0300,8.9487,-0.7690,-0.6425,-1.4432,-43.50,20.31,43.19,4.9122,2.9939,4.7153,7.4382
4,7,0,0,21.204,21204,3.3800,4.4200,6.2100,8.3382,-0.8607,-0.7156,-1.3330,-35.88,30.81,37.44,4.7103,3.1818,4.9122,7.5127
4,7,0,0,21.325,21325,2.7200,6.6300,6.9100,9.9551,-0.8683,-0.9021,-1.5817,-25.56,39.81,31.31,4.4480,3.6362,5.1755,7.7326
4,7,0,0,21.446,21446,1.1800,6.7400,5.9400,9.0611,-0.9676,-0.8574,-1.1923,-15.44,47.00,26.13,4.0174,4.0452,5.2762,7.7680
4,7,0,0,21.614,21614,-2.7800,8.5600,4.8100,10.2048,-1.0505,-1.1552,-1.0647,1.63,56.06,16.63,3.1217,4.6402,5.2148,7.6466
4,7,0,0,21.735,21735,-4.2500,8.2600,3.2400,9.8381,-1.6090,-0.7341,-1.1923,12.13,65.63,11.44,2.1503,5.1172,4.9546,7.4402
4,7,0,0,21.855,21855,-5.7100,8.9700,0.8200,10.6648,-1.9853,-0.2989,-1.2654,20.88,78.56,2.94,1.1145,5.6249,4.4097,7.2337
4,7,0,0,21.977,21977,-6.7800,8.8100,-0.5400,11.1300,-1.4715,0.1560,-1.5359,30.31,89.75,348.75,0.0742,6.0446,3.7575,7.1177
4,7,0,0,22.097,22097,-7.1900,8.6000,-0.7000,11.2315,-0.7178,0.2487,-1.3679,40.69,96.00,333.06,-0.8830,6.3813,3.1701,7.1799
4,7,0,0,22.218,22218,-7.4200,7.6700,-1.0100,10.7194,-0.3153,0.3763,-0.6403,46.81,97.94,323.19,-1.7445,6.5511,2.6193,7.2678
4,7,0,0,22.339,22339,-7.1400,7.5800,-1.1600,10.4777,-0.1309,0.2313,0.3305,47.56,97.00,319.94,-2.4554,6.6867,2.1213,7.4324
4,7,0,0,22.463,22463,-7.1900,7.7900,-1.1900,10.6675,0.2193,0.1429,0.8978,42.50,95.19,324.50,-3.0793,6.8321,1.6849,7.6811
4,7,0,0,22.627,22627,-6.7000,7.8700,-0.1100,10.3363,0.6981,0.2073,1.3581,31.56,88.19,338.56,-3.5565,6.9689,1.4484,7.9568
4,7,0,0,22.748,22748,-5.6600,7.9900,0.6000,9.8100,0.3447,0.2073,1.2545,22.31,84.19,349.13,-3.8336,7.1034,1.3366,8.1818
4,7,0,0,22.870,22870,-3.5100,9.5900,1.4000,10.3077,0.2509,0.4265,1.2032,14.19,82.13,356.00,-3.7910,7.4311,1.3450,8.4500
4,7,0,0,22.990,22990,-2.2400,10.2800,1.9400,10.6986,0.1844,0.4309,1.3581,6.06,80.38,1.56,-3.5866,7.8065,1.4234,8.7081
4,7,0,0,23.112,23112,-1.7300,10.1000,1.5200,10.3592,0.1113,0.5258,1.3897,-3.31,79.38,8.19,-3.3420,8.1087,1.4361,8.8872
4,7,0,0,23.232,23232,0.7400,8.9100,1.2300,9.0249,0.2749,0.5356,1.4497,-14.06,78.44,15.44,-2.8041,8.2143,1.4089,8.7933
4,7,0,0,23.357,23357,1.6100,8.2600,1.5500,8.5570,0.2694,0.2607,0.9621,-22.06,76.69,20.50,-2.2224,8.2203,1.4275,8.6343
4,7,0,0,23.480,23480,3.0000,8.1400,2.0100,8.9050,-0.0196,0.3534,0.6981,-27.75,76.19,23.56,-1.5342,8.2098,1.5043,8.4863
4,7,0,0,23.642,23642,5.2700,8.5500,1.5000,10.1551,-0.0327,0.1287,1.0374,-37.00,77.38,31.06,-0.6376,8.2546,1.5037,8.4146
4,7,0,0,23.763,23763,5.8200,7.8200,1.7900,9.9110,0.1505,0.0687,1.0439,-42.81,75.81,36.56,0.2133,8.1973,1.5414,8.3437
4,7,0,0,23.884,23884,5.4900,6.4200,2.0400,8.6901,0.5225,-0.3414,0.7047,-49.19,70.44,42.69,0.9087,7.9631,1.6071,8.1743
4,7,0,0,24.009,24009,7.3600,5.3200,2.9800,9.5578,0.7287,-0.1593,1.1290,-54.00,61.31,46.44,1.7588,7.6148,1.7880,8.0172
4,7,0,0,24.132,24132,7.2300,4.5300,3.8100,9.3440,0.4898,-0.0447,0.8683,-59.38,48.75,51.50,2.4798,7.2083,2.0545,7.8949
4,7,0,0,24.253,24253,7.9400,2.7800,3.8800,9.2643,0.2509,0.1756,0.7069,-63.94,40.44,54.88,3.1993,6.6248,2.2950,7.7065
4,7,0,0,24.374,24374,8.6100,2.6600,3.3700,9.6210,-0.0491,-0.0425,0.3523,-66.31,34.81,58.13,3.9123,6.1023,2.4367,7.6473
4,7,0,0,24.495,24495,7.7800,3.3800,3.8900,9.3319,-0.0109,0.0774,0.0338,-66.38,34.25,58.69,4.4219,5.7436,2.6282,7.7104
4,7,0,0,24.660,24660,8.5800,1.3400,2.9100,9.1586,0.0404,-0.1254,-0.1178,-67.63,31.94,60.06,4.9699,5.1633,2.6653,7.6461
4,8,0,0,24.784,24784,7.2700,2.4500,3.6300,8.4872,-0.2476,-0.3556,-1.2588,-62.81,39.81,55.44,5.2730,4.8058,2.7925,7.6614
4,8,0,0,24.905,24905,6.9100,4.4700,3.7200,9.0315,-0.5171,-0.0851,-1.0799,-56.63,49.31,50.44,5.4887,4.7615,2.9147,7.8290
4,8,0,0,25.025,25025,6.1100,6.0000,3.0000,9.0737,-0.8563,0.0524,-0.6687,-51.56,59.44,46.88,5.5706,4.9247,2.9259,7.9903
4,8,0,0,25.146,25146,6.1500,5.8500,2.3000,8.7940,-0.7450,-0.0207,-0.9381,-46.31,68.19,44.00,5.6469,5.0466,2.8434,8.0896
4,8,0,0,25.267,25267,5.0000,7.9300,2.1100,9.6092,-0.5694,-0.2302,-2.1609,-35.69,74.38,36.00,5.5617,5.4266,2.7468,8.2417
4,8,0,0,25.389,25389,1.4200,9.1100,1.1700,9.2939,-0.7189,-0.2814,-2.3017,-23.00,79.69,25.88,5.0159,5.9120,2.5390,8.1583
4,8,0,0,25.509,25509,0.0700,10.4100,0.8900,10.4482,-0.5531,-0.2073,-1.6210,-10.63,84.00,16.00,4.3642,6.5047,2.3217,8.1699
4,8,0,0,25.676,25676,-2.6200,10.3200,0.2900,10.6513,-0.1549,-0.2171,-1.2741,2.75,87.38,4.94,3.4438,7.0075,2.0540,8.0736
4,8,0,0,25.797,25797,-2.6800,9.7500,0.2100,10.1138,0.2356,-0.2247,-1.2315,11.56,87.13,358.19,2.6369,7.3689,1.8110,8.0332
4,8,0,0,25.918,25918,-5.3600,8.8000,0.8600,10.3397,0.2891,0.0982,-1.6144,22.19,84.75,348.56,1.5831,7.5574,1.6857,7.9033
4,8,0,0,26.040,26040,-5.9700,8.3800,0.8500,10.3241,0.0240,-0.0731,-1.5163,32.50,83.50,338.81,0.5878,7.6658,1.5756,7.8481
4,8,0,0,26.160,26160,-8.0400,7.2100,0.7600,10.8260,0.1189,0.0044,-0.6916,41.31,82.38,331.06,-0.5491,7.6058,1.4681,7.7656
4,8,0,0,26.282,26282,-6.7300,6.6200,0.6100,9.4599,0.0022,-0.2738,-0.2629,42.69,82.69,331.31,-1.3636,7.4759,1.3550,7.7191
4,8,0,0,26.403,26403,-8.0500,6.6000,0.4900,10.4213,-0.0491,-0.2989,-0.5618,46.63,84.81,329.81,-2.2447,7.3605,1.2410,7.7946
4,8,0,0,26.529,26529,-7.6700,6.6900,0.5300,10.1915,0.0055,-0.0960,-0.2967,49.25,86.13,328.38,-2.9596,7.2721,1.1473,7.9347
4,8,0,0,26.692,26692,-7.7300,6.5400,0.2900,10.1296,0.0415,0.0545,0.3458,47.94,86.19,330.50,-3.5882,7.1756,1.0344,8.0892
4,8,0,0,26.812,26812,-7.4900,6.8300,0.4100,10.1448,-0.0425,0.1342,0.6676,44.25,85.69,333.94,-4.1024,7.1301,0.9521,8.2810
4,8,0,0,26.933,26933,-7.1600,8.2400,0.8700,10.9508,0.0240,0.2127,1.1661,38.31,85.31,338.88,-4.5053,7.2763,0.9413,8.6098
4,8,0,0,27.054,27054,-5.7600,9.3200,1.2500,11.0274,0.1953,0.2923,1.2032,30.13,83.75,345.81,-4.6706,7.5456,0.9820,8.9284
4,8,0,0,27.179,27179,-4.8700,9.4900,1.3700,10.7543,0.1396,0.3589,1.6101,20.75,82.00,354.00,-4.6969,7.8019,1.0331,9.1650
4,8,0,0,27.300,27300,-3.3100,9.4800,1.2100,10.1139,-0.0011,0.5923,1.5566,8.94,81.31,2.56,-4.5142,8.0230,1.0564,9.2662
4,8,0,0,27.423,27423,-1.3800,8.8800,1.1300,9.0574,-0.2411,0.6698,1.4061,-2.50,82.06,9.31,-4.1012,8.1359,1.0661,9.1733
4,8,0,0,27.543,27543,0.5300,9.1700,0.7500,9.2159,-0.1527,0.4560,0.8956,-10.88,84.00,13.94,-3.4909,8.2722,1.0244,9.0369
4,8,0,0,27.706,27706,2.6600,8.8900,0.8000,9.3138,0.3174,0.1636,1.0472,-18.94,83.50,19.38,-2.6804,8.3536,0.9949,8.8293
4,8,0,0,27.826,27826,3.3200,8.5000,1.0800,9.1891,0.2913,0.0273,0.8465,-24.56,81.31,23.69,-1.8897,8.3729,1.0061,8.6422
4,8,0,0,27.947,27947,3.8400,8.8000,1.5700,9.7288,0.3196,-0.1080,0.5825,-28.38,78.94,27.13,-1.1346,8.4292,1.0804,8.5735
4,8,0,0,28.072,28072,5.0300,8.4100,2.0500,10.0116,0.3567,-0.1047,1.3177,-33.31,75.63,31.50,-0.3223,8.4266,1.2082,8.5189
4,8,0,0,28.195,28195,4.7000,6.7100,2.6700,8.6164,0.2705,-0.2018,1.0701,-40.50,70.38,38.63,0.3395,8.2004,1.4008,8.3261
4,8,0,0,28.315,28315,5.9200,6.2000,3.0500,9.0988,-0.0207,0.1025,1.2752,-46.75,66.69,45.00,1.0749,7.9368,1.6181,8.1711
4,8,0,0,28.437,28437,7.6000,4.5900,2.6600,9.2684,-0.2880,-0.1080,0.8116,-52.56,64.81,52.00,1.9347,7.4958,1.7554,7.9380
4,8,0,0,28.557,28557,7.6000,4.9200,2.7300,9.4562,-0.1080,-0.1091,-0.1189,-53.56,64.38,54.69,2.6813,7.1564,1.8838,7.8709
4,9,0,0,28.720,28720,6.3000,5.5000,3.2500,8.9723,-0.1396,-0.0665,-0.4811,-50.06,65.19,52.44,3.1581,6.9381,2.0639,7.8975
4,9,0,0,28.846,28846,6.2700,5.4800,2.3800,8.6607,-0.4658,0.1527,-0.5596,-47.13,68.94,49.25,3.5682,6.7460,2.1055,7.9166
4,9,0,0,28.968,28968,6.0100,5.9000,1.4700,8.5493,-0.7112,0.1058,-1.0843,-41.88,76.25,44.81,3.8900,6.6345,2.0218,7.9521
4,9,0,0,29.088,29088,2.9500,8.1000,0.7000,8.6488,-0.6556,0.0404,-1.9700,-32.31,82.50,37.00,3.7661,6.8276,1.8476,8.0133
4,9,0,0,29.209,29209,2.6500,10.0000,0.1200,10.3459,-0.3840,0.0665,-1.4224,-21.63,86.75,26.88,3.6190,7.2456,1.6199,8.2596
4,9,0,0,29.330,29330,1.7800,9.7100,0.0800,9.8721,-0.1549,-0.2040,-0.9479,-13.00,88.38,18.94,3.3767,7.5704,1.4170,8.4096
4,9,0,0,29.451,29451,-0.1200,9.5100,0.0500,9.5109,-0.0611,-0.2367,-1.1857,-6.38,88.69,14.19,2.9159,7.8260,1.2369,8.4427
4,9,0,0,29.572,29572,-1.2500,10.4800,-0.0400,10.5544,-0.1505,-0.1658,-1.2774,2.38,89.31,6.44,2.3669,8.1757,1.0686,8.5783
4,9,0,0,29.739,29739,-2.2600,10.0200,-0.1800,10.2733,-0.1014,-0.0698,-0.6120,11.00,90.75,358.94,1.7572,8.4187,0.9041,8.6476
4,9,0,0,29.860,29860,-2.9900,9.5400,-0.3400,10.0034,-0.0284,-0.1734,-0.3076,14.63,91.38,356.38,1.1317,8.5665,0.7401,8.6726
4,9,0,0,29.981,29981,-3.1800,9.8700,-0.2900,10.3737,0.1342,-0.2105,-0.6109,19.50,91.44,353.63,0.5635,8.7383,0.6044,8.7772
4,9,0,0,30.103,30103,-4.3200,9.5900,-0.1300,10.5189,0.1909,-0.2269,-0.8301,25.19,90.88,349.88,-0.0800,8.8505,0.5076,8.8654
4,9,0,0,30.223,30223,-4.3800,8.9000,0.0300,9.9194,0.0676,-0.3022,-0.3665,28.56,90.81,349.00,-0.6466,8.8570,0.4447,8.8917
4,9,0,0,30.344,30344,-4.8900,8.9700,-0.1900,10.2181,-0.0273,-0.1691,0.0131,30.13,91.75,349.25,-1.2058,8.8719,0.3611,8.9608
4,9,0,0,30.466,30466,-5.3000,9.0700,-0.0800,10.5053,0.0120,0.0938,0.1604,29.81,91.81,350.25,-1.7453,8.8980,0.3029,9.0726
4,9,0,0,30.592,30592,-4.4000,9.0300,0.1800,10.0466,0.0633,0.2029,0.5945,27.25,90.94,352.13,-2.0951,8.9154,0.2867,9.1628
4,9,0,0,30.755,30755,-3.8400,10.5300,0.3100,11.2126,0.0774,0.5203,0.7974,21.94,89.25,354.88,-2.3251,9.1282,0.2898,9.4241
4,9,0,0,30.876,30876,-2.8700,9.8100,0.4200,10.2298,0.2574,0.7352,1.3646,14.50,86.56,358.56,-2.3969,9.2180,0.3070,9.5295
4,9,0,0,31.014,31014,-2.1100,9.4300,0.5500,9.6788,0.1080,0.5247,0.9687,4.13,84.44,4.19,-2.3591,9.2460,0.3390,9.5482
4,9,0,0,31.134,31134,-0.6100,9.3400,0.7900,9.3932,0.1724,0.5160,0.9130,-2.06,83.56,7.00,-2.1286,9.2583,0.3984,9.5082
4,9,0,0,31.255,31255,0.5600,9.3900,1.1300,9.4743,0.0818,0.3469,0.7516,-6.31,82.75,7.94,-1.7743,9.2757,0.4948,9.4568
4,9,0,0,31.376,31376,1.7500,9.5900,0.9000,9.7898,0.0436,0.1385,0.6949,-11.25,82.56,11.38,-1.3099,9.3171,0.5482,9.4247
4,9,0,0,31.497,31497,1.8400,9.4000,0.9000,9.6206,0.1025,0.0600,0.7854,-16.38,82.00,15.75,-0.8948,9.3280,0.5946,9.3897
4,9,0,0,31.619,31619,2.5500,8.7200,1.3300,9.1820,0.1156,-0.0262,0.6316,-21.63,81.06,20.56,-0.4409,9.2479,0.6915,9.2842
4,9,0,0,31.786,31786,4.0300,8.4500,2.0800,9.5901,-0.0251,-0.1625,0.4603,-27.69,79.38,27.81,0.1483,9.1428,0.8745,9.1857
4,9,0,0,31.907,31907,4.6200,8.3000,1.7500,9.6590,-0.3305,-0.1222,0.8214,-32.25,80.06,33.88,0.7375,9.0317,0.9898,9.1157
4,9,0,0,32.027,32027,5.5100,7.8300,1.5700,9.7023,0.1374,0.0022,0.6163,-36.56,80.06,38.69,1.3664,8.8734,1.0663,9.0410
4,9,0,0,32.149,32149,5.6000,7.9200,1.7800,9.8618,0.7167,-0.1156,0.5749,-40.13,76.00,41.19,1.9243,8.7477,1.1603,9.0317
4,9,0,0,32.269,32269,6.3700,6.2500,2.8300,9.3621,0.8203,0.2727,0.7330,-44.44,69.69,41.44,2.5101,8.4186,1.3803,8.8926
4,9,0,0,32.390,32390,7.2900,4.5800,2.4800,8.9594,0.2771,0.1211,0.3043,-49.00,65.75,42.94,3.1400,7.9128,1.5253,8.6486
4,9,0,0,32.512,32512,6.4800,5.3500,2.7300,8.8355,-0.1342,-0.1320,-0.1473,-49.13,64.94,43.00,3.5801,7.5751,1.6840,8.5460
4,9,0,0,32.635,32635,6.7400,5.2300,2.8900,9.0074,-0.3960,-0.0305,-0.2934,-47.38,67.13,42.56,3.9965,7.2660,1.8429,8.4949
4,10,0,0,32.799,32799,5.5800,6.5900,2.0200,8.8682,-0.6381,-0.1004,-0.9970,-42.81,71.25,41.94,4.2052,7.1770,1.8663,8.5250
4,10,0,0,32.920,32920,5.6300,7.4300,1.3300,9.4165,-0.6000,0.0720,-0.6709,-37.56,77.13,38.00,4.3929,7.2103,1.7956,8.6319
4,10,0,0,33.041,33041,4.3600,8.4700,0.7600,9.5566,-0.3349,-0.2007,-0.7549,-31.44,80.69,34.13,4.3886,7.3763,1.6591,8.7420
4,10,0,0,33.162,33162,3.2100,8.2100,1.1200,8.8861,-0.2683,-0.3960,-1.1246,-25.31,81.69,30.44,4.2333,7.4862,1.5881,8.7456
4,10,0,0,33.283,33283,0.8900,9.5800,0.4100,9.6300,-0.3240,-0.2443,-0.9239,-17.69,83.31,25.31,3.7927,7.7621,1.4328,8.7571
4,10,0,0,33.404,33404,0.7200,10.4100,0.7900,10.4647,-0.3960,-0.3098,-1.0385,-11.31,85.13,21.13,3.3878,8.1110,1.3481,8.8929
4,10,0,0,33.525,33525,0.7900,10.2000,0.5600,10.2459,-0.3000,-0.1320,-0.4407,-8.38,88.00,19.94,3.0455,8.3863,1.2443,9.0085
4,10,0,0,33.651,33651,-0.7500,9.9700,-0.0600,9.9984,-0.1407,-0.0938,-0.5367,-4.69,89.31,16.75,2.5453,8.5950,1.0724,9.0279
4,10,0,0,33.814,33814,-0.8600,9.4400,-0.0500,9.4792,0.2793,0.0916,-0.7723,1.50,88.81,10.50,2.0966,8.7063,0.9245,9.0028
4,10,0,0,33.936,33936,-2.0900,10.1300,1.0200,10.3935,0.4560,0.0884,-0.9141,9.44,86.00,2.19,1.5449,8.8939,0.9371,9.0756
4,10,0,0,34.056,34056,-3.4200,9.6900,0.8400,10.3101,0.3087,-0.0338,-1.0876,16.13,83.56,356.25,0.8907,8.9988,0.9243,9.0899
4,10,0,0,34.179,34179,-4.1700,9.5700,1.0400,10.4907,0.3872,-0.2116,-1.3559,24.00,81.19,349.81,0.2238,9.0741,0.9395,9.1254
4,10,0,0,34.303,34303,-4.5600,8.8400,1.2600,10.0263,0.0676,-0.4232,-0.6163,30.25,80.06,346.19,-0.4066,9.0432,0.9818,9.1055
4,10,0,0,34.424,34424,-5.0000,8.7700,0.9400,10.1389,-0.1691,-0.1200,-0.2465,33.25,81.88,344.63,-1.0119,9.0072,0.9763,9.1163
4,10,0,0,34.545,34545,-5.1600,8.5200,0.9500,10.0059,-0.1953,0.1691,0.2302,33.31,82.63,343.88,-1.5585,8.9430,0.9728,9.1298
4,10,0,0,34.667,34667,-5.0300,8.8700,0.7300,10.2230,-0.2116,0.1069,0.3142,30.75,83.81,345.81,-2.0159,8.9334,0.9408,9.2062
4,10,0,0,34.829,34829,-4.0700,9.2300,1.0000,10.1370,-0.0665,0.1822,0.9850,24.56,84.25,351.31,-2.2866,8.9725,0.9486,9.3077
4,10,0,0,34.955,34955,-3.7500,10.2300,0.5200,10.9081,-0.1560,0.4036,0.7254,18.88,84.75,355.25,-2.4795,9.1382,0.8921,9.5105
4,10,0,0,35.077,35077,-1.3600,10.9500,1.1500,11.0939,-0.3447,0.5051,1.3352,11.88,85.69,358.31,-2.3319,9.3769,0.9261,9.7068
4,10,0,0,35.198,35198,-0.6200,10.6800,0.6500,10.7177,-0.3240,0.5291,1.7606,1.44,87.56,4.75,-2.1064,9.5487,0.8897,9.8186
4,10,0,0,35.318,35318,-1.1900,9.6800,-0.3900,9.7607,-0.1844,-0.0676,1.6101,-10.50,89.63,15.44,-1.9856,9.5660,0.7211,9.7964
4,10,0,0,35.439,35439,1.6700,7.9400,-0.2300,8.1170,0.5192,-0.1625,1.4672,-20.38,87.94,25.63,-1.5039,9.3517,0.5958,9.4906
4,10,0,0,35.563,35563,3.0100,8.3000,0.7900,8.8642,0.6272,-0.0829,0.2454,-24.19,83.19,28.81,-0.9091,9.2131,0.6214,9.2787
4,10,0,0,35.685,35685,3.5800,8.5000,1.4800,9.3411,0.3862,0.1080,0.2749,-26.00,79.75,28.75,-0.3175,9.1191,0.7345,9.1542
4,10,0,0,35.849,35849,3.4300,8.3500,1.6300,9.1730,0.1462,0.0862,0.8792,-31.44,77.50,32.56,0.1763,9.0178,0.8525,9.0597
4,10,0,0,35.970,35970,5.4600,7.1000,2.0700,9.1927,-0.2705,-0.0698,1.2610,-38.88,77.00,39.75,0.8726,8.7651,1.0129,8.8665
4,10,0,0,36.090,36090,6.2100,6.9100,1.3400,9.3866,-0.0971,0.3000,1.1596,-46.69,77.44,48.25,1.5759,8.5206,1.0560,8.7292
4,10,0,0,36.212,36212,7.7300,6.0000,1.4600,9.8937,0.2553,0.2542,1.1956,-55.44,77.38,54.63,2.3869,8.1885,1.1093,8.6011
4,10,0,0,36.332,36332,7.2900,4.7500,0.7500,8.7332,0.5171,-0.1396,0.7254,-62.81,71.31,60.31,3.0330,7.7354,1.0619,8.3763
4,10,0,0,36.453,36453,8.9900,2.9100,1.8200,9.6229,0.6807,-0.0207,0.9501,-67.00,62.38,61.44,3.8179,7.0995,1.1618,8.1443
4,10,0,0,36.574,36574,8.2900,1.7900,2.0600,8.7276,0.1942,-0.2203,0.3033,-69.75,51.81,63.75,4.4072,6.3999,1.2802,7.8753
4,10,0,0,36.698,36698,8.8200,1.9900,2.4400,9.3652,-0.0938,-0.0982,-0.2716,-68.50,50.56,62.56,4.9887,5.8187,1.4330,7.7974
4,10,0,0,36.862,36862,7.5100,3.0700,2.2500,8.4195,-0.8039,0.0993,-0.8934,-63.56,61.38,60.44,5.3210,5.4565,1.5407,7.7756
4,10,0,0,36.983,36983,7.2000,4.9500,1.3100,8.8351,-0.9556,0.2716,-0.9163,-58.69,73.88,58.63,5.5686,5.3898,1.5103,7.8956
4,10,0,0,37.103,37103,6.8000,6.4000,-0.1300,9.3390,-0.6905,0.2934,-1.3537,-52.13,84.25,54.13,5.7309,5.5229,1.2941,8.0635
4,10,0,0,37.224,37224,6.2900,7.4200,-0.2100,9.7296,-0.1865,0.1167,-1.4464,-42.63,89.25,45.63,5.8045,5.7729,1.0959,8.2595
4,10,0,0,37.345,37345,4.2200,8.8400,-0.0400,9.7957,0.2923,0.0175,-2.0344,-31.00,88.94,33.50,5.5957,6.1771,0.9462,8.3883
4,10,0,0,37.466,37466,2.0200,8.6800,0.6500,8.9356,0.0993,-0.3163,-1.9831,-19.19,87.19,22.00,5.1245,6.5069,0.9072,8.3321
4,10,0,0,37.605,37605,-0.1200,8.7200,0.9400,8.7713,-0.9599,-0.2280,-1.2785,-6.81,89.19,11.88,4.4334,6.7985,0.9115,8.1674
