participant,rep,equipment_code,exercise_code,timestamp,timestamp_ms,accelX,accelY,accelZ,accelMag,gyroX,gyroY,gyroZ,roll,pitch,yaw,filteredX,filteredY,filteredZ,filteredMag
4,1,0,0,00.000,0,2.0300,9.4100,-0.4600,9.6375,-0.0109,-0.0622,-0.0196,-12.00,92.81,78.88,2.1394,9.5073,-0.4642,9.7561
4,1,0,0,00.121,121,2.0800,9.5800,-0.4400,9.8131,-0.0415,-0.0535,0.0044,-12.00,92.94,79.31,2.1316,9.5169,-0.4610,9.7635
4,1,0,0,00.241,241,2.1200,9.6100,-0.4700,9.8523,0.0109,-0.0207,0.0360,-12.13,93.00,79.69,2.1301,9.5291,-0.4622,9.7752
4,1,0,0,00.362,362,2.0000,9.5100,-0.4400,9.7280,0.0164,0.0240,-0.0436,-12.06,92.88,79.69,2.1129,9.5266,-0.4593,9.7689
4,1,0,0,00.526,526,1.9400,9.5500,-0.4700,9.7564,0.0338,0.0273,0.0098,-11.94,92.81,79.13,2.0901,9.5297,-0.4607,9.7671
4,1,0,0,00.649,649,2.1100,9.5000,-0.3700,9.7385,0.0207,0.0131,0.0458,-12.06,92.63,79.13,2.0927,9.5258,-0.4487,9.7633
4,1,0,0,00.771,771,2.0700,9.4700,-0.4200,9.7027,-0.0458,0.0076,0.0295,-11.94,92.75,78.94,2.0898,9.5184,-0.4450,9.7553
4,1,0,0,00.891,891,2.1000,9.6500,-0.5100,9.8890,-0.0185,-0.0327,-0.0229,-12.06,93.00,79.13,2.0911,9.5358,-0.4535,9.7729
4,1,0,0,01.012,1012,2.0600,9.6700,-0.3900,9.8947,-0.0022,-0.0305,0.0033,-12.00,92.94,79.38,2.0870,9.5535,-0.4452,9.7889
4,1,0,0,01.134,1134,1.4800,10.9400,-0.3200,11.0443,0.1113,-0.1593,-0.3785,-10.81,92.56,78.63,2.0070,9.7362,-0.4287,9.9501
4,1,0,0,01.254,1254,0.3700,11.0900,0.3100,11.1005,0.5716,-0.1724,-0.8083,-6.56,89.81,75.44,1.7913,9.9146,-0.3313,10.0805
4,1,0,0,01.375,1375,-0.5600,10.7100,1.1300,10.7840,0.8890,0.1298,-1.5828,1.63,84.75,66.94,1.4815,10.0194,-0.1388,10.1293
4,1,0,0,01.538,1538,-0.8200,8.9800,1.8600,9.2072,0.5018,-0.3447,-1.4552,14.69,77.81,54.81,1.1782,9.8824,0.1246,9.9532
4,1,0,0,01.662,1662,-3.2400,8.6500,1.8100,9.4126,-0.1527,-0.8214,-0.8683,23.69,77.75,50.13,0.5960,9.7200,0.3467,9.7444
4,1,0,0,01.784,1784,-5.1600,8.6300,0.6300,10.0747,-0.4756,-0.5345,-1.2970,32.81,82.56,44.38,-0.1625,9.5764,0.3840,9.5855
4,1,0,0,01.904,1904,-5.3700,8.0900,-0.0500,9.7102,-0.0044,0.1254,-1.2697,41.38,84.44,35.81,-0.8487,9.3805,0.3268,9.4245
4,1,0,0,02.025,2025,-6.6100,6.4300,0.6200,9.2424,0.3622,0.3785,-1.2043,50.31,79.44,26.63,-1.6079,8.9917,0.3655,9.1417
4,1,0,0,02.146,2146,-7.9300,4.6200,1.2200,9.2584,0.2727,0.4080,-1.5206,58.25,70.56,18.06,-2.4410,8.4156,0.4781,8.7755
4,1,0,0,02.270,2270,-7.6500,3.1100,1.9300,8.4805,0.0851,0.2542,-1.3821,65.94,57.44,8.63,-3.1274,7.7165,0.6694,8.3530
4,1,0,0,02.391,2391,-8.4600,1.2300,2.0200,8.7844,-0.1538,0.1233,-1.1519,72.06,39.81,358.94,-3.8301,6.8617,0.8474,7.9039
4,1,0,0,02.556,2556,-6.8800,0.1400,2.2900,7.2525,-0.0436,0.1484,0.6447,73.38,28.38,354.19,-4.2320,5.9760,1.0375,7.3959
4,1,0,0,02.677,2677,-7.8700,1.9300,1.8600,8.3139,0.2411,0.0284,1.5228,69.25,42.00,1.06,-4.7114,5.4428,1.1459,7.2894
4,2,0,0,02.797,2797,-8.5600,3.6600,2.3500,9.6017,0.2269,0.0862,1.1825,61.38,54.44,12.00,-5.2186,5.2079,1.3045,7.4871
4,2,0,0,02.918,2918,-6.1500,5.0200,2.9300,8.4621,-0.1996,-0.0785,1.3079,53.06,62.25,21.31,-5.3413,5.1831,1.5187,7.5961
4,2,0,0,03.039,3039,-5.5200,7.6100,1.9900,9.6095,-0.3545,-0.3414,1.4606,44.63,70.69,30.25,-5.3648,5.5029,1.5808,7.8462
4,2,0,0,03.160,3160,-5.6800,9.0100,1.7000,10.7858,-0.2749,-0.2465,1.3799,35.56,76.94,40.19,-5.4064,5.9651,1.5965,8.2073
4,2,0,0,03.281,3281,-4.5200,9.1200,1.6900,10.3180,-0.0240,-0.1036,1.1410,27.25,79.63,49.19,-5.2896,6.3808,1.6089,8.4429
4,2,0,0,03.407,3407,-1.9600,9.7700,1.2300,10.0403,-0.0851,0.0535,1.2425,18.75,80.50,57.75,-4.8508,6.8274,1.5589,8.5191
4,2,0,0,03.570,3570,-1.7800,9.9900,1.5500,10.2650,-0.1484,-0.1014,0.9654,8.81,82.06,67.94,-4.4462,7.2442,1.5578,8.6414
4,2,0,0,03.690,3690,-0.6500,10.1000,1.0900,10.1794,-0.0862,-0.0349,0.6469,3.56,83.25,73.56,-3.9459,7.6205,1.4961,8.7109
4,2,0,0,03.811,3811,0.2100,10.0800,1.2200,10.1557,0.1516,0.1244,0.8312,-1.44,82.88,78.38,-3.3983,7.9446,1.4597,8.7633
4,2,0,0,03.933,3933,1.7000,9.7700,1.1900,9.9879,0.0545,0.2880,0.7810,-6.63,82.13,82.13,-2.7265,8.1851,1.4242,8.7440
4,2,0,0,04.054,4054,1.9800,9.6900,1.2100,9.9640,-0.0545,0.2203,0.6327,-10.94,82.38,84.19,-2.1063,8.3834,1.3960,8.7560
4,2,0,0,04.174,4174,2.4100,9.3800,1.2300,9.7624,-0.1287,0.2291,0.5334,-14.63,83.13,86.50,-1.5111,8.5148,1.3741,8.7563
4,2,0,0,04.295,4295,3.2400,10.0000,1.1200,10.5713,0.0087,0.2618,0.4254,-18.44,84.06,88.50,-0.8851,8.7105,1.3406,8.8574
4,2,0,0,04.421,4421,2.8400,9.4800,1.1100,9.9583,0.0393,0.1298,-0.0098,-19.75,84.19,88.44,-0.3942,8.8119,1.3102,8.9175
4,2,0,0,04.584,4584,3.3500,9.3100,1.0000,9.9448,-0.0175,-0.0349,-0.1985,-18.69,84.25,86.88,0.0992,8.8775,1.2693,8.9684
4,2,0,0,04.704,4704,3.2400,9.8900,0.7200,10.4321,0.0065,-0.0033,-0.1298,-17.31,84.31,85.50,0.5131,9.0109,1.1970,9.1046
4,2,0,0,04.825,4825,0.3200,10.6700,1.6600,10.8031,0.3447,0.1298,-1.0068,-14.19,83.25,81.94,0.4876,9.2296,1.2580,9.3277
4,2,0,0,04.948,4948,0.4600,11.0200,1.6100,11.1465,0.3436,0.5083,-0.9577,-8.00,81.56,72.56,0.4840,9.4655,1.3044,9.5672
4,2,0,0,05.073,5073,1.9200,11.4300,1.6100,11.7014,0.3523,0.2051,-1.4573,-0.19,79.44,61.94,0.6732,9.7244,1.3446,9.8399
4,2,0,0,05.194,5194,0.7500,9.7100,1.7200,9.8896,-0.0240,0.1167,-1.3799,10.00,77.81,50.81,0.6833,9.7225,1.3941,9.8457
4,2,0,0,05.314,5314,-1.9000,8.9200,1.2900,9.2109,-0.1571,-0.2891,-1.7202,21.38,78.44,39.69,0.3429,9.6167,1.3804,9.7213
4,2,0,0,05.435,5435,-3.8700,8.5200,0.9200,9.4029,-0.0404,-0.0742,-1.2163,30.56,79.00,31.50,-0.2122,9.4722,1.3197,9.5661
4,2,0,0,05.598,5598,-6.2900,6.4100,1.7300,9.1458,0.7483,0.1156,-1.3014,41.69,73.50,22.81,-1.0131,9.0687,1.3738,9.2279
4,2,0,0,05.724,5724,-5.5100,5.2500,2.7100,8.0788,0.7712,0.1898,-1.1116,48.25,63.88,17.69,-1.6057,8.5655,1.5499,8.8514
4,2,0,0,05.846,5846,-6.7000,3.5000,3.1700,8.1969,0.1811,-0.1527,-1.0243,55.19,55.69,12.31,-2.2770,7.8980,1.7634,8.4067
4,2,0,0,05.967,5967,-8.6000,3.9000,2.3500,9.7310,-0.2269,0.0742,-0.8530,59.44,51.81,6.31,-3.1102,7.3711,1.8407,8.2095
4,2,0,0,06.087,6087,-8.3700,1.9800,2.8500,9.0609,0.1571,0.2891,-0.0709,61.25,47.81,3.19,-3.8033,6.6607,1.9737,7.9200
4,2,0,0,06.208,6208,-7.4900,2.8700,3.4500,8.7315,0.0458,0.0818,0.6512,57.50,49.00,6.81,-4.2891,6.1612,2.1682,7.8140
4,2,0,0,06.330,6330,-6.6800,4.0100,3.0700,8.3742,-0.2683,0.0098,1.0821,53.31,54.19,11.31,-4.6042,5.8777,2.2870,7.8088
4,3,0,0,06.450,6450,-6.7000,6.3600,2.8400,9.6646,-0.3458,-0.1320,1.0657,47.06,61.81,18.06,-4.8804,5.9413,2.3599,8.0428
4,3,0,0,06.618,6618,-5.0800,7.4000,2.1500,9.2298,-0.1276,-0.0316,1.3450,38.13,68.31,27.13,-4.9067,6.1335,2.3322,8.1936
4,3,0,0,06.739,6739,-3.9700,8.3500,2.3800,9.5471,-0.0927,0.0262,1.4235,28.56,71.06,37.00,-4.7832,6.4256,2.3385,8.3448
4,3,0,0,06.860,6860,-2.8000,9.1000,2.4100,9.8213,-0.3632,-0.0404,1.0352,21.00,73.75,44.38,-4.5219,6.7780,2.3480,8.4795
4,3,0,0,06.982,6982,-1.4900,9.7100,1.6600,9.9629,-0.4189,-0.0807,1.0494,14.81,77.19,50.63,-4.1224,7.1644,2.2573,8.5684
4,3,0,0,07.120,7120,-0.4900,10.1400,1.6000,10.2771,-0.2673,-0.1167,1.2348,6.75,80.06,58.94,-3.6437,7.5565,2.1707,8.6654
4,3,0,0,07.241,7241,0.1400,10.2900,1.3200,10.3753,-0.1636,0.0720,1.0428,0.06,81.56,65.81,-3.1451,7.9167,2.0586,8.7638
4,3,0,0,07.361,7361,1.5400,10.6200,1.3600,10.8169,-0.2127,0.1800,0.8901,-7.00,82.94,72.00,-2.5277,8.2729,1.9665,8.8712
4,3,0,0,07.483,7483,2.1800,10.0400,0.9000,10.3133,-0.0884,-0.0185,0.7254,-11.81,83.94,76.38,-1.9074,8.5058,1.8260,8.9062
4,3,0,0,07.645,7645,3.2500,9.5900,0.9400,10.1693,-0.0731,0.1124,0.4843,-17.75,84.56,81.94,-1.2278,8.6486,1.7092,8.9010
4,3,0,0,07.765,7765,3.6900,9.0200,0.7600,9.7752,-0.0240,-0.0785,0.4658,-20.81,84.81,84.50,-0.5797,8.6976,1.5842,8.8597
4,3,0,0,07.886,7886,3.6600,9.2000,0.8600,9.9386,-0.2236,-0.0851,0.3272,-23.25,85.19,87.88,-0.0210,8.7638,1.4887,8.8894
4,3,0,0,08.009,8009,3.9400,9.4000,0.6200,10.2112,-0.1036,-0.1069,0.0480,-24.00,86.19,89.50,0.5009,8.8476,1.3743,8.9677
4,3,0,0,08.133,8133,3.6200,8.9600,0.7600,9.6935,-0.0044,-0.0229,-0.0469,-23.94,86.00,89.88,0.9119,8.8624,1.2933,9.0026
4,3,0,0,08.254,8254,3.7400,9.3800,0.7000,10.1224,0.0720,0.0295,0.0938,-24.13,85.81,89.63,1.2846,8.9306,1.2151,9.1040
4,3,0,0,08.374,8374,3.4500,9.7900,0.8800,10.4173,0.1549,0.1058,-0.5225,-23.00,85.19,87.56,1.5699,9.0439,1.1710,9.2535
4,3,0,0,08.496,8496,2.9800,10.4100,1.0700,10.8809,0.0480,0.0087,-0.8116,-18.56,84.81,82.31,1.7558,9.2239,1.1577,9.4606
4,3,0,0,08.659,8659,2.8700,10.9300,0.8700,11.3340,-0.1494,-0.4047,-0.8050,-10.00,85.50,75.69,1.9026,9.4487,1.1198,9.7032
4,3,0,0,08.785,8785,0.7500,10.6400,0.8100,10.6971,0.0120,0.0447,-0.9294,-2.19,85.94,69.13,1.7507,9.6057,1.0789,9.8234
4,3,0,0,08.906,8906,3.5400,10.3700,0.6200,10.9751,0.4887,0.2193,-0.5323,1.56,84.19,64.00,1.9865,9.7064,1.0185,9.9598
4,3,0,0,09.027,9027,-0.4900,8.6400,1.1600,8.7313,0.7352,-0.2858,0.1265,8.19,79.13,58.38,1.6601,9.5659,1.0371,9.7641
4,3,0,0,09.147,9147,-0.3700,8.5100,1.8800,8.7230,0.6458,-0.2094,-0.8661,10.50,74.63,57.94,1.3926,9.4267,1.1482,9.5980
4,3,0,0,09.268,9268,-2.4800,7.8200,2.5900,8.6030,0.3000,-0.5018,-0.6578,16.94,71.69,54.19,0.8823,9.2150,1.3382,9.3534
4,3,0,0,09.389,9389,-3.7700,8.2000,2.8700,9.4705,-0.0687,-0.1614,-0.3622,21.50,71.44,51.44,0.2693,9.0813,1.5400,9.2149
4,3,0,0,09.510,9510,-4.4700,7.7900,2.6400,9.3613,0.1102,0.1811,-0.2018,24.31,70.81,47.88,-0.3553,8.9111,1.6850,9.0760
4,3,0,0,09.675,9675,-4.9800,5.9600,3.7500,8.6246,0.1353,0.3796,-0.3512,25.25,68.44,45.50,-0.9647,8.5222,1.9571,8.7971
4,3,0,0,09.799,9799,-2.7000,7.5000,4.1600,8.9914,-0.3469,0.5880,0.2236,22.25,68.00,43.94,-1.1933,8.3875,2.2474,8.7650
4,3,0,0,09.919,9919,-2.3700,8.5200,2.4100,9.1660,-0.3567,-0.1342,0.3763,19.94,70.81,44.69,-1.3484,8.4050,2.2688,8.8096
4,3,0,0,10.040,10040,-2.8100,8.5500,1.7700,9.1723,-0.1484,-0.3447,0.5432,18.50,73.25,47.81,-1.5410,8.4241,2.2031,8.8427
4,3,0,0,10.162,10162,-1.3400,7.7600,2.2200,8.1818,-0.3065,0.1429,0.6752,13.63,75.13,53.44,-1.5145,8.3366,2.2053,8.7553
4,4,0,0,10.282,10282,-0.7100,9.8300,1.1900,9.9272,-0.6698,0.3851,0.8181,10.38,78.38,53.56,-1.4085,8.5334,2.0715,8.8935
4,4,0,0,10.419,10419,-0.2900,9.8900,0.8100,9.9274,-0.5007,-0.0240,-0.2280,7.81,82.44,54.50,-1.2611,8.7121,1.9053,9.0068
4,4,0,0,10.542,10542,0.6900,10.5800,0.9700,10.6468,-0.2880,0.1113,1.1977,2.19,85.25,59.81,-1.0040,8.9583,1.7820,9.1888
4,4,0,0,10.705,10705,0.4300,10.6300,0.8300,10.6710,-0.1418,0.2803,0.4276,-2.25,86.75,62.44,-0.8150,9.1786,1.6566,9.3624
4,4,0,0,10.825,10825,0.6500,10.9800,0.2400,11.0018,-0.1233,-0.0491,0.3403,-4.81,88.06,64.25,-0.6220,9.4160,1.4699,9.5503
4,4,0,0,10.952,10952,1.1000,10.6600,0.5100,10.7287,0.3392,-0.3458,0.4178,-8.19,87.13,69.25,-0.3951,9.5799,1.3434,9.6817
4,4,0,0,11.073,11073,1.3100,9.8200,1.3600,9.9999,0.5367,-0.2334,1.0014,-12.19,83.13,74.81,-0.1704,9.6115,1.3456,9.7068
4,4,0,0,11.194,11194,2.8800,8.6000,2.3700,9.3740,-0.1658,0.2116,0.2476,-17.50,81.06,80.13,0.2316,9.4782,1.4806,9.5960
4,4,0,0,11.315,11315,2.5600,9.8700,0.5300,10.2104,-0.6261,0.2749,-0.4200,-15.88,85.25,77.31,0.5384,9.5299,1.3553,9.6408
4,4,0,0,11.435,11435,2.4700,10.0300,0.1800,10.3312,-0.0589,-0.1636,-0.2771,-13.69,87.75,75.50,0.7929,9.5958,1.2005,9.7030
4,4,0,0,11.556,11556,1.9300,10.0300,1.1500,10.2785,0.1527,-0.2258,-0.2029,-12.75,86.50,76.00,0.9428,9.6530,1.1938,9.7721
4,4,0,0,11.719,11719,0.6000,10.4500,0.4500,10.4769,-0.2891,-0.0033,-0.7418,-6.00,88.06,69.75,0.8976,9.7580,1.0958,9.8603
4,4,0,0,11.845,11845,0.9500,10.9500,0.2600,10.9942,0.0415,-0.1931,-0.2814,-3.44,88.44,68.25,0.9045,9.9151,0.9857,10.0049
4,4,0,0,11.967,11967,0.4000,9.9500,0.5400,9.9727,0.0065,-0.0567,-0.3305,-0.13,88.06,65.94,0.8380,9.9197,0.9269,9.9981
4,4,0,0,12.087,12087,-0.5400,10.8000,-0.5400,10.8270,-0.1178,0.3862,-0.9577,3.94,89.19,59.88,0.6564,10.0357,0.7336,10.0839
4,4,0,0,12.208,12208,-1.1000,9.7700,0.1100,9.8323,0.5923,0.2236,-0.0502,6.13,86.94,56.50,0.4250,10.0007,0.6514,10.0309
4,4,0,0,12.329,12329,1.7700,9.9400,0.7600,10.1249,0.3851,0.2193,-0.2149,6.19,83.25,54.69,0.6022,9.9927,0.6658,10.0329
4,4,0,0,12.451,12451,-1.7600,9.8100,1.2200,10.0410,0.0742,-0.6261,-0.8312,11.75,82.00,51.50,0.2909,9.9686,0.7388,10.0002
4,4,0,0,12.573,12573,-3.6100,8.7600,0.6200,9.4950,0.4200,-0.0404,-1.2261,19.13,81.00,46.69,-0.2231,9.8093,0.7231,9.8385
4,4,0,0,12.738,12738,-3.1200,7.9000,2.2600,8.7893,0.6665,0.1505,-0.6861,25.06,73.94,41.19,-0.6048,9.5577,0.9257,9.6215
4,4,0,0,12.860,12860,-5.3100,6.9700,3.1900,9.3249,0.1625,-0.0011,-0.6360,29.56,70.38,37.06,-1.2249,9.2167,1.2240,9.3780
4,4,0,0,12.980,12980,-5.2200,7.2500,2.8300,9.3712,-0.2836,0.1014,-1.0548,33.81,69.88,31.69,-1.7513,8.9576,1.4357,9.2394
4,4,0,0,13.101,13101,-4.9800,6.9400,2.4300,8.8808,-0.1276,-0.0098,-0.0185,36.81,70.75,27.50,-2.1768,8.6917,1.5667,9.0961
4,4,0,0,13.222,13222,-5.7300,5.8700,2.7000,8.6360,0.4123,0.2291,0.2313,36.94,68.81,27.25,-2.6450,8.3199,1.7160,8.8973
4,4,0,0,13.343,13343,-4.8000,6.0700,3.8200,8.6300,0.2563,0.2247,0.5694,33.13,66.19,31.25,-2.9290,8.0234,1.9933,8.7708
4,5,0,0,13.465,13465,-3.2000,8.0100,2.8900,9.0968,-0.1396,-0.1778,1.4290,26.44,67.31,37.81,-2.9647,8.0216,2.1114,8.8088
4,5,0,0,13.591,13591,-3.4900,9.5400,2.8800,10.5587,-0.1756,-0.3207,0.9185,20.56,70.56,46.50,-3.0339,8.2217,2.2127,9.0387
4,5,0,0,13.754,13754,-0.7200,7.4100,2.4700,7.8439,-0.1974,0.0153,0.2847,16.69,73.56,50.56,-2.7290,8.1148,2.2466,8.8512
4,5,0,0,13.876,13876,-0.6600,9.1400,1.5200,9.2890,-0.3371,-0.3403,0.3240,15.69,75.75,51.88,-2.4564,8.2499,2.1509,8.8724
4,5,0,0,13.998,13998,-0.1600,9.9100,1.6100,10.0412,-0.1942,-0.9207,1.4923,9.88,78.81,62.25,-2.1538,8.4686,2.0796,8.9823
4,5,0,0,14.120,14120,-1.4700,11.2300,1.7400,11.4587,-0.2356,-0.6174,1.2730,3.19,80.94,74.19,-2.0637,8.8325,2.0348,9.2958
4,5,0,0,14.243,14243,1.1900,10.1900,1.3800,10.3516,-0.1680,-0.0436,1.0636,-5.69,82.50,85.13,-1.6349,9.0114,1.9486,9.3635
4,5,0,0,14.365,14365,2.3200,10.7000,1.3500,11.0315,0.0589,0.0785,0.8018,-11.56,82.81,90.38,-1.1137,9.2339,1.8697,9.4869
4,5,0,0,14.485,14485,1.8400,10.2600,1.7600,10.5712,0.4200,0.2771,0.6316,-16.31,81.19,93.75,-0.7245,9.3691,1.8552,9.5785
4,5,0,0,14.606,14606,2.6300,9.4800,1.5900,9.9657,0.2345,0.7199,0.4691,-20.56,80.00,93.88,-0.2825,9.3837,1.8203,9.5628
4,5,0,0,14.769,14769,4.0400,9.0600,2.1100,10.1419,0.0884,0.4211,-0.2574,-24.19,80.19,91.25,0.2871,9.3411,1.8585,9.5285
4,5,0,0,14.889,14889,3.4100,8.9500,1.2500,9.6588,-0.5880,0.3491,-0.9905,-20.00,83.44,85.06,0.6986,9.2895,1.7783,9.4840
4,5,0,0,15.016,15016,3.2900,11.1100,-0.0200,11.5869,-0.2585,-0.1953,-0.7036,-14.81,87.38,80.19,1.0401,9.5294,1.5413,9.7091
4,5,0,0,15.137,15137,-0.0400,9.4400,1.3600,9.5375,0.4178,-0.3785,-0.8628,-7.63,85.25,75.56,0.8978,9.5176,1.5174,9.6796
4,5,0,0,15.257,15257,0.2200,9.5700,0.9800,9.6226,-0.1647,-0.3349,-0.8410,-3.19,84.63,73.06,0.8085,9.5245,1.4466,9.6676
4,5,0,0,15.378,15378,-0.5500,10.7600,1.0500,10.8251,0.2956,-0.2454,-0.0807,0.38,84.25,71.69,0.6295,9.6873,1.3943,9.8074
4,5,0,0,15.499,15499,-1.5400,9.9100,1.9000,10.2073,0.5160,0.2454,-0.4581,2.94,81.25,68.94,0.3436,9.7167,1.4610,9.8319
4,5,0,0,15.620,15620,0.8900,10.3200,1.6000,10.4811,0.1963,0.3065,-0.8367,3.31,79.06,66.38,0.4156,9.7962,1.4793,9.9160
4,5,0,0,15.782,15782,-0.8600,9.0500,1.5700,9.2253,-0.0316,-0.8378,0.3600,11.38,78.19,60.06,0.2475,9.6979,1.4912,9.8150
4,5,0,0,15.908,15908,-0.5300,8.8900,1.3000,9.0002,-0.2029,-1.3592,-0.3371,11.56,80.63,67.75,0.1450,9.5914,1.4660,9.7039
4,5,0,0,16.030,16030,-4.3800,8.7200,1.2800,9.8418,-0.0415,-0.2073,-0.6687,16.56,83.25,68.69,-0.4512,9.4766,1.4415,9.5962
4,5,0,0,16.151,16151,-4.0800,9.0000,1.4800,9.9918,0.1058,1.1181,-1.0843,21.88,80.94,58.88,-0.9294,9.4138,1.4466,9.5695
4,5,0,0,16.272,16272,-3.0000,8.9100,1.4700,9.5157,0.1342,0.0044,-0.6992,25.50,78.25,51.44,-1.2023,9.3474,1.4497,9.5352
4,5,0,0,16.392,16392,-4.6100,9.2300,1.9400,10.4980,-0.0131,0.7538,-0.4756,28.31,76.44,46.94,-1.6513,9.3319,1.5143,9.5971
4,5,0,0,16.513,16513,-3.2700,7.7000,2.1600,8.6399,0.1778,0.4898,-0.6174,31.44,72.06,38.19,-1.8646,9.1169,1.5994,9.4420
4,5,0,0,16.634,16634,-5.7500,6.1000,2.7800,8.8318,0.1287,0.1713,-0.5880,36.75,68.81,32.44,-2.3766,8.7193,1.7550,9.2062
4,5,0,0,16.801,16801,-6.6700,4.9000,3.1700,8.8627,-0.0807,-0.1036,0.4745,38.88,67.06,30.19,-2.9424,8.2160,1.9414,8.9404
4,5,0,0,16.923,16923,-5.0200,6.6500,2.6300,8.7373,-0.4298,0.0862,0.6654,33.56,71.13,35.25,-3.2162,8.0097,2.0322,8.8673
4,5,0,0,17.043,17043,-5.0800,7.8400,1.6700,9.4900,-0.6698,0.1287,0.4843,30.31,74.81,36.38,-3.4618,7.9873,1.9844,8.9285
4,5,0,0,17.164,17164,-3.2700,7.5700,1.2900,8.3464,-0.6207,-0.1473,0.6872,25.50,79.94,40.31,-3.4365,7.9323,1.8929,8.8495
4,5,0,0,17.285,17285,0.0400,8.8900,0.5200,8.9053,-0.5978,-0.1516,1.9286,17.25,84.69,48.13,-2.9784,8.0585,1.7120,8.7602
4,6,0,0,17.406,17406,-1.0400,11.3500,0.2800,11.4010,-0.3392,-0.2389,0.9065,6.88,88.38,59.56,-2.7230,8.4923,1.5233,9.0473
4,6,0,0,17.527,17527,-0.1800,10.2400,-0.0600,10.2418,0.1920,0.0262,0.3818,2.31,89.00,65.13,-2.3879,8.7226,1.3147,9.1386
4,6,0,0,17.649,17649,0.1200,10.9900,0.4600,11.0003,0.4909,0.2509,0.6654,-2.63,86.44,69.06,-2.0574,9.0214,1.2020,9.3307
4,6,0,0,17.815,17815,1.4800,9.1600,1.0700,9.3403,-0.1647,0.1680,0.3153,-7.75,84.69,71.69,-1.5912,9.0396,1.1846,9.2547
4,6,0,0,17.936,17936,1.6800,9.5100,0.6300,9.6778,-0.4603,-0.1407,0.3982,-8.81,87.31,73.25,-1.1602,9.1016,1.1116,9.2423
4,6,0,0,18.056,18056,2.5800,10.6900,0.1800,10.9984,-0.2749,-0.0338,0.5727,-13.38,89.75,79.00,-0.6673,9.3109,0.9888,9.3870
4,6,0,0,18.178,18178,2.0600,9.9900,-0.0900,10.2006,0.0894,-0.0567,0.6087,-17.31,90.00,83.38,-0.3079,9.4004,0.8466,9.4435
4,6,0,0,18.298,18298,2.3500,9.7300,-0.0900,10.0102,0.0044,0.2291,0.3720,-20.00,89.94,85.19,0.0423,9.4438,0.7232,9.4716
4,6,0,0,18.420,18420,3.3400,9.1500,0.4800,9.7524,0.0120,0.2869,-0.0960,-21.25,90.69,84.69,0.4769,9.4051,0.6912,9.4425
4,6,0,0,18.541,18541,5.0400,9.2900,0.0100,10.5691,0.2193,0.4374,0.5770,-22.00,91.06,82.69,1.0782,9.3899,0.6014,9.4708
4,6,0,0,18.667,18667,4.4600,9.6400,0.4700,10.6321,0.5323,0.1407,0.0884,-25.44,88.88,83.06,1.5238,9.4229,0.5841,9.5632
4,6,0,0,18.830,18830,3.4100,9.5600,0.6000,10.1677,-0.1854,-0.3567,-1.1443,-22.81,87.31,80.88,1.7724,9.4410,0.5862,9.6238
4,6,0,0,18.950,18950,2.2500,8.9700,0.2700,9.2518,-0.2749,-0.5716,-0.4374,-15.63,88.19,77.38,1.8353,9.3789,0.5445,9.5723
4,6,0,0,19.072,19072,1.7000,11.2800,0.1500,11.4084,-0.1145,-0.1865,-1.1825,-12.31,89.19,77.25,1.8175,9.6294,0.4925,9.8118
4,6,0,0,19.192,19192,0.7500,10.2400,0.4100,10.2756,0.1178,0.3251,-0.7712,-5.81,89.06,69.88,1.6768,9.7099,0.4817,9.8654
4,6,0,0,19.313,19313,1.7800,10.1700,0.3600,10.3309,0.1025,0.0011,-2.0966,2.88,88.25,59.81,1.6904,9.7705,0.4656,9.9266
4,6,0,0,19.435,19435,-0.9100,10.6100,-0.1300,10.6497,0.2902,0.0240,-0.5312,14.19,87.44,48.63,1.3477,9.8811,0.3871,9.9801
4,6,0,0,19.561,19561,-2.7500,8.3500,1.1800,8.8700,0.6698,-0.1636,-0.3851,18.69,83.50,46.75,0.8078,9.6794,0.4916,9.7254
4,6,0,0,19.682,19682,-3.3800,9.4300,1.5800,10.1413,0.2596,0.2236,0.2902,20.56,79.69,45.50,0.2559,9.6465,0.6350,9.6708
4,6,0,0,19.844,19844,-3.7200,8.6500,1.7900,9.5846,0.1407,-0.4036,-0.9447,25.19,78.13,42.56,-0.2680,9.5152,0.7872,9.5515
4,6,0,0,19.966,19966,-5.6300,7.5500,1.6000,9.5530,-0.0087,0.0218,-1.6646,34.31,77.50,34.94,-0.9746,9.2562,0.8943,9.3503
4,6,0,0,20.087,20087,-5.6800,7.2300,1.0000,9.2485,0.5443,0.2291,-0.5291,41.00,73.81,27.31,-1.5946,8.9892,0.9083,9.1746
4,6,0,0,20.211,20211,-6.3900,6.3100,2.7900,9.4038,0.8781,0.2640,0.2487,41.25,67.00,29.19,-2.2265,8.6362,1.1562,8.9932
4,6,0,0,20.334,20334,-6.4900,5.8400,3.8200,9.5299,0.5116,0.2629,-0.4352,40.75,60.25,29.81,-2.7884,8.2677,1.5072,8.8545
4,6,0,0,20.454,20454,-6.2500,4.6100,3.5800,8.5517,-0.2542,0.0524,-0.6523,43.31,57.13,25.63,-3.2445,7.7857,1.7804,8.6206
4,6,0,0,20.575,20575,-5.9600,2.6400,3.4100,7.3566,-0.5225,0.1396,0.2607,44.75,59.06,22.00,-3.6023,7.1076,1.9951,8.2144
4,7,0,0,20.696,20696,-5.6900,7.9100,3.3700,10.3102,-0.6676,-0.1789,1.0668,37.75,66.00,27.31,-3.8774,7.2134,2.1763,8.4737
4,7,0,0,20.859,20859,-4.7400,8.6600,1.7500,10.0263,-0.2760,0.1909,1.9744,29.63,73.13,35.31,-3.9911,7.4040,2.1201,8.6743
4,7,0,0,20.984,20984,-3.5100,7.7200,3.1200,9.0362,0.0218,0.0524,0.7254,18.13,74.25,46.63,-3.9277,7.4456,2.2519,8.7141
4,7,0,0,21.105,21105,-0.7300,8.3300,1.9300,8.5818,-0.5770,0.0764,0.7625,10.06,77.38,53.56,-3.5063,7.5622,2.2095,8.6234
4,7,0,0,21.227,21227,0.4700,8.5900,0.7900,8.6390,-0.9119,0.0000,0.9098,3.31,83.06,59.50,-2.9824,7.6976,2.0224,8.4993
4,7,0,0,21.347,21347,2.4900,11.6600,-1.0200,11.9665,-1.0996,-0.3480,1.3352,-5.31,90.50,69.06,-2.2612,8.2198,1.6215,8.6780
4,7,0,0,21.469,21469,2.1900,11.6300,-0.9200,11.8701,-0.1004,-0.6327,1.4312,-11.25,94.00,79.06,-1.6747,8.6691,1.2866,8.9227
4,7,0,0,21.589,21589,2.9500,9.2100,0.3500,9.6772,0.4538,-0.3011,0.7210,-19.00,90.88,89.50,-1.0653,8.7404,1.1632,8.8816
4,7,0,0,21.710,21710,4.2200,8.6400,0.3300,9.6212,0.2029,0.0251,1.6079,-26.88,88.75,96.88,-0.3688,8.7272,1.0534,8.7983
4,7,0,0,21.878,21878,6.8900,8.2300,0.5600,10.7480,0.2465,-0.0295,2.1009,-44.13,86.31,112.56,0.5877,8.6617,0.9884,8.7377
4,7,0,0,22.000,22000,8.0900,7.1300,1.2200,10.8523,0.3000,-0.1418,0.2836,-53.06,82.44,119.56,1.5763,8.4598,1.0189,8.6655
4,7,0,0,22.121,22121,8.4400,6.7800,1.2200,10.8945,-0.1276,0.0949,0.0240,-52.38,82.19,117.88,2.4808,8.2385,1.0454,8.6672
4,7,0,0,22.241,22241,5.8100,7.4000,0.9300,9.4542,-0.3742,0.4483,-2.2471,-43.19,86.31,108.00,2.9195,8.1280,1.0302,8.6976
4,7,0,0,22.363,22363,3.1300,8.3900,-0.5500,8.9717,-0.6927,0.6229,-2.1915,-27.13,93.31,90.63,2.9472,8.1625,0.8220,8.7171
4,7,0,0,22.483,22483,5.2200,10.0600,-1.4900,11.4312,0.2094,-0.0589,-0.9447,-21.63,95.94,84.56,3.2467,8.4126,0.5173,9.0322
4,7,0,0,22.604,22604,1.7300,9.8600,-0.2300,10.0133,0.4145,0.1320,-0.1593,-16.38,93.06,78.69,3.0469,8.6033,0.4188,9.1365
4,7,0,0,22.727,22727,3.5200,10.3100,-0.5700,10.9092,0.4342,0.3414,-0.7505,-14.25,90.69,74.19,3.1092,8.8282,0.2885,9.3642
4,7,0,0,22.893,22893,1.0700,10.0800,0.5200,10.1500,0.0742,0.3207,-0.6294,-6.69,89.63,63.81,2.8405,8.9931,0.3190,9.4365
4,7,0,0,23.013,23013,0.1600,9.9500,0.5600,9.9670,0.5967,0.1145,-0.9807,-2.00,87.69,57.06,2.4873,9.1192,0.3508,9.4589
4,7,0,0,23.134,23134,1.6600,8.7600,1.5900,9.0566,0.6294,-0.5138,-0.5040,1.38,83.00,55.38,2.3783,9.0719,0.5141,9.3925
4,7,0,0,23.255,23255,-0.8400,9.8300,1.5500,9.9868,0.2585,-0.6469,-0.4811,5.94,80.75,55.50,1.9542,9.1718,0.6506,9.4002
4,7,0,0,23.376,23376,-2.0400,9.2700,1.4700,9.6050,0.5912,-0.4003,-0.6447,11.25,78.31,54.19,1.4278,9.1847,0.7586,9.3260
4,7,0,0,23.498,23498,-2.7100,8.5600,2.5300,9.3284,0.5280,-0.2007,-0.9730,16.38,74.31,51.50,0.8826,9.1024,0.9920,9.1987
4,7,0,0,23.624,23624,-3.2500,7.9900,2.1600,8.8920,0.1691,-0.0949,-0.7516,22.50,71.88,46.50,0.3380,8.9558,1.1459,9.0352
4,7,0,0,23.760,23760,-5.2400,8.2100,2.6300,10.0885,-0.3153,0.0709,-1.3744,30.19,71.25,38.81,-0.3970,8.8575,1.3415,8.9673
4,7,0,0,23.925,23925,-7.6400,5.4000,2.3800,9.6537,-0.0578,0.2040,-1.3177,44.94,68.50,21.25,-1.3515,8.4019,1.4783,8.6374
4,7,0,0,24.047,24047,-6.1800,5.1800,2.7500,8.5198,0.2476,0.5596,-0.3011,47.06,62.56,15.50,-1.9877,7.9774,1.6459,8.3844
4,7,0,0,24.168,24168,-6.2000,4.2900,4.4200,8.7396,0.2531,0.0938,0.5989,44.75,59.63,18.44,-2.5428,7.4915,2.0115,8.1630
4,7,0,0,24.289,24289,-5.0900,5.4500,3.4600,8.2208,-0.2291,0.0469,1.0527,40.69,61.44,22.88,-2.8785,7.2224,2.2023,8.0808
4,8,0,0,24.409,24409,-4.4200,7.3100,2.9900,9.0506,-0.2651,-0.0993,1.0712,34.31,65.81,29.38,-3.0816,7.2340,2.3061,8.1942
4,8,0,0,24.530,24530,-4.4300,8.2600,2.4100,9.6778,-0.1004,-0.0982,1.0036,28.25,69.31,36.56,-3.2593,7.3692,2.3198,8.3851
4,8,0,0,24.652,24652,-2.7600,8.9100,2.4500,9.6441,0.1756,0.1276,2.1642,18.94,70.19,46.69,-3.1935,7.5722,2.3370,8.5439
4,8,0,0,24.778,24778,-0.7900,9.1200,3.5200,9.8076,-0.0644,0.2847,1.4257,7.25,70.13,57.81,-2.8768,7.7762,2.4929,8.6579
4,8,0,0,24.941,24941,1.6900,9.1300,2.3600,9.5803,-0.5956,0.1211,0.6970,-2.06,73.56,64.63,-2.2750,7.9546,2.4754,8.6359
4,8,0,0,25.061,25061,3.7400,10.7100,1.9800,11.5157,-0.5203,-0.0415,1.5664,-10.00,77.44,73.31,-1.4824,8.3177,2.4101,8.7858
4,8,0,0,25.183,25183,3.4500,10.6300,2.2100,11.3923,-0.0873,-0.0600,1.1323,-17.44,78.63,81.56,-0.8324,8.6224,2.3837,8.9845
4,8,0,0,25.303,25303,2.8700,9.3600,2.0500,10.0024,-0.1385,0.0316,0.7178,-22.44,78.69,86.81,-0.3445,8.7196,2.3397,9.0346
4,8,0,0,25.426,25426,4.9100,9.8200,1.6000,11.0951,-0.0633,0.1974,0.6109,-28.81,79.56,92.19,0.3479,8.8646,2.2423,9.1504
4,8,0,0,25.551,25551,4.1900,8.6300,1.7000,9.7428,-0.0578,0.1898,0.2182,-31.06,80.31,92.94,0.8542,8.8337,2.1708,9.1365
4,8,0,0,25.672,25672,4.9500,8.8000,1.4600,10.2017,-0.1833,0.1058,-0.0873,-30.88,81.75,91.38,1.3939,8.8292,2.0771,9.1768
4,8,0,0,25.792,25792,4.5600,8.8200,1.3400,10.0191,0.0295,0.0491,-0.3938,-28.44,82.75,88.63,1.8111,8.8280,1.9800,9.2268
4,8,0,0,25.955,25955,3.2500,9.3500,0.9900,9.9481,-0.1560,0.0731,-1.2152,-23.38,83.31,83.13,2.0007,8.8968,1.8495,9.3047
4,8,0,0,26.076,26076,2.7200,10.4300,0.6100,10.7961,-0.0033,-0.0502,-1.2795,-15.13,84.56,75.00,2.0955,9.0988,1.6862,9.4881
4,8,0,0,26.197,26197,0.9500,9.5400,1.5600,9.7133,-0.0033,-0.1887,-1.2217,-6.81,84.06,67.69,1.9446,9.1570,1.6696,9.5089
4,8,0,0,26.318,26318,0.5200,11.4800,0.8300,11.5217,-0.0774,-0.1963,-2.3889,3.81,85.19,58.00,1.7568,9.4631,1.5589,9.7502
4,8,0,0,26.443,26443,-1.9500,8.9900,1.6400,9.3441,0.3185,-0.1276,-1.2315,13.94,83.56,50.56,1.2684,9.4007,1.5696,9.6149
4,8,0,0,26.564,26564,-1.7100,8.9700,1.0600,9.1929,0.1124,0.2018,-0.7581,19.00,82.06,45.25,0.8759,9.3440,1.5025,9.5045
4,8,0,0,26.685,26685,-2.4900,9.1900,1.3400,9.6152,-0.0229,0.4472,-0.1854,21.75,80.50,40.50,0.4324,9.3237,1.4811,9.4505
4,8,0,0,26.805,26805,-3.1000,8.8800,1.6200,9.5440,0.1669,-0.0491,-0.9697,25.88,79.19,35.50,-0.0331,9.2652,1.4994,9.3858
4,8,0,0,26.968,26968,-4.9300,8.4300,0.9300,9.8099,-0.0196,-0.0393,-1.0014,33.94,78.13,29.00,-0.6784,9.1552,1.4243,9.2901
4,8,0,0,27.088,27088,-6.0200,7.2500,1.1100,9.4887,0.4701,-0.2411,-1.2185,41.00,76.06,23.56,-1.3823,8.9041,1.3829,9.1163
4,8,0,0,27.209,27209,-7.7000,5.7000,1.7300,9.7351,0.2509,-0.0164,-1.4944,49.75,71.50,17.06,-2.2148,8.4819,1.4287,8.8819
4,8,0,0,27.333,27333,-8.1700,3.5400,1.6700,9.0592,-0.0731,-0.1265,-2.0060,60.06,66.25,7.19,-2.9995,7.8307,1.4605,8.5117
4,8,0,0,27.457,27457,-8.8000,2.0700,2.1600,9.2946,-0.8388,0.3098,-1.0156,69.00,59.13,354.38,-3.7639,7.0716,1.5526,8.1599
4,8,0,0,27.578,27578,-9.2100,3.5800,1.1500,9.9480,0.0185,0.0644,-0.7418,73.19,46.00,344.44,-4.4816,6.6115,1.4996,8.1268
4,8,0,0,27.700,27700,-9.9000,1.4700,2.2300,10.2540,0.5138,0.5683,-0.6501,74.13,32.69,343.94,-5.1956,5.9340,1.5958,8.0469
4,8,0,0,27.821,27821,-5.6800,0.8900,2.4200,6.2379,0.3687,0.5432,0.9872,70.44,18.81,343.94,-5.2594,5.2693,1.7044,7.6375
4,8,0,0,27.986,27986,-7.4800,-0.2600,3.8600,8.4213,-0.3425,-0.1091,0.8443,68.00,27.88,348.94,-5.5520,4.5407,1.9885,7.4429
4,8,0,0,28.109,28109,-6.1300,2.1500,2.5900,6.9934,-0.1113,-0.4494,1.6962,64.50,47.13,356.00,-5.6282,4.2256,2.0677,7.3354
4,9,0,0,28.230,28230,-8.6100,4.5500,2.2500,9.9949,-0.2400,-0.2542,1.9188,55.63,64.25,9.13,-6.0211,4.2684,2.0918,7.6713
4,9,0,0,28.351,28351,-7.0200,7.7700,1.7600,10.6184,-0.0567,-0.0295,1.6537,44.19,71.88,20.69,-6.1527,4.7298,2.0480,8.0263
4,9,0,0,28.471,28471,-1.8700,8.1600,2.7000,8.7962,-0.0774,0.0273,1.6886,29.81,75.13,35.38,-5.5884,5.1818,2.1340,7.9142
4,9,0,0,28.593,28593,-2.3200,10.4700,1.1200,10.7823,-0.6436,-0.2803,1.3439,22.25,79.00,42.56,-5.1577,5.8787,2.0003,8.0723
4,9,0,0,28.714,28714,-3.7100,8.5100,0.9500,9.3320,-0.2236,-0.3087,0.1800,20.44,82.88,46.13,-4.9669,6.2254,1.8619,8.1788
4,9,0,0,28.839,28839,-1.2700,8.4500,0.5400,8.5620,0.2083,-0.0676,1.5359,15.88,83.56,52.19,-4.4798,6.5186,1.6877,8.0875
4,9,0,0,29.002,29002,1.6000,11.2500,1.9200,11.5243,-0.2509,0.1342,1.4355,-2.19,81.50,69.63,-3.6786,7.1420,1.7183,8.2154
4,9,0,0,29.123,29123,0.8400,10.3300,0.8500,10.3989,-0.5181,0.0295,1.3330,-10.94,84.75,77.56,-3.0832,7.5621,1.6039,8.3225
4,9,0,0,29.244,29244,4.2900,10.3800,0.3200,11.2361,-0.0153,-0.0873,0.9065,-18.50,86.19,85.63,-2.1116,7.9335,1.4347,8.3341
4,9,0,0,29.365,29365,3.0300,8.8800,0.9700,9.4327,0.4156,0.3894,0.5443,-22.44,84.75,87.63,-1.4340,8.0582,1.3735,8.2992
4,9,0,0,29.486,29486,5.3100,9.3700,0.9100,10.8084,0.3796,0.4472,0.9370,-28.94,83.25,89.50,-0.5454,8.2310,1.3124,8.3528
4,9,0,0,29.611,29611,4.6500,8.7500,1.4100,10.0087,0.1396,0.3000,-0.3851,-31.19,82.50,88.19,0.1393,8.2994,1.3253,8.4057
4,9,0,0,29.732,29732,3.6600,9.1800,0.7600,9.9119,-0.3065,0.0371,-1.0461,-24.88,85.06,80.75,0.6032,8.4155,1.2508,8.5293
4,9,0,0,29.855,29855,3.0400,9.8500,0.5700,10.3242,-0.0327,-0.2683,-0.7341,-18.19,85.81,75.81,0.9243,8.6045,1.1611,8.7315
4,9,0,0,30.017,30017,0.5200,10.3100,0.8000,10.3541,-0.2705,-0.0055,-0.7974,-10.06,85.94,69.13,0.8710,8.8292,1.1135,8.9417
4,9,0,0,30.138,30138,-1.1000,9.6900,0.8400,9.7883,0.2662,-0.1440,-1.4955,-2.38,86.13,61.81,0.6113,8.9427,1.0775,9.0281
4,9,0,0,30.259,30259,1.2000,8.9900,0.8300,9.1076,-0.0687,0.2978,-0.7756,3.31,85.06,56.13,0.6889,8.9489,1.0448,9.0360
4,9,0,0,30.381,30381,-0.1000,10.1500,0.7300,10.1767,0.1974,0.0567,-0.8443,8.19,85.00,49.25,0.5849,9.1072,1.0034,9.1809
4,9,0,0,30.506,30506,-2.1800,9.2600,1.2400,9.5936,0.0720,-0.1047,-0.4134,12.13,83.94,46.75,0.2206,9.1273,1.0345,9.1884
4,9,0,0,30.628,30628,-4.5200,9.0600,0.8000,10.1565,-0.3022,0.0109,-1.2861,18.94,84.69,40.31,-0.4041,9.1184,1.0036,9.1824
4,9,0,0,30.749,30749,-4.8500,8.7400,1.0300,10.0484,0.2029,-0.1265,-0.8192,21.63,84.69,39.31,-0.9900,9.0686,1.0071,9.1779
4,9,0,0,30.869,30869,-3.3700,10.3100,0.2000,10.8486,0.0349,0.1429,-0.5149,25.44,84.25,35.00,-1.3036,9.2322,0.9008,9.3672
4,9,0,0,31.032,31032,-6.7400,6.7500,1.9000,9.7263,0.1865,0.2923,-2.2406,33.31,80.81,27.69,-2.0200,8.9051,1.0324,9.1895
4,9,0,0,31.152,31152,-6.9900,8.5300,0.4300,11.0366,0.1244,0.3774,-0.9556,42.00,78.13,16.38,-2.6749,8.8557,0.9530,9.2998
4,9,0,0,31.273,31273,-7.1100,5.8700,2.5000,9.5530,0.6578,0.4200,-0.6054,44.31,71.63,15.38,-3.2593,8.4622,1.1569,9.1417
4,9,0,0,31.399,31399,-5.9000,6.2100,2.6100,8.9547,0.2356,0.8596,-2.0246,49.75,60.94,5.88,-3.6073,8.1654,1.3484,9.0280
4,9,0,0,31.521,31521,-4.6300,4.8800,2.9500,7.3453,0.4952,0.1811,0.0851,54.63,48.00,357.06,-3.7421,7.7325,1.5594,8.7308
4,9,0,0,31.641,31641,-8.5800,4.3900,3.3700,10.2101,0.0796,0.0185,-0.4440,56.31,42.38,356.44,-4.3796,7.2920,1.7980,8.6941
4,9,0,0,31.762,31762,-8.8400,3.2300,4.3500,10.3683,0.3185,-0.0098,-0.3818,58.19,38.81,355.00,-4.9674,6.7568,2.1343,8.6535
4,9,0,0,31.883,31883,-7.9400,3.6200,3.7500,9.4979,0.5192,0.4091,-1.0025,59.50,28.31,351.13,-5.3591,6.3434,2.3472,8.6295
4,9,0,0,32.051,32051,-7.1400,-0.4200,4.3900,8.3921,0.3643,0.3163,-1.3635,59.13,1.69,341.69,-5.5938,5.4522,2.6164,8.2378
4,9,0,0,32.173,32173,-7.0300,-1.7100,4.9500,8.7663,-0.0087,-0.2291,-0.0654,58.63,-7.63,337.25,-5.7830,4.5084,2.9239,7.8942
4,9,0,0,32.294,32294,-8.4200,-0.6500,4.5700,9.6023,-0.2553,-0.3196,0.0644,60.56,-7.25,336.31,-6.1305,3.8286,3.1408,7.8808
4,9,0,0,32.416,32416,-7.5500,-0.1600,4.2000,8.6411,0.0338,-0.3262,0.7636,63.00,-1.25,338.88,-6.3176,3.3030,3.2804,7.8475
4,10,0,0,32.536,32536,-9.2600,0.5400,3.9500,10.0818,0.0633,-0.2858,1.7551,64.06,13.94,346.81,-6.7053,2.9389,3.3686,8.0589
4,10,0,0,32.658,32658,-7.0500,5.4200,3.2300,9.4611,0.1014,-0.3305,1.4846,55.63,46.00,7.06,-6.7507,3.2659,3.3504,8.2136
4,10,0,0,32.778,32778,-9.1700,4.7100,2.9100,10.7117,-0.0633,-0.2269,1.4628,50.19,55.06,15.94,-7.0695,3.4562,3.2923,8.5301
4,10,0,0,32.904,32904,-5.2100,7.3700,2.7400,9.4323,-0.4549,-0.1069,2.8471,38.56,65.13,29.69,-6.8245,3.9719,3.2195,8.5273
4,10,0,0,33.067,33067,-4.9700,7.2600,3.0200,9.3021,-0.3000,-0.0720,0.7352,26.94,71.00,39.63,-6.5801,4.4052,3.1933,8.5382
4,10,0,0,33.188,33188,-5.0400,12.0600,2.5100,13.3096,-0.1167,-0.1025,0.3436,18.63,74.81,48.88,-6.3772,5.4139,3.1032,8.9224
4,10,0,0,33.308,33308,-2.3700,8.5300,2.7800,9.2793,0.4811,0.2007,-0.1189,12.69,73.31,52.81,-5.8491,5.8245,3.0606,8.8037
4,10,0,0,33.429,33429,-2.2700,5.8100,2.8600,6.8621,0.1385,-0.0764,0.9272,10.69,71.00,55.00,-5.3775,5.8226,3.0342,8.4868
4,10,0,0,33.551,33551,-1.4700,7.3500,1.6200,7.6686,-0.6927,0.4047,0.6381,7.75,72.88,57.06,-4.8626,6.0239,2.8478,8.2488
4,10,0,0,33.677,33677,3.8300,12.1900,0.9200,12.8106,-0.6414,0.5258,1.8991,-6.69,78.25,67.75,-3.7171,6.8364,2.5938,8.2025
4,10,0,0,33.798,33798,4.7700,10.3400,1.4600,11.4804,-0.3174,0.3196,2.5438,-21.94,81.56,81.00,-2.5987,7.2981,2.4444,8.1235
4,10,0,0,33.919,33919,5.8600,8.7000,2.0200,10.6822,-0.2040,0.1200,2.1042,-37.13,82.06,95.00,-1.4841,7.4828,2.3885,7.9938
4,10,0,0,34.081,34081,8.6100,7.7600,2.0700,11.7743,-0.1887,-0.5640,0.3676,-53.81,79.56,114.56,-0.1539,7.5194,2.3465,7.8785
4,10,0,0,34.202,34202,7.7900,7.5000,2.3100,11.0576,-0.4254,-0.4669,-0.8803,-49.56,76.94,114.50,0.8929,7.5168,2.3417,7.9236
4,10,0,0,34.324,34324,1.5900,8.4200,0.1500,8.5701,-1.4759,0.3894,-1.9362,-30.69,86.69,98.13,0.9847,7.6358,2.0529,7.9681
4,10,0,0,34.445,34445,-1.1200,10.2700,-1.8800,10.5006,-1.0101,0.1418,-3.2278,-16.81,95.13,87.13,0.7074,7.9829,1.5346,8.1598
4,10,0,0,34.570,34570,-0.5500,9.6100,-0.6000,9.6444,0.2825,-0.0818,-1.1083,-9.94,96.31,81.88,0.5417,8.1973,1.2533,8.3103
4,10,0,0,34.691,34691,1.6100,10.5500,-1.3800,10.7610,0.5149,1.0101,-0.3709,-5.31,94.31,72.00,0.6825,8.5074,0.9063,8.5827
4,10,0,0,34.812,34812,-0.1600,8.9900,0.5600,9.0088,0.8748,0.5192,-0.4025,-2.19,88.94,63.75,0.5715,8.5710,0.8607,8.6330
4,10,0,0,34.932,34932,0.6600,9.4700,1.3700,9.5913,0.4778,0.1254,-0.7363,0.31,84.63,58.38,0.5831,8.6894,0.9278,8.7583
4,10,0,0,35.096,35096,-1.3100,9.9300,0.7300,10.0426,0.1353,0.0382,-0.7909,8.19,83.75,50.69,0.3337,8.8529,0.9017,8.9050
4,10,0,0,35.221,35221,-2.0200,10.7500,1.1400,10.9974,0.6490,-0.1047,-0.1473,10.44,80.94,48.38,0.0235,9.1029,0.9331,9.1506
4,10,0,0,35.343,35343,-2.0100,8.3600,2.3900,8.9242,0.4811,-0.0316,0.2662,10.56,77.13,50.69,-0.2445,9.0050,1.1251,9.0783
4,10,0,0,35.464,35464,-0.6900,9.2500,1.6700,9.4248,0.3142,0.2716,-0.5596,11.94,74.38,47.13,-0.3032,9.0373,1.1969,9.1212
4,10,0,0,35.584,35584,-5.9700,9.0400,3.1800,11.2905,0.0164,0.0044,-1.7617,18.50,72.13,41.38,-1.0499,9.0376,1.4582,9.2145
4,10,0,0,35.705,35705,-2.4500,8.8800,1.8500,9.3957,0.5683,1.0854,0.1091,19.56,69.94,36.06,-1.2344,9.0169,1.5099,9.2254
4,10,0,0,35.826,35826,-0.3900,7.0100,5.1800,8.7249,0.4571,0.0458,-0.2498,21.38,62.75,31.06,-1.1231,8.7524,1.9935,9.0466
4,10,0,0,35.947,35947,-4.6400,6.5600,4.4100,9.1658,-0.3872,-0.4342,-3.5256,32.69,61.00,19.56,-1.5866,8.4635,2.3119,8.9159
4,10,0,0,36.114,36114,-6.5400,7.1000,1.9100,9.8402,0.2465,-0.0851,-0.0295,45.25,62.94,9.69,-2.2393,8.2838,2.2590,8.8735
4,10,0,0,36.236,36236,-7.2700,5.4500,3.5800,9.7658,1.2872,0.0764,0.2127,45.44,54.63,13.25,-2.9022,7.9104,2.4330,8.7702
4,10,0,0,36.356,36356,-6.3500,3.9500,5.1000,9.0518,0.8410,0.3458,0.0153,45.31,45.00,15.06,-3.3566,7.3885,2.7845,8.5796
4,10,0,0,36.477,36477,-6.6600,2.8600,4.7000,8.6386,0.1374,-0.1844,0.1025,45.06,41.88,16.69,-3.7919,6.7918,3.0369,8.3504
4,10,0,0,36.599,36599,-6.1400,2.7000,3.7200,7.6699,-0.6414,-0.2422,0.7592,44.25,46.88,18.94,-4.1013,6.2526,3.1269,8.1051
4,10,0,0,36.719,36719,-5.1800,4.6800,2.8200,7.5291,-1.0156,-0.3851,0.8650,40.69,57.50,22.94,-4.2434,6.0454,3.0865,8.0050
4,10,0,0,36.840,36840,-1.9400,9.2400,2.5100,9.7694,-1.0908,-0.0654,2.3431,31.00,69.81,32.50,-3.9399,6.4663,3.0105,8.1486
4,10,0,0,36.962,36962,-3.6600,10.7500,2.4300,11.6131,-0.5181,-0.2956,1.7104,19.50,77.13,43.50,-3.9030,7.0308,2.9340,8.5600
4,10,0,0,37.128,37128,-1.3500,8.4200,1.1700,8.6074,-0.6021,-0.0698,1.2414,7.44,82.56,56.75,-3.5666,7.2139,2.7016,8.4888
4,10,0,0,37.249,37249,1.6300,10.4400,-0.0600,10.5666,-0.5912,-0.1920,1.6668,-0.88,87.00,65.50,-2.8818,7.6390,2.3377,8.4926
4,10,0,0,37.371,37371,2.1400,9.6100,0.5000,9.8581,-0.6032,-0.2400,0.7374,-8.75,90.38,74.94,-2.2201,7.8987,2.0955,8.4682
4,10,0,0,37.491,37491,2.8400,10.8400,-0.8300,11.2366,-0.4658,-0.3272,2.6507,-15.13,94.06,83.19,-1.5533,8.2863,1.7100,8.6023
4,10,0,0,37.612,37612,4.6000,9.6000,-0.3100,10.6497,0.2018,-0.6545,1.4999,-30.13,93.44,100.81,-0.7424,8.4594,1.4438,8.6138
