participant,rep,equipment_code,exercise_code,timestamp,timestamp_ms,accelX,accelY,accelZ,accelMag,gyroX,gyroY,gyroZ,roll,pitch,yaw,filteredX,filteredY,filteredZ,filteredMag
5,1,0,0,00.000,0,-6.6900,6.6000,1.0400,9.4550,-0.0731,-0.1200,-0.3305,45.06,79.63,19.88,-6.9310,6.5100,0.8491,9.5467
5,1,0,0,00.121,121,-7.3100,6.5800,1.1400,9.9011,-0.0207,-0.1287,-0.2531,47.44,80.44,18.06,-6.9809,6.5192,0.8875,9.5928
5,1,0,0,00.241,241,-7.0900,6.5400,1.1600,9.7152,-0.0196,-0.1047,0.0000,47.94,81.25,18.00,-6.9953,6.5220,0.9234,9.6085
5,1,0,0,00.362,362,-7.1300,6.4900,0.9700,9.6901,-0.0284,-0.0262,-0.0873,48.13,81.81,18.06,-7.0131,6.5178,0.9295,9.6192
5,1,0,0,00.484,484,-7.2400,6.3400,0.8300,9.6593,-0.0295,0.0393,-0.0011,48.44,81.81,17.50,-7.0430,6.4943,0.9164,9.6239
5,1,0,0,00.604,604,-7.0500,6.2900,0.8000,9.4819,-0.0567,-0.0175,-0.0044,48.25,82.06,17.44,-7.0439,6.4674,0.9011,9.6050
5,1,0,0,00.726,726,-7.3300,6.3500,0.6800,9.7218,-0.0251,-0.0185,-0.0524,48.56,82.56,17.00,-7.0816,6.4519,0.8719,9.6196
5,1,0,0,00.852,852,-7.1800,6.4500,0.9000,9.6935,0.0458,0.0065,-0.0185,48.75,82.50,16.94,-7.0946,6.4517,0.8756,9.6293
5,1,0,0,01.015,1015,-8.1100,8.4100,2.1900,11.8868,0.1909,0.2094,0.1353,48.13,80.94,17.88,-7.2284,6.7097,1.0488,9.9182
5,1,0,0,01.135,1135,-7.8400,9.2200,2.8500,12.4337,0.6109,1.0210,1.8730,41.13,75.44,23.06,-7.3090,7.0405,1.2862,10.2296
5,1,0,0,01.257,1257,-4.7400,9.4200,3.6700,11.1657,1.0112,1.2926,2.6082,23.13,68.13,36.69,-6.9704,7.3541,1.6003,10.2582
5,1,0,0,01.383,1383,-2.6100,9.1100,4.5700,10.5209,1.0516,1.6242,2.3442,4.50,60.69,47.19,-6.3958,7.5855,1.9916,10.1199
5,1,0,0,01.505,1505,1.0200,7.6600,5.0100,9.2096,0.7538,1.5195,3.1536,-18.50,53.81,60.56,-5.4186,7.5953,2.3894,9.6312
5,1,0,0,01.626,1626,4.4800,4.6600,3.7300,7.4632,0.5171,1.1868,3.2507,-41.00,45.38,77.38,-4.1142,7.2085,2.5660,8.6876
5,1,0,0,01.748,1748,7.1700,2.7400,3.7700,8.5516,0.3960,0.7472,1.8566,-57.00,30.94,91.31,-2.6273,6.6197,2.7247,7.6254
5,1,0,0,01.869,1869,7.3500,0.2400,3.4900,8.1400,0.1244,0.2705,0.8116,-63.19,18.94,97.56,-1.3125,5.7790,2.8255,6.5653
5,1,0,0,02.034,2034,6.9200,-1.4800,3.0800,7.7177,-0.4080,0.2683,0.5574,-66.56,5.06,106.06,-0.2277,4.8224,2.8591,5.6109
5,1,0,0,02.157,2157,7.5900,0.0400,3.3800,8.3087,-0.6021,0.1364,-1.2599,-67.44,16.56,105.31,0.8025,4.1922,2.9277,5.1759
5,2,0,0,02.279,2279,7.0200,3.3400,2.8500,8.2800,-0.5858,0.1702,-2.2057,-61.63,44.81,95.13,1.6218,4.0799,2.9175,5.2714
5,2,0,0,02.399,2399,6.3200,6.7500,2.7800,9.6557,-0.2596,-0.0349,-1.7781,-51.25,59.75,83.94,2.2409,4.4318,2.8994,5.7505
5,2,0,0,02.520,2520,5.0800,7.4500,3.2700,9.5918,-0.5334,-0.1276,-1.8577,-39.81,67.69,72.88,2.6150,4.8295,2.9482,6.2333
5,2,0,0,02.641,2641,4.1300,10.5900,2.4800,11.6342,-0.4614,-0.4811,-1.8904,-27.69,72.88,63.81,2.8147,5.5886,2.8865,6.8910
5,2,0,0,02.762,2762,2.0200,9.4700,2.5400,10.0106,-0.1309,-0.1854,-1.7224,-15.38,75.25,54.06,2.7099,6.1001,2.8408,7.2543
5,2,0,0,02.887,2887,1.3200,11.4300,2.9700,11.8831,-0.3862,-0.3163,-1.2217,-5.75,76.75,45.75,2.5268,6.8024,2.8579,7.7990
5,2,0,0,03.050,3050,-0.8500,9.0700,1.8000,9.2859,-0.2607,-0.3392,-0.6960,4.25,80.13,38.44,2.0818,7.1012,2.7185,7.8836
5,2,0,0,03.171,3171,-1.4800,10.4700,1.6500,10.7020,0.0316,-0.2716,-0.8312,9.75,80.94,35.13,1.6125,7.5451,2.5777,8.1347
5,2,0,0,03.292,3292,-2.9200,9.5100,1.7100,10.0941,0.0774,-0.2618,-0.9894,16.44,80.56,30.19,1.0152,7.8041,2.4633,8.2463
5,2,0,0,03.413,3413,-3.5200,9.2400,1.7900,10.0485,0.0382,-0.1145,-0.3687,20.94,80.25,26.94,0.4176,7.9933,2.3746,8.3490
5,2,0,0,03.534,3534,-3.3000,10.0100,2.1000,10.7471,0.2498,0.1560,-0.1505,22.19,79.56,25.94,-0.0723,8.2590,2.3384,8.5840
5,2,0,0,03.655,3655,-3.4500,9.4600,2.9100,10.4815,0.7363,0.5334,0.1113,21.75,75.06,24.50,-0.5174,8.4173,2.4137,8.7718
5,2,0,0,03.777,3777,-3.4400,9.3900,3.9400,10.7485,0.8978,0.5367,0.3142,19.06,68.19,24.00,-0.9025,8.5455,2.6149,8.9820
5,2,0,0,03.903,3903,-3.6100,9.4800,4.7900,11.2181,0.7341,0.8050,1.1563,13.13,62.25,26.81,-1.2593,8.6686,2.9015,9.2276
5,2,0,0,04.066,4066,-0.1000,8.8600,5.6000,10.4819,0.5498,1.1388,1.7748,-5.00,56.00,36.06,-1.1065,8.6938,3.2571,9.3496
5,2,0,0,04.186,4186,2.1100,7.7300,5.5000,9.7188,0.4222,1.1825,1.9820,-19.75,52.50,43.06,-0.6827,8.5668,3.5526,9.2993
5,2,0,0,04.308,4308,4.0500,6.0600,4.7800,8.7163,0.3142,0.9545,2.2471,-35.25,48.31,53.38,-0.0590,8.2365,3.7144,9.0355
5,2,0,0,04.430,4430,6.3700,4.2700,4.7000,8.9944,0.2345,0.7385,2.0911,-49.44,40.13,65.38,0.7881,7.7138,3.8443,8.6546
5,2,0,0,04.555,4555,7.6600,2.9300,4.2400,9.2324,0.2225,0.5989,1.5359,-60.63,27.06,76.19,1.6937,7.0834,3.8964,8.2599
5,2,0,0,04.676,4676,7.5700,1.0200,3.6200,8.4528,0.3185,0.2498,1.5566,-66.13,8.13,84.50,2.4680,6.2844,3.8600,7.7772
5,2,0,0,04.797,4797,7.5500,-1.4300,3.3900,8.3988,0.4342,-0.1429,1.8184,-64.25,-22.69,95.69,3.1377,5.2679,3.7981,7.2125
5,2,0,0,04.918,4918,6.6200,-3.9400,3.2400,8.3574,0.2902,0.3403,0.6796,-60.75,-39.00,101.75,3.5966,4.0545,3.7245,6.5762
5,2,0,0,05.079,5079,7.2900,-3.1900,2.5700,8.3621,-0.7199,0.3174,-0.7701,-64.31,-39.69,102.81,4.0833,3.0999,3.5724,6.2485
5,3,0,0,05.201,5201,7.5100,-1.1600,3.2300,8.2570,-0.8029,0.0862,-1.5577,-69.44,-18.75,98.56,4.5348,2.5385,3.5273,6.2810
5,3,0,0,05.322,5322,7.9700,1.4400,3.1300,8.6828,-0.7025,0.1014,-1.7508,-70.19,15.81,90.25,4.9875,2.3938,3.4749,6.5330
5,3,0,0,05.448,5448,5.9900,3.9100,2.5400,7.5908,-0.7287,0.1407,-2.9518,-61.38,52.50,75.25,5.1196,2.5936,3.3517,6.6461
5,3,0,0,05.570,5570,6.2500,8.7900,2.4900,11.0692,-0.4505,-0.1963,-2.1566,-45.25,69.63,59.81,5.2686,3.4101,3.2382,7.0620
5,3,0,0,05.690,5690,3.9300,6.7800,2.3800,8.1901,-0.1069,-0.4363,-2.2569,-31.38,73.13,48.19,5.0922,3.8542,3.1251,7.1099
5,3,0,0,05.812,5812,2.9000,10.1700,3.0100,10.9954,-0.0676,-0.9174,-2.1522,-15.81,73.38,36.88,4.8033,4.6864,3.1099,7.3963
5,3,0,0,05.933,5933,-1.3400,11.0600,3.1100,11.5668,-0.3371,-0.6240,-1.7715,-0.63,74.44,26.81,3.9938,5.5263,3.1099,7.4941
5,3,0,0,06.100,6100,-2.6300,9.0200,2.3500,9.6850,-0.5127,0.2280,-1.2566,12.56,78.06,14.25,3.1209,5.9867,3.0098,7.3918
5,3,0,0,06.222,6222,-3.8900,9.9600,1.5200,10.8002,-0.4483,0.2182,-0.8116,19.81,80.69,4.00,2.1971,6.5103,2.8135,7.4247
5,3,0,0,06.342,6342,-4.2400,9.3500,1.3000,10.3484,-0.1407,0.0011,-0.7854,24.75,81.88,357.63,1.3488,6.8845,2.6140,7.4865
5,3,0,0,06.463,6463,-4.3600,8.1100,0.8200,9.2441,0.0404,-0.3523,-0.1756,28.00,82.69,355.38,0.5965,7.0460,2.3776,7.4602
5,3,0,0,06.584,6584,-4.7800,8.9800,0.8700,10.2101,0.2400,-0.5203,-0.7298,30.69,83.31,355.81,-0.1119,7.3008,2.1790,7.6199
5,3,0,0,06.705,6705,-6.0600,8.3100,1.2200,10.3570,0.5498,-0.2760,-0.7865,37.38,82.00,353.25,-0.8957,7.4338,2.0526,7.7638
5,3,0,0,06.827,6827,-6.3600,8.1100,2.1400,10.5262,0.7123,0.1724,0.7385,37.06,77.88,356.13,-1.6158,7.5229,2.0641,7.9665
5,3,0,0,06.953,6953,-4.7800,9.1500,3.3000,10.8379,0.7570,0.3251,0.7821,30.31,73.00,3.69,-2.0328,7.7373,2.2270,8.3041
5,3,0,0,07.115,7115,-5.6500,9.3900,4.5200,11.8543,0.7418,1.1868,1.2665,21.00,63.69,8.56,-2.5094,7.9551,2.5291,8.7165
5,3,0,0,07.236,7236,-2.6900,9.2100,5.1300,10.8801,0.5781,1.4148,2.2602,6.06,58.63,16.38,-2.5332,8.1205,2.8719,8.9781
5,3,0,0,07.357,7357,1.1500,8.7700,5.1700,10.2452,0.2094,1.4312,2.6878,-13.69,55.94,28.25,-2.0479,8.2061,3.1747,9.0339
5,3,0,0,07.479,7479,3.2400,6.5000,4.3600,8.4710,0.1254,1.0974,2.8471,-33.44,53.31,42.13,-1.3511,7.9812,3.3309,8.7533
5,3,0,0,07.605,7605,5.4700,4.4700,3.9500,8.0935,0.0818,0.8672,2.9638,-52.06,45.75,58.25,-0.4522,7.5185,3.4125,8.2691
5,3,0,0,07.727,7727,8.3700,0.7600,3.4700,9.0926,-0.1614,0.6152,2.8373,-68.31,18.31,78.44,0.7103,6.6279,3.4201,7.4921
5,3,0,0,07.847,7847,8.4300,0.1000,2.5900,8.8195,-0.2902,0.4941,1.0723,-72.50,-14.44,92.00,1.7276,5.7677,3.3107,6.8711
5,3,0,0,07.969,7969,7.5500,-1.7900,2.6100,8.1865,-0.2880,0.3665,0.7767,-73.44,-30.25,98.31,2.4948,4.7718,3.2183,6.2731
5,3,0,0,08.131,8131,8.1800,-3.8100,1.8600,9.2135,-0.2345,-0.3491,0.5127,-68.13,-49.81,109.25,3.2440,3.6409,3.0393,5.7461
5,3,0,0,08.257,8257,7.3000,-2.2300,2.6700,8.0865,-0.2160,-1.1126,-1.9842,-67.63,-27.50,103.19,3.7785,2.8673,2.9907,5.6074
5,4,0,0,08.379,8379,5.4300,0.8100,3.3100,6.4107,-0.5040,-0.9599,-2.6180,-61.56,15.31,86.44,3.9961,2.5962,3.0328,5.6486
5,4,0,0,08.500,8500,4.5600,6.4700,4.0900,8.9097,-1.1705,-0.8367,-3.4667,-46.88,41.56,71.44,4.0704,3.1067,3.1721,6.0234
5,4,0,0,08.622,8622,2.1000,10.2400,4.6500,11.4407,-0.9567,-0.5269,-3.1536,-25.13,58.31,52.13,3.8108,4.0467,3.3668,6.4987
5,4,0,0,08.742,8742,1.0500,10.3100,5.2600,11.6218,-0.5967,-0.2073,-1.0363,-12.31,64.44,41.00,3.4470,4.8720,3.6163,6.9782
5,4,0,0,08.863,8863,0.7300,10.1700,4.1800,11.0197,-0.8476,0.0425,-0.3000,-9.50,69.38,39.25,3.0889,5.5702,3.6906,7.3613
5,4,0,0,08.986,8986,0.2800,8.7600,2.4100,9.0898,-0.5978,0.4483,-0.6970,-7.38,74.44,35.81,2.7188,5.9905,3.5218,7.4620
5,4,0,0,09.147,9147,-0.1300,10.4400,2.0500,10.6402,-0.1473,0.1124,-0.9741,-3.13,77.81,27.75,2.3434,6.5768,3.3279,7.7344
5,4,0,0,09.272,9272,-2.1200,9.3300,1.5400,9.6910,0.0862,-0.3043,-1.5097,6.13,77.69,18.06,1.7552,6.9396,3.0923,7.7975
5,4,0,0,09.393,9393,-3.7800,8.4200,1.4200,9.3382,0.1145,-0.4931,-1.2817,16.25,77.06,10.38,1.0258,7.1347,2.8719,7.7591
5,4,0,0,09.513,9513,-4.9500,8.7900,2.0400,10.2921,0.0218,-0.5138,-0.7712,23.44,77.06,6.38,0.2384,7.3528,2.7623,7.8582
5,4,0,0,09.634,9634,-5.4400,8.2600,1.5800,10.0159,-0.0349,-0.2443,-0.5356,28.69,78.00,3.44,-0.5099,7.4724,2.6065,7.9303
5,4,0,0,09.756,9756,-5.3100,7.7700,1.4700,9.5252,-0.0862,-0.1538,-0.7701,33.13,78.44,359.88,-1.1424,7.5116,2.4567,7.9853
5,4,0,0,09.876,9876,-6.1900,8.1900,1.1500,10.3303,-0.0982,-0.3109,-0.7112,38.56,79.88,355.31,-1.8076,7.6010,2.2845,8.1401
5,4,0,0,09.998,9998,-6.9700,8.9500,1.3100,11.4193,0.3938,0.0622,-0.0240,41.31,79.25,355.25,-2.4878,7.7788,2.1561,8.4467
5,4,0,0,10.165,10165,-6.3300,8.1300,2.8500,10.6906,0.8508,0.1974,1.1181,35.69,72.50,4.94,-2.9941,7.8250,2.2476,8.6745
5,4,0,0,10.286,10286,-5.7600,7.4600,2.9200,9.8669,0.4102,0.6327,1.8184,24.13,68.81,16.69,-3.3586,7.7769,2.3362,8.7874
5,4,0,0,10.406,10406,-2.5200,7.7400,3.5200,8.8684,0.0033,0.8934,0.9414,12.69,67.13,23.63,-3.2481,7.7721,2.4922,8.7844
5,4,0,0,10.527,10527,-2.7800,8.4900,2.9700,9.4143,-0.4669,0.7690,-0.0153,8.63,68.25,21.13,-3.1864,7.8667,2.5551,8.8638
5,4,0,0,10.648,10648,-0.9600,9.2900,3.3000,9.9053,-0.1549,0.4527,0.5869,4.00,70.06,21.38,-2.8930,8.0542,2.6533,8.9599
5,4,0,0,10.769,10769,-1.3000,9.1000,3.8000,9.9469,0.4985,0.5356,0.3054,0.63,68.69,21.81,-2.6831,8.1920,2.8044,9.0649
5,4,0,0,10.890,10890,-0.1900,8.8800,5.0300,10.2074,0.6556,0.9588,1.0548,-6.13,64.63,23.56,-2.3546,8.2827,3.0977,9.1511
5,4,0,0,11.012,11012,1.6300,9.0600,5.1200,10.5335,0.1614,1.1988,0.6043,-14.75,62.56,23.81,-1.8295,8.3851,3.3642,9.2182
5,4,0,0,11.178,11178,2.9800,8.3000,3.3600,9.4372,-0.0251,1.1050,1.1814,-25.00,64.81,22.75,-1.1957,8.3739,3.3636,9.1031
5,4,0,0,11.299,11299,4.5800,8.8900,3.0200,10.4465,0.0611,0.8803,1.1421,-36.06,66.31,27.94,-0.4347,8.4419,3.3183,9.0811
5,4,0,0,11.421,11421,7.0400,6.3900,3.1900,10.0284,0.6338,0.4505,1.3930,-45.50,64.75,32.44,0.5503,8.1715,3.3014,8.8304
5,4,0,0,11.541,11541,6.7900,4.6000,3.9700,9.1118,0.6916,-0.0709,1.9373,-55.13,54.88,40.19,1.3725,7.7009,3.3895,8.5250
5,4,0,0,11.662,11662,6.9200,3.3600,3.3400,8.3864,0.3272,0.5945,1.7257,-65.63,37.69,50.56,2.1036,7.1289,3.3830,8.1664
5,4,0,0,11.783,11783,8.0400,0.3700,2.8900,8.5516,-0.3872,1.1628,1.1421,-75.56,24.75,59.06,2.8858,6.2382,3.3180,7.6324
5,4,0,0,11.905,11905,9.3100,-0.1100,1.2800,9.3982,-0.9774,1.1116,1.2665,-85.13,-1.13,71.38,3.7324,5.4017,3.0495,7.2393
5,4,0,0,12.031,12031,9.3000,-0.6000,-0.4800,9.3317,-0.6927,0.6360,1.1476,-80.81,-93.13,85.69,4.4660,4.6108,2.5844,6.9198
5,4,0,0,12.193,12193,8.9400,-1.4400,-0.2300,9.0582,-0.1767,-0.0676,0.1582,-73.44,-95.56,96.56,5.0556,3.8135,2.2135,6.7083
5,4,0,0,12.314,12314,8.8900,-2.8500,0.8800,9.3770,-0.0524,-0.0382,0.3207,-72.44,-93.56,98.00,5.5609,2.9354,2.0378,6.6100
5,4,0,0,12.436,12436,7.9100,-4.0100,0.3100,8.8738,-0.3218,-0.1822,0.2498,-69.25,-89.19,102.25,5.8704,2.0202,1.8101,6.4668
5,5,0,0,12.558,12558,8.9400,-2.0400,0.7500,9.2004,-0.3163,-0.3687,-2.0519,-75.38,-78.75,97.25,6.2749,1.4851,1.6704,6.6611
5,5,0,0,12.683,12683,7.8800,0.7200,1.4500,8.0446,-0.2782,-0.2891,-2.2940,-84.31,1.94,82.63,6.4864,1.3843,1.6414,6.8326
5,5,0,0,12.804,12804,8.1300,4.8400,1.4900,9.5782,-0.2127,0.0153,-2.2460,-71.19,71.69,68.81,6.7030,1.8397,1.6214,7.1375
5,5,0,0,12.925,12925,7.9100,6.5200,1.5700,10.3703,0.2247,-0.0382,-1.7901,-58.25,79.44,55.44,6.8621,2.4564,1.6146,7.4652
5,5,0,0,13.047,13047,7.0900,7.7300,1.9600,10.6706,0.4461,-0.5214,-1.4072,-46.81,77.56,43.44,6.8921,3.1514,1.6602,7.7581
5,5,0,0,13.208,13208,4.9400,8.2600,3.3400,10.1876,0.3611,-1.0668,-1.3232,-34.69,69.56,35.69,6.6349,3.8245,1.8815,7.8860
5,5,0,0,13.329,13329,3.1500,7.9000,3.5200,9.2045,0.3011,-0.8356,-1.0417,-24.75,65.50,30.38,6.1756,4.3616,2.0974,7.8461
5,5,0,0,13.451,13451,2.0700,8.0600,4.1000,9.2768,-0.1647,-1.0876,-0.7538,-16.50,63.81,28.00,5.6346,4.8489,2.3613,7.7998
5,5,0,0,13.577,13577,0.0000,10.4800,3.5400,11.0617,-0.4211,-1.2545,-0.9981,-8.31,65.25,28.00,4.8921,5.5910,2.5166,7.8438
5,5,0,0,13.698,13698,-1.3600,8.7900,3.4400,9.5366,0.0305,-0.9468,-0.8410,1.19,66.06,25.94,4.0683,6.0125,2.6383,7.7241
5,5,0,0,13.819,13819,-2.0700,8.7100,4.2700,9.9188,-0.1593,-0.8956,-0.5531,7.75,66.63,25.56,3.2594,6.3680,2.8533,7.7017
5,5,0,0,13.940,13940,-3.2500,8.9500,3.3400,10.0906,-0.6501,-0.7647,-0.5465,13.50,70.25,24.88,2.4016,6.7082,2.9175,7.6993
5,5,0,0,14.061,14061,-3.9900,9.0500,2.4400,10.1871,-0.3840,-0.3643,-0.3818,17.31,74.63,24.00,1.5594,7.0168,2.8545,7.7341
5,5,0,0,14.228,14228,-4.0200,9.1800,2.3800,10.3003,-0.0262,-0.2683,-0.4080,21.63,76.44,21.31,0.8241,7.3019,2.7920,7.8608
5,5,0,0,14.350,14350,-4.5400,9.2400,2.2000,10.5275,0.3425,-0.2520,-0.0524,23.63,76.06,21.88,0.1173,7.5573,2.7140,8.0307
5,5,0,0,14.471,14471,-4.6700,9.0400,2.6500,10.5144,0.6643,-0.1538,0.1527,24.00,73.31,24.63,-0.5136,7.7526,2.7056,8.2272
5,5,0,0,14.591,14591,-4.1600,8.5400,3.7600,10.2164,0.8945,0.0949,0.4931,21.75,68.31,28.88,-0.9941,7.8564,2.8445,8.4144
5,5,0,0,14.712,14712,-3.8600,8.3500,4.3500,10.1757,0.5705,0.4505,0.6436,17.94,63.38,32.25,-1.3717,7.9214,3.0429,8.5959
5,5,0,0,14.833,14833,-2.6800,8.0500,4.3300,9.5254,0.3000,0.7385,0.9817,11.50,60.25,35.69,-1.5441,7.9384,3.2125,8.7019
5,5,0,0,14.956,14956,-1.5800,7.7000,4.3100,8.9645,0.0622,0.8290,0.8301,3.13,59.19,39.50,-1.5488,7.9070,3.3571,8.7287
5,5,0,0,15.081,15081,0.3200,8.4200,5.2300,9.9172,0.0087,0.6665,0.5912,-3.25,59.19,40.88,-1.3026,7.9746,3.6039,8.8475
5,5,0,0,15.244,15244,1.4500,7.8900,5.1300,9.5222,0.5738,0.4800,0.8781,-11.38,56.94,44.75,-0.9399,7.9634,3.8050,8.8757
5,5,0,0,15.365,15365,2.4700,8.1400,6.8900,10.9468,0.2214,0.4276,0.5814,-16.63,53.50,47.06,-0.4905,7.9867,4.2115,9.0424
5,5,0,0,15.485,15485,2.6200,7.8700,5.4300,9.9139,-0.1822,0.7472,0.8508,-22.25,53.38,49.63,-0.0806,7.9713,4.3721,9.0920
5,5,0,0,15.607,15607,4.2800,6.4500,4.4700,8.9388,-0.3687,0.8050,0.4821,-29.69,56.19,50.56,0.4940,7.7708,4.3850,8.9364
5,5,0,0,15.733,15733,5.2300,6.8800,3.0800,9.1746,-0.4494,0.2553,0.4123,-34.56,59.63,53.38,1.1181,7.6535,4.2130,8.8077
5,5,0,0,15.855,15855,5.1400,8.4700,4.1000,10.7224,0.3556,0.3611,0.7647,-38.25,60.00,55.75,1.6481,7.7611,4.1981,8.9763
5,5,0,0,15.977,15977,5.9700,5.3800,3.7700,8.8768,0.1244,0.0873,0.8083,-44.63,56.25,60.44,2.2176,7.4473,4.1417,8.8053
5,5,0,0,16.098,16098,6.3200,4.1400,3.4300,8.2974,0.0076,0.2498,0.1451,-47.56,55.56,62.69,2.7582,7.0115,4.0479,8.5530
5,5,0,0,16.261,16261,7.4400,6.9700,4.1300,10.9996,0.2978,0.0960,0.6207,-52.00,52.94,63.50,3.3751,7.0060,4.0588,8.7721
5,5,0,0,16.386,16386,7.3300,3.2500,3.9300,8.9295,0.6490,-0.0164,0.4560,-55.56,44.94,64.19,3.8963,6.5111,4.0418,8.5971
5,5,0,0,16.508,16508,7.5700,3.0800,4.8700,9.5136,0.1691,0.0862,0.5367,-57.94,37.88,64.69,4.3804,6.0589,4.1509,8.5515
5,5,0,0,16.629,16629,7.7600,3.1700,3.6700,9.1507,-0.3262,0.8138,0.5989,-62.19,37.69,66.63,4.8257,5.6783,4.0875,8.4993
5,5,0,0,16.750,16750,9.1100,3.2700,2.5400,10.0068,-0.1560,0.7581,0.3338,-69.13,41.00,70.31,5.3903,5.3609,3.8836,8.5368
5,5,0,0,16.870,16870,8.5500,2.3700,1.5200,9.0017,0.1680,-0.0207,0.1789,-71.94,42.19,71.31,5.8067,4.9668,3.5722,8.4348
5,6,0,0,16.992,16992,9.3100,2.5500,3.0900,10.1354,0.6054,-0.3294,0.4854,-72.13,29.38,72.19,6.2683,4.6483,3.5086,8.5562
5,6,0,0,17.113,17113,9.4300,1.1200,3.9700,10.2927,0.4309,-0.2051,0.6916,-71.69,13.69,72.94,6.6849,4.1834,3.5694,8.6562
5,6,0,0,17.276,17276,7.9200,-0.5100,3.2700,8.5837,0.0109,0.1484,0.5192,-71.50,-0.63,75.50,6.8477,3.5649,3.5300,8.4888
5,6,0,0,17.400,17400,9.3700,0.2600,3.3500,9.9542,-0.1898,0.4014,0.4461,-73.38,-13.13,79.88,7.1801,3.1294,3.5062,8.5814
5,6,0,0,17.521,17521,8.9100,-0.1700,2.7500,9.3263,-0.0458,0.4996,0.6981,-74.94,-25.44,83.56,7.4080,2.6946,3.4066,8.5875
5,6,0,0,17.642,17642,9.4100,-1.2300,1.6900,9.6394,0.0764,0.3883,0.2793,-74.63,-46.63,87.88,7.6718,2.1775,3.1804,8.5856
5,6,0,0,17.763,17763,8.6900,-1.7600,1.7300,9.0336,0.1156,0.2138,0.0098,-76.19,-51.56,86.81,7.8060,1.6586,2.9893,8.5218
5,6,0,0,17.884,17884,9.8700,-1.3500,1.6500,10.0976,0.0611,0.1167,0.3665,-75.00,-59.69,88.25,8.0780,1.2621,2.8128,8.6463
5,6,0,0,18.012,18012,9.4200,-2.3400,1.3700,9.8025,0.0982,0.0044,0.5269,-72.56,-66.13,90.19,8.2548,0.7875,2.6227,8.6972
5,6,0,0,18.133,18133,8.4000,-3.0600,1.6700,9.0946,0.0164,-0.0142,0.1996,-69.56,-69.75,93.06,8.2740,0.2805,2.4971,8.6471
5,6,0,0,18.296,18296,8.2500,-2.9700,1.0300,8.8286,-0.2367,0.0458,-0.9010,-72.38,-66.25,90.81,8.2708,-0.1479,2.3038,8.5869
5,6,0,0,18.417,18417,9.4100,-1.9300,1.8800,9.7881,-0.2891,-0.1734,-1.3166,-78.56,-48.00,84.88,8.4209,-0.3827,2.2480,8.7242
5,6,0,0,18.542,18542,8.5900,1.1500,1.6800,8.8280,-0.3142,-0.3240,-2.1860,-79.56,19.88,75.13,8.4432,-0.1807,2.1731,8.7202
5,6,0,0,18.665,18665,7.6200,3.8400,2.0000,8.7641,-0.1287,0.0196,-1.4726,-69.19,58.31,62.56,8.3347,0.3491,2.1503,8.6147
5,6,0,0,18.786,18786,8.6000,4.8500,2.3700,10.1538,-0.1091,-0.2171,-1.0265,-62.63,66.44,56.06,8.3697,0.9422,2.1792,8.6999
5,6,0,0,18.906,18906,6.9900,5.4400,2.5700,9.2227,0.2062,-0.5705,-1.8762,-51.63,68.19,46.44,8.1879,1.5349,2.2307,8.6240
5,6,0,0,19.028,19028,5.4800,5.1900,3.0700,8.1481,0.0993,-0.7778,-0.7592,-42.63,65.25,40.31,7.8310,2.0165,2.3413,8.4186
5,6,0,0,19.148,19148,4.6400,8.2000,3.9800,10.2279,0.0720,-0.5574,-1.7257,-32.56,64.44,33.81,7.4105,2.8314,2.5573,8.3350
5,6,0,0,19.316,19316,1.6800,6.9400,3.0300,7.7567,-0.5018,-0.3491,-1.3406,-17.50,67.63,21.25,6.6554,3.3728,2.6196,7.9077
5,6,0,0,19.438,19438,1.0700,9.8400,2.8600,10.3029,-0.4407,-0.3327,-1.2785,-9.06,71.44,16.00,5.9194,4.2250,2.6512,7.7407
5,6,0,0,19.558,19558,-1.5200,10.7300,2.9100,11.2210,-0.2847,-0.1004,-2.2940,4.00,73.75,3.19,4.9391,5.0822,2.6853,7.5785
5,6,0,0,19.679,19679,-3.7100,9.6600,2.5400,10.6551,0.0731,-0.4734,-1.9046,18.44,74.06,350.00,3.7993,5.6854,2.6662,7.3395
5,7,0,0,19.800,19800,-3.6200,10.6000,3.1700,11.6410,0.3458,-0.5629,-0.1974,26.38,73.13,345.94,2.8217,6.3330,2.7326,7.4523
5,7,0,0,19.922,19922,-3.1900,12.0500,4.2900,13.1827,0.3229,0.0796,1.1617,23.19,72.50,352.13,2.0295,7.0864,2.9378,7.9351
5,7,0,0,20.045,20045,-2.7800,12.6100,5.5100,14.0393,0.7145,1.1945,1.9929,12.00,68.63,359.88,1.3957,7.8143,3.2768,8.5877
5,7,0,0,20.170,20170,-0.6300,10.1500,5.2100,11.4264,0.4527,1.4083,3.9041,-12.75,64.25,17.38,1.1288,8.1221,3.5315,8.9282
5,7,0,0,20.333,20333,3.5100,5.3300,2.5700,6.8800,0.3851,1.4039,3.7535,-51.00,55.50,45.88,1.4426,7.7541,3.4048,8.5907
5,7,0,0,20.453,20453,5.9500,1.6700,1.3300,6.3214,0.4232,0.9468,2.9703,-72.81,30.75,64.94,2.0365,6.9524,3.1314,7.8923
5,7,0,0,20.575,20575,5.8400,-3.5700,0.0700,6.8451,0.4952,0.6796,0.5051,-80.25,-13.25,72.81,2.5377,5.5658,2.7280,6.6978
5,7,0,0,20.701,20701,6.8000,-3.9900,0.8800,7.9331,-0.4461,-0.2934,-0.4603,-81.44,-16.75,72.75,3.0994,4.3066,2.4845,5.8588
5,7,0,0,20.823,20823,7.2900,0.8100,0.8400,7.3828,-1.3875,-1.0701,-2.9060,-72.38,42.81,66.00,3.6516,3.8458,2.2678,5.7678
5,7,0,0,20.943,20943,4.1700,7.2200,2.1500,8.6104,-0.5607,-0.8290,-4.2881,-48.19,64.88,48.50,3.7199,4.2905,2.2523,6.1089
5,7,0,0,21.065,21065,2.1600,12.3000,3.4700,12.9613,-0.1233,-0.7723,-3.2561,-22.63,70.31,25.94,3.5144,5.3459,2.4127,6.8375
5,7,0,0,21.185,21185,-0.2400,11.3500,2.9600,11.7321,-0.0436,-1.2926,-2.7380,-2.19,71.13,11.69,3.0196,6.1371,2.4848,7.2771
5,7,0,0,21.348,21348,-2.8700,10.9200,4.5900,12.1882,-0.1124,-1.0407,-1.3952,17.88,72.19,3.06,2.2435,6.7674,2.7622,7.6460
5,7,0,0,21.472,21472,-2.6600,11.7600,5.4200,13.2193,-0.2640,0.4167,0.0796,22.81,73.69,359.38,1.5974,7.4253,3.1125,8.2081
5,7,0,0,21.593,21593,-1.4200,13.5500,4.5700,14.3702,0.3294,1.4257,2.1708,13.50,72.19,1.94,1.1998,8.2324,3.3045,8.9516
5,7,0,0,21.716,21716,0.6400,9.6700,4.0100,10.4880,0.5869,1.0407,3.6881,-11.19,67.56,18.13,1.1260,8.4218,3.3975,9.1508
5,7,0,0,21.837,21837,2.2100,8.5700,2.8600,9.3010,0.6360,1.0483,2.5427,-32.06,62.50,33.19,1.2688,8.4413,3.3267,9.1615
5,7,0,0,21.957,21957,4.6200,4.0400,3.4500,7.0405,0.4483,0.5563,2.9420,-50.88,53.50,47.00,1.7104,7.8613,3.3429,8.7121
5,7,0,0,22.078,22078,5.9000,2.4200,2.2000,6.7458,-0.0175,0.9010,1.7922,-65.56,39.81,61.38,2.2625,7.1443,3.1923,8.1456
5,7,0,0,22.200,22200,8.9400,0.3000,1.7400,9.1127,-0.0382,0.8214,1.2086,-76.63,25.63,70.50,3.1424,6.2424,3.0009,7.6058
5,7,0,0,22.367,22367,9.2500,0.0900,1.4000,9.3558,0.0938,-0.1102,0.0633,-80.13,11.50,74.56,3.9473,5.4317,2.7900,7.2710
5,7,0,0,22.489,22489,9.1300,0.3200,2.1500,9.3852,0.3982,-0.2629,0.0393,-78.50,7.88,72.94,4.6302,4.7581,2.7056,7.1693
5,8,0,0,22.609,22609,9.0900,0.2800,2.4900,9.4290,0.1604,-0.0949,0.5378,-77.19,-2.44,73.13,5.2179,4.1680,2.6772,7.1949
5,8,0,0,22.731,22731,8.9800,-0.8200,2.4500,9.3443,-0.0065,0.1865,0.6185,-76.63,-20.56,77.00,5.7136,3.5107,2.6473,7.2096
5,8,0,0,22.851,22851,9.4500,-0.7800,1.8600,9.6628,-0.0676,0.3622,0.2683,-77.00,-34.88,80.25,6.2060,2.9453,2.5435,7.3252
5,8,0,0,22.972,22972,9.4700,-0.8600,1.6600,9.6528,0.1571,0.1844,0.2411,-78.00,-44.00,81.00,6.6361,2.4439,2.4271,7.4767
5,8,0,0,23.093,23093,9.4800,-1.5000,1.6300,9.7354,0.2978,-0.1582,0.6829,-75.56,-54.00,82.75,7.0109,1.9242,2.3221,7.6319
5,8,0,0,23.215,23215,8.5100,-2.5600,1.7100,9.0497,0.2334,-0.1233,0.5520,-71.13,-60.06,85.25,7.2084,1.3333,2.2414,7.6657
5,8,0,0,23.382,23382,9.0300,-3.0100,2.0200,9.7304,0.0764,0.4996,0.2738,-68.69,-71.06,88.00,7.4485,0.7609,2.2122,7.8072
5,8,0,0,23.502,23502,7.7500,-4.1400,0.2600,8.7903,-0.0295,0.6163,0.1636,-68.38,-82.00,90.81,7.4882,0.1151,1.9550,7.7400
5,8,0,0,23.624,23624,8.8500,-4.3300,-0.3400,9.8583,-0.1014,0.2869,-0.2596,-68.75,-89.81,91.88,7.6676,-0.4706,1.6526,7.8578
5,8,0,0,23.744,23744,8.8800,-2.6900,-0.4700,9.2904,-0.3938,-0.2553,-1.2381,-74.19,-86.81,88.38,7.8274,-0.7631,1.3729,7.9834
5,8,0,0,23.865,23865,8.5000,-1.6300,0.8600,8.6975,-0.2934,-0.2967,-1.1323,-81.69,-66.38,81.81,7.9160,-0.8773,1.3053,8.0707
5,8,0,0,23.986,23986,8.4100,-0.3100,0.8200,8.4556,-0.5181,-0.2203,-0.8596,-84.56,-0.75,77.81,7.9811,-0.8026,1.2413,8.1169
5,8,0,0,24.107,24107,9.8300,1.3500,1.2000,9.9946,-0.3262,-0.1800,-1.3254,-81.00,45.25,73.50,8.2248,-0.5189,1.2359,8.3333
5,8,0,0,24.234,24234,8.8000,3.6600,1.2000,9.6060,0.1320,-0.3283,-2.0126,-69.44,66.81,62.06,8.3006,0.0318,1.2312,8.3914
5,8,0,0,24.397,24397,8.0100,4.9700,2.6300,9.7866,0.4123,-1.0941,-0.9327,-56.06,61.50,50.56,8.2623,0.6825,1.4155,8.4104
5,8,0,0,24.519,24519,6.2300,5.3300,3.7000,8.9951,0.3927,-0.9774,-1.4748,-45.06,56.50,43.50,7.9945,1.2949,1.7165,8.2786
5,8,0,0,24.639,24639,4.8600,6.7600,5.0200,9.7220,0.0382,-0.8116,-1.4715,-33.63,55.63,35.19,7.5814,2.0151,2.1518,8.1344
5,8,0,0,24.763,24763,3.0500,8.1000,5.2800,10.1386,-0.3611,-0.6207,-1.1716,-23.69,57.69,29.19,6.9843,2.8169,2.5641,7.9555
5,8,0,0,24.887,24887,2.2500,8.1700,4.4400,9.5669,-0.6294,-0.2040,-1.3668,-14.69,62.13,22.81,6.3604,3.5223,2.8113,7.7952
5,8,0,0,25.008,25008,1.3700,8.8300,4.1600,9.8565,-0.4701,0.1298,-0.8847,-7.81,66.56,16.13,5.7028,4.2217,2.9890,7.6993
5,8,0,0,25.128,25128,1.0600,9.7300,3.9200,10.5434,-0.1963,-0.1058,-0.7494,-3.19,68.94,11.75,5.0910,4.9476,3.1117,7.7511
5,8,0,0,25.250,25250,-0.7300,9.8000,3.6000,10.4658,-0.1996,-0.1942,-1.2337,3.75,70.06,6.88,4.3240,5.5870,3.1760,7.7459
5,8,0,0,25.411,25411,-1.2300,9.3700,2.8400,9.8679,0.0633,-0.0993,-0.3829,11.06,71.13,0.44,3.5921,6.0855,3.1317,7.7294
5,8,0,0,25.532,25532,-2.2100,9.1800,3.1400,9.9507,0.0796,-0.2694,-0.7101,15.00,70.31,359.38,2.8275,6.4933,3.1328,7.7442
5,8,0,0,25.654,25654,-3.6500,8.6400,2.7500,9.7742,-0.0153,-0.4102,-0.8290,20.69,70.25,358.19,1.9740,6.7762,3.0824,7.7016
5,8,0,0,25.780,25780,-3.9500,8.3700,2.2400,9.5224,0.1625,-0.5607,-0.5880,25.81,70.56,356.88,1.1933,6.9862,2.9714,7.6850
5,8,0,0,25.900,25900,-4.7300,8.1100,2.5200,9.7209,0.6163,-0.8454,-0.9010,32.13,69.38,356.50,0.4128,7.1343,2.9119,7.7167
5,8,0,0,26.021,26021,-6.2400,6.4000,3.5600,9.6214,0.6981,-0.7472,-0.5760,39.25,67.00,356.38,-0.4639,7.0375,2.9973,7.6633
5,9,0,0,26.142,26142,-6.7600,6.9700,4.1300,10.5516,0.4516,-0.3011,-0.3251,42.69,65.13,357.81,-1.2936,7.0286,3.1466,7.8087
5,9,0,0,26.264,26264,-7.5500,6.8400,5.5400,11.5965,0.4538,0.6610,-0.0960,43.75,60.44,357.00,-2.1180,7.0038,3.4620,8.0947
5,9,0,0,26.431,26431,-6.9200,7.4200,7.1800,12.4296,0.6567,1.8337,0.4745,34.69,48.44,356.88,-2.7508,7.0586,3.9519,8.5445
5,9,0,0,26.553,26553,-5.1000,7.7300,7.0700,11.6511,0.7876,3.0020,1.3788,17.69,39.75,358.13,-3.0603,7.1471,4.3628,8.9152
5,9,0,0,26.673,26673,-0.2100,5.9600,7.1500,9.3106,0.2138,2.9616,1.8424,-4.63,35.50,1.81,-2.6847,6.9907,4.7301,8.8572
5,9,0,0,26.794,26794,3.3900,5.1100,5.5500,8.2708,-0.1494,2.4326,2.5242,-27.63,35.44,11.00,-1.8842,6.7428,4.8381,8.5102
5,9,0,0,26.915,26915,5.9600,3.3200,4.6600,8.2619,-0.2803,1.4988,2.3202,-47.06,31.56,23.75,-0.8506,6.2918,4.8146,7.9681
5,9,0,0,27.039,27039,6.6100,0.6800,2.9700,7.2784,-0.3665,0.8825,2.3900,-60.69,16.81,39.94,0.1325,5.5523,4.5716,7.1934
5,9,0,0,27.160,27160,6.9900,-1.2900,2.5500,7.5516,-0.4374,0.7538,1.6384,-67.06,-8.06,55.06,1.0362,4.6507,4.3052,6.4216
5,9,0,0,27.284,27284,8.4000,-2.8400,3.0700,9.3835,-0.7298,0.7778,0.8879,-70.00,-28.63,66.81,2.0065,3.6636,4.1424,5.8828
5,9,0,0,27.446,27446,7.8400,-2.4400,1.9100,8.4301,-0.8214,0.4178,0.1844,-71.75,-38.25,77.69,2.7752,2.8593,3.8482,5.5395
5,9,0,0,27.567,27567,8.6100,-2.8900,1.6300,9.2272,-0.0393,0.4603,0.1484,-73.00,-45.56,81.69,3.5441,2.1017,3.5559,5.4426
5,9,0,0,27.688,27688,9.3800,-1.5100,1.3500,9.5962,-0.3120,-0.0535,-1.2272,-77.00,-34.94,77.94,4.3131,1.6258,3.2652,5.6487
5,9,0,0,27.809,27809,8.5700,-0.0400,2.0300,8.8072,-0.4014,-0.0676,-1.1497,-78.31,7.13,71.75,4.8741,1.4062,3.1025,5.9464
5,9,0,0,27.930,27930,8.8900,1.1200,1.8400,9.1472,-0.4331,0.0665,-0.8999,-76.13,36.56,66.56,5.4033,1.3685,2.9361,6.2999
5,9,0,0,28.051,28051,9.4100,2.4000,2.0700,9.9294,-0.3774,-0.1004,-1.6810,-70.31,56.94,60.00,5.9313,1.5044,2.8220,6.7385
5,9,0,0,28.177,28177,7.4500,4.6400,1.7300,8.9457,-0.1844,-0.5672,-1.5283,-58.75,66.63,49.75,6.1314,1.9176,2.6781,6.9601
5,9,0,0,28.299,28299,6.7500,5.9700,2.4800,9.3463,0.0545,-0.7658,-1.0385,-48.94,65.19,42.94,6.2129,2.4516,2.6520,7.1864
5,9,0,0,28.462,28462,5.2300,6.5900,3.6700,9.1788,-0.0862,-0.6414,-1.5075,-35.63,64.13,34.19,6.0834,2.9970,2.7861,7.3316
5,9,0,0,28.582,28582,3.6100,7.9200,3.5900,9.4152,-0.2640,-0.2389,-1.4792,-25.06,66.88,25.63,5.7575,3.6457,2.8921,7.4029
5,9,0,0,28.703,28703,2.8700,8.5200,3.4400,9.6261,-0.3905,-0.3534,-1.2839,-16.94,69.44,19.63,5.3770,4.2880,2.9643,7.4890
5,9,0,0,28.829,28829,1.2600,9.4700,3.1800,10.0688,-0.0273,-0.3327,-1.4421,-6.88,71.13,11.94,4.8345,4.9709,2.9927,7.5523
5,9,0,0,28.951,28951,0.3500,9.6100,3.9900,10.4113,0.1909,-0.4985,-0.6196,0.31,69.88,7.25,4.2435,5.5822,3.1241,7.6765
5,9,0,0,29.072,29072,-1.0400,9.4800,3.6800,10.2222,-0.1233,-0.4941,-0.9261,6.63,69.94,4.50,3.5473,6.0958,3.1974,7.7437
5,9,0,0,29.193,29193,-2.0600,9.1700,3.2100,9.9316,-0.2378,-0.2498,-0.7701,12.69,71.38,0.44,2.8084,6.5009,3.1990,7.7706
5,9,0,0,29.315,29315,-2.0500,8.7300,2.8800,9.4186,-0.1178,-0.0829,-0.4778,16.69,72.50,358.19,2.1682,6.7946,3.1570,7.7997
5,9,0,0,29.479,29479,-3.4600,8.8000,2.6800,9.8282,0.0415,-0.2356,-0.8879,22.69,72.88,354.56,1.4265,7.0589,3.0941,7.8382
5,9,0,0,29.603,29603,-4.2900,9.1100,2.7600,10.4410,0.0665,-0.2465,-0.7058,28.81,72.44,350.94,0.6732,7.3292,3.0501,7.9670
5,9,0,0,29.724,29724,-4.3900,10.4500,3.5500,11.8776,0.1374,-0.0382,0.0622,31.00,71.81,350.00,0.0060,7.7404,3.1160,8.3441
5,9,0,0,29.844,29844,-4.2600,10.2000,3.7800,11.6823,0.2138,0.5258,1.3483,25.50,70.88,354.56,-0.5561,8.0645,3.2035,8.6953
5,9,0,0,29.965,29965,-1.9300,10.2900,4.4000,11.3565,0.2138,0.9697,1.8402,12.63,68.81,3.44,-0.7372,8.3578,3.3611,9.0384
5,9,0,0,30.086,30086,-0.5900,10.1200,4.1100,10.9387,0.2673,1.1748,2.6322,-3.31,67.44,13.00,-0.7178,8.5900,3.4598,9.2884
5,9,0,0,30.207,30207,1.8900,7.9200,3.9900,9.0674,0.3033,1.0614,3.3249,-25.44,64.63,28.75,-0.3741,8.5017,3.5297,9.2129
5,9,0,0,30.329,30329,4.2800,4.9900,2.3400,6.9781,-0.1167,1.1770,3.0271,-47.94,61.81,46.25,0.2392,8.0390,3.3729,8.7212
5,9,0,0,30.496,30496,8.0600,3.0000,1.6700,8.7609,-0.0938,0.7156,2.6409,-73.50,50.44,69.13,1.2697,7.3750,3.1485,8.1188
5,9,0,0,30.617,30617,8.1700,-1.3100,0.9100,8.3242,0.2563,0.3992,1.9166,-81.94,-31.56,84.94,2.1790,6.2305,2.8535,7.1910
5,9,0,0,30.737,30737,7.8100,-4.7100,0.7700,9.1528,0.1833,0.2509,0.6305,-76.50,-71.13,92.06,2.9210,4.7888,2.5790,6.1739
5,9,0,0,30.858,30858,8.3000,-2.7700,0.2100,8.7525,-0.3076,-0.2018,-1.0614,-78.31,-66.13,90.69,3.6299,3.7928,2.2668,5.7183
5,9,0,0,30.980,30980,8.1000,-1.3900,1.0000,8.2790,-0.4309,-0.2465,-1.2665,-83.06,-16.44,84.19,4.2189,3.1098,2.0999,5.6462
5,10,0,0,31.101,31101,8.4100,1.5700,1.0500,8.6195,-0.4974,-0.1560,-1.7606,-78.50,47.25,76.06,4.7712,2.9069,1.9615,5.9213
5,10,0,0,31.221,31221,7.8800,3.9500,1.1500,8.8893,-0.3829,-0.1287,-2.1358,-66.94,69.75,62.81,5.1808,3.0444,1.8546,6.2888
5,10,0,0,31.343,31343,7.4200,5.8100,1.3700,9.5231,-0.1505,-0.6360,-1.8391,-53.63,74.25,51.50,5.4759,3.4088,1.7907,6.6942
5,10,0,0,31.510,31510,4.8100,7.4400,2.4400,9.1893,0.3687,-0.9796,-1.9351,-34.56,70.81,38.31,5.3882,3.9400,1.8763,6.9337
5,10,0,0,31.631,31631,3.4000,8.3400,4.0500,9.8751,0.1407,-1.1399,-1.6297,-20.31,67.00,30.38,5.1262,4.5198,2.1627,7.1682
5,10,0,0,31.751,31751,0.9100,10.2600,4.9900,11.4453,-0.4287,-0.5498,-1.4083,-8.44,67.75,23.75,4.5706,5.2762,2.5353,7.4267
5,10,0,0,31.872,31872,-0.2700,9.5400,3.3600,10.1180,-0.7527,0.2847,-0.8007,-0.75,72.25,15.94,3.9327,5.8381,2.6440,7.5193
5,10,0,0,31.994,31994,-0.2100,10.1100,2.4600,10.4071,-0.4363,0.1887,-1.0865,3.69,76.31,9.69,3.3868,6.4010,2.6197,7.7011
5,10,0,0,32.114,32114,-1.0500,10.1500,2.4200,10.4872,0.0393,0.0720,-0.8672,10.25,77.13,1.69,2.8022,6.8950,2.5934,7.8816
5,10,0,0,32.236,32236,-1.7200,9.6200,2.4500,10.0750,0.0982,-0.2662,-0.4920,14.50,76.31,358.31,2.2063,7.2541,2.5745,8.0074
5,10,0,0,32.359,32359,-2.9700,9.0200,2.0600,9.7172,-0.0109,-0.2803,-0.6512,19.06,76.44,355.69,1.5242,7.4868,2.5067,8.0411
5,10,0,0,32.523,32523,-3.6800,9.3900,2.5400,10.4003,0.2127,0.0884,-0.5007,24.25,75.19,351.44,0.8384,7.7376,2.5111,8.1780
5,10,0,0,32.644,32644,-3.5900,9.1800,3.0600,10.3211,0.0469,0.2105,0.2782,23.81,73.31,351.56,0.2548,7.9277,2.5834,8.3419
5,10,0,0,32.765,32765,-2.9200,10.1200,3.1900,11.0053,0.1582,0.4363,0.7527,19.50,72.50,355.88,-0.1635,8.2166,2.6634,8.6390
5,10,0,0,32.887,32887,-2.2900,10.9700,4.0900,11.9295,0.5574,0.8465,1.0112,12.56,69.56,0.00,-0.4437,8.5794,2.8514,9.0517
5,10,0,0,33.007,33007,-0.4800,9.7600,5.2700,11.1023,0.7396,1.2708,2.2995,-0.69,64.56,6.88,-0.4485,8.7350,3.1701,9.3032
5,10,0,0,33.128,33128,2.3400,8.8000,5.3900,10.5815,0.1931,1.4192,2.4140,-19.94,61.31,18.06,-0.0811,8.7435,3.4626,9.4046
5,10,0,0,33.250,33250,4.5000,7.8200,3.1800,9.5663,0.0524,1.4301,2.3573,-38.56,61.31,28.63,0.5226,8.6218,3.4254,9.2921
5,10,0,0,33.371,33371,6.5100,3.9600,2.5300,8.0289,0.6141,0.8847,3.2801,-58.69,55.63,42.75,1.3116,8.0075,3.3074,8.7624
5,10,0,0,33.534,33534,7.5900,0.4400,1.7300,7.7971,0.7658,0.3905,2.3333,-75.50,-9.56,64.44,2.1389,7.0103,3.0995,7.9578
5,10,0,0,33.657,33657,7.4300,-3.2100,1.1600,8.1765,0.6065,0.8105,1.1312,-72.38,-58.50,72.63,2.8362,5.6635,2.8439,6.9432
5,10,0,0,33.778,33778,7.1900,-5.3200,0.0600,8.9444,-0.5814,0.8705,-0.0316,-72.25,-79.13,76.88,3.4099,4.2162,2.4771,5.9615
5,10,0,0,33.899,33899,8.9200,-3.8200,-0.4400,9.7135,-1.3079,-0.0044,-0.3153,-73.25,-80.81,83.75,4.1360,3.1572,2.0927,5.6084
5,10,0,0,34.020,34020,8.6100,-0.8000,0.3500,8.6542,-0.6032,-0.4287,-1.8959,-79.75,-52.00,81.31,4.7255,2.6358,1.8630,5.7227
5,10,0,0,34.141,34141,7.8900,0.6600,1.7700,8.1130,0.0109,-0.1549,-1.4530,-80.81,26.25,70.19,5.1425,2.3754,1.8508,5.9593
5,10,0,0,34.266,34266,8.3500,1.4700,2.2400,8.7693,-0.6065,-0.4243,-1.7802,-73.44,53.63,62.81,5.5652,2.2561,1.9021,6.2991
5,10,0,0,34.388,34388,6.0800,5.2900,0.9200,8.1115,-0.5923,-0.3512,-2.9638,-56.69,70.25,49.25,5.6330,2.6559,1.7727,6.4751
5,10,0,0,34.551,34551,3.6200,6.5600,1.4000,7.6222,0.0644,-0.5749,-2.4500,-31.63,76.13,27.00,5.3678,3.1704,1.7236,6.4680
5,10,0,0,34.672,34672,0.4200,10.1200,2.2600,10.3778,0.2967,-1.1781,-3.2267,-12.50,74.31,13.31,4.7158,4.0861,1.7942,6.4926
5,10,0,0,34.792,34792,-4.4500,8.9000,3.1500,10.4372,0.4658,-0.8596,-4.3251,14.81,71.50,351.25,3.5080,4.7205,1.9729,6.2033
