participant,rep,equipment_code,exercise_code,timestamp,timestamp_ms,accelX,accelY,accelZ,accelMag,gyroX,gyroY,gyroZ,roll,pitch,yaw,filteredX,filteredY,filteredZ,filteredMag
5,1,0,0,00.000,0,-2.3000,1.0300,0.0100,2.5201,1.1857,0.3283,-8.3765,2.25,84.00,34.63,-2.1566,5.0158,0.3902,5.4737
5,1,0,0,00.121,121,-10.8600,6.0800,2.8200,12.7616,0.9228,1.2294,-5.3723,48.38,65.06,343.44,-3.3034,5.1560,0.7104,6.1646
5,1,0,0,00.243,243,-8.1600,4.6600,2.4900,9.7212,-1.5523,-0.6414,2.5285,51.25,64.81,337.25,-3.9434,5.0907,0.9449,6.5083
5,1,0,0,00.368,368,-4.9100,17.8900,10.3100,21.2240,0.0971,-0.3938,4.8782,23.13,80.81,6.19,-4.0708,6.7773,2.1790,8.2007
5,1,0,0,00.489,489,-2.4500,2.3100,0.9000,3.4855,0.9021,-1.9002,1.4912,4.44,76.88,35.81,-3.8572,6.1886,2.0105,7.5643
5,1,0,0,00.611,611,-2.7400,13.0800,2.8200,13.6582,0.4974,-1.7246,-0.5367,5.50,73.44,48.19,-3.7100,7.0967,2.1171,8.2831
5,1,0,0,00.731,731,-2.3600,8.6700,0.6000,9.0055,-1.3679,2.3835,-0.5967,8.13,75.44,41.38,-3.5321,7.3040,1.9172,8.3367
5,1,0,0,00.852,852,-0.1000,10.5200,0.2200,10.5228,-0.0764,1.5926,-0.2618,8.69,77.69,24.81,-3.0798,7.7278,1.6936,8.4896
5,1,0,0,01.016,1016,-0.6400,9.2000,2.1400,9.4673,-0.0993,-0.3763,0.9697,1.94,75.94,28.63,-2.7583,7.9218,1.7524,8.5694
5,1,0,0,01.141,1141,0.7400,10.3700,1.2200,10.4677,-0.8061,-0.6785,0.4407,-1.88,79.69,36.63,-2.2973,8.2444,1.6822,8.7223
5,1,0,0,01.263,1263,0.0800,10.7900,0.6100,10.8075,-0.4680,-0.9610,0.0382,-1.69,84.19,42.56,-1.9841,8.5799,1.5409,8.9401
5,1,0,0,01.383,1383,-0.1100,9.8600,0.4900,9.8728,-0.2345,-0.4800,0.3502,-3.50,85.94,49.63,-1.7371,8.7486,1.4025,9.0289
5,1,0,0,01.505,1505,-0.3600,9.5500,0.3700,9.5639,0.0076,-0.0185,-0.0665,-3.44,86.50,50.94,-1.5556,8.8542,1.2664,9.0785
5,1,0,0,01.625,1625,0.0000,10.0200,0.3500,10.0261,0.1025,0.1789,0.3131,-3.06,86.25,49.94,-1.3506,9.0078,1.1456,9.1803
5,1,0,0,01.747,1747,0.2000,9.5900,0.4300,9.6017,0.1985,0.2258,-0.1582,-3.75,85.13,49.25,-1.1463,9.0845,1.0513,9.2167
5,1,0,0,01.869,1869,0.2600,10.6900,0.8800,10.7293,0.1200,0.1222,0.1233,-3.75,84.25,47.13,-0.9610,9.2961,1.0288,9.4021
5,1,0,0,02.034,2034,0.4500,11.4200,1.6600,11.5488,0.3262,0.1734,-0.8159,-1.00,82.44,41.50,-0.7751,9.5760,1.1119,9.6714
5,1,0,0,02.155,2155,-1.1800,11.6900,2.5200,12.0166,0.5901,-0.4571,-1.1279,6.06,79.19,35.13,-0.8284,9.8545,1.2975,9.9740
5,1,0,0,02.276,2276,-2.7600,10.6300,2.3100,11.2228,0.5770,-0.4571,-1.5882,15.25,75.63,29.88,-1.0830,9.9567,1.4309,10.1171
5,1,0,0,02.397,2397,-2.8900,9.5500,1.8300,10.1441,1.0537,-0.1364,-2.2526,28.19,69.25,19.63,-1.3211,9.9031,1.4835,10.1004
5,1,0,0,02.518,2518,-4.8600,5.6100,2.8900,7.9652,1.1279,-0.3534,-2.0137,41.50,57.94,9.63,-1.7874,9.3374,1.6688,9.6523
5,1,0,0,02.640,2640,-5.6100,3.4100,2.9600,7.2015,0.5007,-0.4756,-1.7715,53.13,47.19,1.06,-2.2911,8.5563,1.8390,9.0466
5,1,0,0,02.761,2761,-7.3300,1.1300,2.4000,7.7952,0.2705,-0.5454,-1.3995,62.81,35.81,352.81,-2.9551,7.5777,1.9129,8.3555
5,1,0,0,02.887,2887,-8.5000,-0.7300,2.5300,8.8985,0.0295,-0.4647,-0.3131,69.00,25.88,347.56,-3.6858,6.4830,1.9942,7.7195
5,1,0,0,03.050,3050,-8.4800,1.7600,1.8700,8.8603,0.0284,0.6698,0.9479,66.50,37.69,350.94,-4.3176,5.8606,1.9779,7.5432
5,2,0,0,03.170,3170,-7.4200,3.5500,2.9800,8.7487,0.7254,1.2119,0.8585,56.44,37.63,359.31,-4.7264,5.5561,2.1099,7.5935
5,2,0,0,03.291,3291,-6.1000,3.8600,4.4700,8.4906,0.6709,1.5283,1.1334,45.88,31.63,5.75,-4.9074,5.3326,2.4209,7.6407
5,2,0,0,03.413,3413,-4.0800,3.3500,6.6100,8.4594,0.0807,1.4377,2.4195,31.13,32.44,18.31,-4.7984,5.0714,2.9729,7.5882
5,2,0,0,03.539,3539,-0.5200,7.1000,6.8400,9.8725,-1.1825,1.4399,1.0548,15.75,39.13,26.63,-4.2346,5.3387,3.4825,7.6525
5,2,0,0,03.661,3661,0.1500,6.8800,5.9100,9.0711,-1.4104,0.9403,1.5992,4.19,48.88,30.69,-3.6568,5.5418,3.8024,7.6513
5,2,0,0,03.782,3782,2.3500,10.9700,5.8300,12.6433,-1.4094,0.3218,1.5784,-6.94,58.13,39.94,-2.8653,6.2571,4.0696,7.9951
5,2,0,0,03.902,3902,2.4700,9.6700,4.2900,10.8634,-1.1290,0.0535,0.8890,-14.25,65.69,48.13,-2.1622,6.7068,4.0986,8.1520
5,2,0,0,04.065,4065,3.0600,10.9000,3.4100,11.8238,-0.4647,-0.2825,0.7756,-20.88,71.81,57.69,-1.4741,7.2594,4.0079,8.4223
5,2,0,0,04.185,4185,2.7000,10.2800,3.5700,11.2122,-0.0240,-0.4363,-0.4331,-20.06,72.00,60.38,-0.9240,7.6574,3.9502,8.6657
5,2,0,0,04.308,4308,1.6200,10.2900,3.7100,11.0577,0.3022,-0.4931,-1.1094,-13.38,70.75,56.13,-0.5888,8.0043,3.9185,8.9314
5,2,0,0,04.433,4433,2.0300,11.6600,4.8500,12.7906,0.6534,-0.7450,-1.0963,-6.00,67.19,52.13,-0.2437,8.4861,4.0413,9.4024
5,2,0,0,04.555,4555,-0.8000,10.0100,4.6600,11.0705,0.6545,-1.2261,-2.9332,11.81,62.06,40.75,-0.3170,8.6869,4.1228,9.6208
5,2,0,0,04.676,4676,-3.2000,9.3200,3.0500,10.3153,0.7963,-1.2926,-1.8544,29.56,57.69,31.25,-0.6969,8.7703,3.9814,9.6569
5,2,0,0,04.796,4796,-3.1100,5.2400,3.7700,7.1654,1.1116,-0.6610,-2.3998,44.19,48.19,23.19,-1.0149,8.3051,3.9536,9.2539
5,2,0,0,04.918,4918,-6.0400,1.9300,3.5100,7.2475,0.9021,-0.4102,-2.5667,57.50,26.56,10.19,-1.6771,7.4650,3.8951,8.5855
5,2,0,0,05.079,5079,-6.7300,-3.4300,2.3900,7.9227,0.5890,-0.2683,-1.6090,63.25,-13.31,355.63,-2.3429,6.0293,3.6968,7.4504
5,2,0,0,05.206,5206,-8.6700,-3.0600,3.6600,9.8959,-0.2662,0.4865,0.3960,61.06,-22.88,351.75,-3.1767,4.8316,3.6919,6.8605
5,3,0,0,05.328,5328,-7.1600,1.6800,4.3600,8.5497,-0.2302,0.3643,1.6046,58.75,0.00,0.94,-3.7016,4.4163,3.7800,6.8915
5,3,0,0,05.448,5448,-8.9200,0.4200,5.2200,10.3437,-0.0098,-0.1298,0.2225,58.50,7.06,5.88,-4.3892,3.8897,3.9697,7.0819
5,3,0,0,05.570,5570,-7.8300,1.8100,4.9000,9.4125,-0.5214,-0.0251,0.4494,58.31,12.88,6.81,-4.8426,3.6156,4.0923,7.2987
5,3,0,0,05.690,5690,-7.3900,1.4600,4.2600,8.6540,-0.3523,-0.1145,0.4614,58.38,19.81,7.69,-5.1783,3.3316,4.1144,7.4056
5,3,0,0,05.811,5811,-7.5900,4.0000,4.5200,9.6973,-0.2563,-0.0709,1.4301,55.56,31.75,13.13,-5.4961,3.4197,4.1679,7.6989
5,3,0,0,05.932,5932,-8.2000,3.6200,4.1000,9.8567,-0.1582,-0.3163,0.2356,54.25,40.06,17.81,-5.8524,3.4461,4.1589,7.9638
5,3,0,0,06.099,6099,-5.6000,2.7200,3.8300,7.3094,-0.4931,-0.1614,0.7036,51.56,48.50,20.81,-5.8192,3.3504,4.1156,7.8756
5,3,0,0,06.221,6221,-3.8900,3.4200,1.7800,5.4769,-2.0028,-0.7210,1.5043,47.13,66.06,24.75,-5.5649,3.3596,3.8078,7.5336
5,3,0,0,06.342,6342,-1.7900,9.2300,-3.3500,9.9810,-3.4187,-1.3821,4.0306,28.50,95.69,39.88,-5.0675,4.1331,2.8646,7.1392
5,3,0,0,06.462,6462,3.8300,11.8000,-5.1000,13.4134,-0.8061,-1.3504,3.5463,-0.75,111.31,72.88,-3.8950,5.1434,1.8151,6.7023
5,3,0,0,06.583,6583,4.8900,8.4800,-2.9600,10.2266,0.2214,-2.2395,4.1353,-26.75,110.63,112.69,-2.7374,5.5831,1.1858,6.3301
5,3,0,0,06.705,6705,9.7600,3.4000,-1.1300,10.3969,-0.6720,-1.6722,5.7694,-65.94,113.19,163.69,-1.0906,5.2954,0.8807,5.4778
5,3,0,0,06.826,6826,12.0100,1.1300,-1.4900,12.1547,-0.1058,-0.2323,2.1948,-83.06,-128.25,195.69,0.6358,4.7465,0.5683,4.8225
5,3,0,0,06.952,6952,11.3100,1.1400,-1.2900,11.4403,0.9523,0.2345,-1.6330,-83.19,-175.63,191.31,2.0424,4.2713,0.3234,4.7455
5,3,0,0,07.114,7114,9.8300,4.3200,-0.9200,10.7767,1.3177,0.6349,-3.7394,-62.50,105.88,147.63,3.0686,4.2777,0.1595,5.2669
5,3,0,0,07.235,7235,7.5700,7.5200,-1.1800,10.7353,1.2294,0.5760,-2.9900,-39.50,96.88,114.88,3.6617,4.7050,-0.0170,5.9620
5,3,0,0,07.356,7356,5.3200,9.6200,-0.8400,11.0251,1.3832,0.4396,-2.0224,-23.69,89.63,91.56,3.8803,5.3526,-0.1254,6.6123
5,3,0,0,07.477,7477,4.0000,9.4800,0.6700,10.3111,1.5599,0.3862,-2.3911,-9.63,80.69,71.88,3.8960,5.8965,-0.0206,7.0674
5,3,0,0,07.598,7598,0.6700,8.3000,2.4900,8.6913,1.0352,0.1647,-2.8231,7.25,72.00,52.31,3.4709,6.2132,0.3102,7.1238
5,3,0,0,07.720,7720,-1.9200,7.8300,2.9500,8.5847,0.3894,-0.1265,-2.7085,23.75,65.94,35.25,2.7605,6.4263,0.6581,7.0250
5,3,0,0,07.846,7846,-4.5500,6.4600,2.7400,8.3631,0.3578,-0.1429,-2.7151,40.38,59.06,18.50,1.7972,6.4307,0.9324,6.7419
5,3,0,0,07.967,7967,-6.6800,4.8600,2.8900,8.7518,0.8018,0.1222,-2.3846,55.06,41.94,2.06,0.6801,6.2237,1.1904,6.3730
5,3,0,0,08.129,8129,-8.5700,0.3400,4.3100,9.5988,1.1541,0.7309,-2.7314,59.19,-4.75,343.94,-0.5388,5.4484,1.6015,5.7044
5,3,0,0,08.250,8250,-6.6200,-3.3900,5.0100,8.9675,1.1650,0.8825,-1.9875,48.44,-30.38,332.94,-1.3402,4.2837,2.0506,4.9347
5,3,0,0,08.373,8373,-4.9900,-5.6000,4.9800,9.0034,0.4778,0.2105,-0.2967,41.63,-39.75,329.75,-1.8211,2.9813,2.4366,4.2593
5,3,0,0,08.498,8498,-5.6500,-4.6000,4.5000,8.5634,-0.7178,0.0894,0.6076,41.69,-37.63,330.31,-2.3257,1.9823,2.7085,4.0834
5,4,0,0,08.619,8619,-6.1500,-1.8600,4.9600,8.1169,-1.0363,0.6458,2.0944,44.81,-20.69,338.44,-2.8296,1.4760,3.0052,4.3837
5,4,0,0,08.741,8741,-5.5700,0.2700,5.3400,7.7210,-0.9228,0.9228,2.5831,41.63,2.19,354.38,-3.1907,1.3171,3.3129,4.7844
5,4,0,0,08.861,8861,-4.7800,3.3600,5.1400,7.7819,-1.5283,1.7737,3.6532,28.94,22.50,10.31,-3.4002,1.5863,3.5537,5.1678
5,4,0,0,08.982,8982,4.3600,4.6100,3.7300,7.3603,-1.3875,2.3366,5.5251,-0.44,38.69,37.00,-2.3776,1.9847,3.5769,4.7314
5,4,0,0,09.145,9145,11.6300,6.1400,6.2400,14.5566,-0.7701,1.8184,3.3303,-41.13,39.69,74.88,-0.5317,2.5323,3.9278,4.7035
5,4,0,0,09.271,9271,10.3200,5.1800,3.7200,12.1315,-0.8661,1.1988,-0.1571,-54.31,46.25,82.88,0.8983,2.8812,3.9004,4.9317
5,4,0,0,09.393,9393,7.9100,5.3000,2.4100,9.8217,-0.7363,0.4669,0.0764,-55.50,59.50,81.88,1.8222,3.1999,3.7040,5.2230
5,4,0,0,09.513,9513,8.5800,5.2000,1.1700,10.1008,-0.3916,0.5989,0.9883,-61.06,65.06,87.88,2.7127,3.4635,3.3701,5.5419
5,4,0,0,09.634,9634,9.9500,4.2800,1.8700,10.9917,0.0393,0.3251,0.9861,-69.00,66.75,94.63,3.6664,3.5711,3.1724,6.0216
5,4,0,0,09.755,9755,10.9500,4.2400,2.2200,11.9503,0.0709,-0.4342,-0.0774,-71.63,61.13,97.25,4.6262,3.6592,3.0469,6.6389
5,4,0,0,09.878,9878,10.2700,4.5800,2.4100,11.5003,-0.0316,-1.1159,-1.5773,-63.44,57.13,92.50,5.3699,3.7806,2.9630,7.2047
5,4,0,0,10.003,10003,9.6200,6.2900,3.3400,11.9693,0.2258,-1.7202,-2.2166,-47.25,55.56,82.69,5.9300,4.1112,3.0127,7.8194
5,4,0,0,10.165,10165,5.8800,7.9600,4.4700,10.8590,1.0592,-1.6624,-2.8133,-18.19,50.50,63.94,5.9234,4.6184,3.2047,8.1662
5,4,0,0,10.286,10286,1.5800,5.6700,5.2300,7.8739,1.6821,-1.5686,-3.4950,4.69,41.44,46.56,5.3510,4.7570,3.4716,7.9570
5,4,0,0,10.408,10408,-1.6000,4.0700,6.5500,7.8757,1.1159,-1.3657,-2.6682,24.38,28.25,30.06,4.4351,4.6665,3.8773,7.5152
5,4,0,0,10.529,10529,-4.0700,2.3100,5.2100,7.0032,0.1560,-1.8610,-2.3049,40.06,18.25,17.56,3.3143,4.3559,4.0529,6.8106
5,4,0,0,10.655,10655,-7.9500,0.6300,4.0000,8.9218,0.1134,-1.2981,-2.0060,54.19,4.38,4.00,1.8300,3.8649,4.0459,5.8869
5,4,0,0,10.777,10777,-6.5800,-1.5100,3.3200,7.5232,0.4811,-0.5389,-1.9777,58.25,-18.94,351.56,0.7217,3.1567,3.9503,5.1078
5,4,0,0,10.898,10898,-6.9900,-5.6200,3.1800,9.5161,0.1091,0.0218,-0.3174,55.38,-36.63,343.00,-0.2945,2.0001,3.8488,4.3474
5,4,0,0,11.019,11019,-6.7200,-2.4800,2.3700,7.5449,-0.8378,1.0974,2.5776,56.13,-18.81,351.00,-1.1412,1.4098,3.6539,4.0793
5,5,0,0,11.183,11183,-2.7800,3.5500,4.1100,6.1011,-1.3712,1.9984,5.1444,36.56,29.44,21.38,-1.3571,1.6918,3.7140,4.3009
5,5,0,0,11.308,11308,4.2500,8.1900,5.5700,10.7779,-1.1116,1.4170,4.2968,5.75,45.88,49.19,-0.6183,2.5481,3.9586,4.7482
5,5,0,0,11.429,11429,3.8200,9.9900,7.4800,13.0515,-0.8912,0.8279,0.8007,-11.25,53.00,62.56,-0.0334,3.5287,4.4226,5.6580
5,5,0,0,11.551,11551,3.8800,10.3600,4.2500,11.8510,-0.8956,0.5672,0.9599,-17.81,59.31,65.88,0.4823,4.4289,4.3999,6.2615
5,5,0,0,11.671,11671,4.4200,8.5500,4.0500,10.4423,-0.2793,0.0578,0.2651,-22.50,62.81,69.75,1.0012,4.9720,4.3538,6.6842
5,5,0,0,11.792,11792,3.9200,7.1400,3.5400,8.8813,-0.0665,0.1625,0.0884,-23.31,64.00,70.75,1.3858,5.2577,4.2465,6.8990
5,5,0,0,11.913,11913,4.7100,5.7300,2.6100,7.8631,0.0360,0.5629,1.0625,-27.44,64.50,71.69,1.8238,5.3199,4.0309,6.9192
5,5,0,0,12.034,12034,6.4200,4.6600,1.6200,8.0967,-0.0644,1.0079,2.1260,-39.25,64.69,79.06,2.4295,5.2330,3.7132,6.8610
5,5,0,0,12.197,12197,11.4800,3.7000,0.6900,12.0812,0.2738,1.2326,3.3423,-68.88,60.56,100.06,3.6221,5.0309,3.3148,7.0298
5,5,0,0,12.322,12322,11.6200,2.7600,1.6400,12.0554,0.2847,0.3556,0.3469,-83.25,4.38,111.38,4.6760,4.7317,3.0941,7.3367
5,5,0,0,12.443,12443,9.3300,2.5300,1.3100,9.7553,0.6676,-0.0698,-1.7519,-76.81,63.25,100.75,5.2893,4.4416,2.8590,7.4752
5,5,0,0,12.563,12563,8.6600,4.5400,2.1100,10.0030,0.5978,0.0218,-2.2907,-61.69,73.69,80.50,5.7335,4.4545,2.7603,7.7676
5,5,0,0,12.685,12685,10.7400,6.2000,0.6800,12.4197,0.1320,-0.7570,-0.9447,-51.13,73.06,69.44,6.3932,4.6845,2.4862,8.3066
5,5,0,0,12.806,12806,6.1100,5.6500,1.4400,8.4456,-0.3207,-0.8596,-0.4985,-43.56,69.63,67.50,6.3559,4.8118,2.3483,8.3105
5,5,0,0,12.926,12926,7.5000,6.5900,1.6600,10.1210,-0.2454,-0.8236,0.1614,-41.19,67.31,71.06,6.5067,5.0461,2.2576,8.5379
5,5,0,0,13.047,13047,7.5600,7.4000,2.6500,10.9058,-0.3480,-0.7756,-0.6654,-37.94,65.25,74.00,6.6455,5.3563,2.3093,8.8422
5,5,0,0,13.214,13214,5.3900,9.0600,2.9100,10.9364,-0.2302,-0.7025,-1.4770,-24.94,68.00,66.69,6.4800,5.8443,2.3885,9.0472
5,5,0,0,13.336,13336,2.4900,6.9600,2.7900,7.9010,-0.0404,-0.9119,-2.0268,-11.19,67.69,58.88,5.9542,5.9914,2.4414,8.7926
5,5,0,0,13.458,13458,1.3500,8.9500,1.8400,9.2364,0.2051,-0.2029,-0.9523,-0.69,68.00,51.19,5.3475,6.3812,2.3621,8.6542
5,5,0,0,13.578,13578,0.2000,8.3600,3.5600,9.0886,0.2269,-0.1004,-0.5509,4.50,65.44,46.81,4.6692,6.6420,2.5200,8.5010
5,5,0,0,13.699,13699,0.0200,11.6200,3.2200,12.0579,0.3076,0.3512,-0.5498,6.38,64.63,43.81,4.0566,7.2980,2.6122,8.7487
5,5,0,0,13.820,13820,-2.4400,8.3000,3.2500,9.2415,1.7802,0.8050,-1.8021,13.13,55.69,32.63,3.2005,7.4300,2.6963,8.5275
5,5,0,0,13.941,13941,1.0600,3.9600,8.0900,9.0694,1.5981,0.3076,0.6381,11.06,40.56,31.06,2.9184,6.9727,3.4070,8.2912
5,5,0,0,14.067,14067,-0.3400,9.0800,6.9400,11.4335,-0.5247,-0.2225,-0.1822,11.38,39.88,32.13,2.4890,7.2504,3.8726,8.5884
5,5,0,0,14.229,14229,-3.6000,6.1400,7.5200,10.3542,0.3523,-0.8421,-1.1759,21.31,37.44,27.75,1.6867,7.1041,4.3532,8.5008
5,5,0,0,14.351,14351,-3.0700,6.9000,5.6000,9.4019,0.3458,-0.6240,-1.3504,29.25,34.19,21.94,1.0599,7.0772,4.5175,8.4627
5,5,0,0,14.471,14471,-6.0600,3.8800,6.0100,9.3754,1.0407,-0.2116,-1.7748,37.81,22.63,12.56,0.1216,6.6559,4.7142,8.1572
5,5,0,0,14.592,14592,-4.8900,2.2500,6.8900,8.7434,0.8661,-0.1036,-0.6894,40.19,10.44,7.63,-0.5388,6.0753,5.0009,7.8872
5,5,0,0,14.713,14713,-6.4600,0.6300,7.5100,9.9262,0.3153,-0.7069,-1.2861,43.88,1.06,2.56,-1.3190,5.3578,5.3315,7.6727
5,5,0,0,14.836,14836,-7.1100,0.2200,6.7600,9.8132,-0.0698,-0.5781,-0.9556,47.81,-6.88,355.56,-2.0821,4.6807,5.5198,7.5308
5,5,0,0,14.958,14958,-6.5800,0.2600,5.4800,8.5671,0.0796,-0.7429,-0.4952,51.25,-13.38,350.44,-2.6748,4.0982,5.5145,7.3729
5,5,0,0,15.082,15082,-7.1700,-1.1700,3.2900,7.9751,0.0535,-0.5760,-0.6534,54.94,-22.81,345.38,-3.2672,3.4040,5.2214,7.0374
5,5,0,0,15.243,15243,-8.0600,-3.0500,4.2800,9.6221,-0.0196,0.4865,0.3043,53.75,-27.50,342.81,-3.8988,2.5535,5.0973,6.9068
5,6,0,0,15.364,15364,-6.4600,-1.2000,5.0500,8.2870,-0.3153,1.1443,1.2697,50.13,-15.81,348.88,-4.2363,2.0589,5.0911,6.9357
5,6,0,0,15.485,15485,-5.0900,-0.1700,5.6500,7.6065,-0.4058,0.9959,1.2774,44.63,-2.69,357.50,-4.3488,1.7652,5.1648,6.9787
5,6,0,0,15.606,15606,-5.0500,2.6500,6.6500,8.7606,-1.3112,1.2588,2.3278,36.88,11.44,5.94,-4.4412,1.8818,5.3605,7.2111
5,6,0,0,15.728,15728,-1.8700,5.9600,5.9100,8.5992,-1.0374,1.2294,2.0922,23.50,27.44,18.25,-4.1024,2.4192,5.4329,7.2248
5,6,0,0,15.849,15849,0.1500,5.2900,6.9500,8.7355,-0.8247,1.2905,1.8239,9.94,34.75,27.50,-3.5420,2.7975,5.6328,7.2180
5,6,0,0,15.975,15975,3.0500,8.2800,5.8800,10.6036,-1.2294,1.4203,1.6221,-4.50,42.69,35.75,-2.6733,3.5199,5.6654,7.1856
5,6,0,0,16.096,16096,4.5800,7.1300,4.6900,9.6855,-0.8825,1.2457,2.2253,-20.38,49.63,45.88,-1.7175,3.9957,5.5368,7.0407
5,6,0,0,16.259,16259,8.8700,5.3600,2.5200,10.6657,-0.7799,1.4344,2.3213,-43.81,55.88,63.63,-0.3224,4.1754,5.1393,6.6295
5,6,0,0,16.379,16379,11.7900,4.9700,1.3300,12.8637,-0.5520,1.1606,1.7617,-60.38,61.06,76.69,1.2737,4.2801,4.6373,6.4379
5,6,0,0,16.500,16500,9.9800,3.9900,1.8600,10.9078,-0.2083,0.3840,1.0723,-70.44,63.44,85.88,2.4210,4.2419,4.2714,6.4884
5,6,0,0,16.626,16626,9.4600,2.2100,1.4600,9.8238,0.0644,0.0360,1.2883,-77.94,51.50,94.00,3.3486,3.9742,3.9009,6.4980
5,6,0,0,16.748,16748,9.6900,0.4600,0.9400,9.7463,0.1113,-0.1647,0.6949,-81.81,10.75,101.06,4.1842,3.5111,3.5107,6.4931
5,6,0,0,16.870,16870,10.4000,-0.2100,0.8500,10.4368,0.0818,-0.3622,-0.3731,-80.31,1.94,101.50,5.0033,3.0207,3.1601,6.6441
5,6,0,0,16.991,16991,9.7700,1.1200,1.3600,9.9276,0.0927,-0.3676,-1.0363,-77.44,24.44,96.25,5.6314,2.7703,2.9229,6.9232
5,6,0,0,17.112,17112,10.0600,2.7800,2.1200,10.6502,0.2367,-0.4538,-1.4126,-70.38,43.31,87.00,6.2150,2.7715,2.8171,7.3650
5,6,0,0,17.277,17277,9.9500,4.8000,3.5600,11.6067,0.2542,-1.3297,-1.2675,-57.06,45.75,76.44,6.7072,3.0388,2.9150,7.9195
5,6,0,0,17.400,17400,8.1300,5.5500,4.9300,11.0093,0.7734,-1.6941,-1.9635,-40.44,42.50,66.13,6.8947,3.3698,3.1805,8.3071
5,6,0,0,17.521,17521,6.7400,5.5800,6.7000,11.0206,0.7385,-1.7781,-1.9679,-23.31,38.75,55.06,6.8743,3.6610,3.6443,8.5988
5,6,0,0,17.642,17642,2.8000,6.1600,6.1400,9.1370,0.7112,-2.0529,-2.4795,-3.75,35.31,43.94,6.3374,3.9903,3.9732,8.4777
5,6,0,0,17.763,17763,0.2500,5.1800,6.4500,8.2763,0.9447,-1.5599,-2.4435,14.44,29.00,32.13,5.5352,4.1471,4.2995,8.1439
5,6,0,0,17.884,17884,-2.2700,1.1100,6.4900,6.9646,0.5945,-1.5195,-2.6594,30.81,17.88,17.38,4.5067,3.7469,4.5882,7.4432
5,6,0,0,18.006,18006,-5.8800,-0.0700,5.0600,7.7578,-0.4178,-1.9362,-1.8566,45.94,8.38,2.94,3.1380,3.2439,4.6504,6.4804
5,6,0,0,18.132,18132,-9.1800,-0.0500,4.0900,10.0500,-0.7996,-1.1432,-0.7669,57.81,4.25,352.94,1.5148,2.8099,4.5765,5.5798
5,6,0,0,18.295,18295,-6.1800,1.5600,3.9600,7.5038,0.0011,0.0404,1.3603,59.13,15.44,354.38,0.5008,2.6452,4.4953,5.2398
5,7,0,0,18.416,18416,-6.5900,2.6000,4.8800,8.6025,0.0436,-0.5345,0.5040,58.19,26.88,2.75,-0.4336,2.6392,4.5460,5.2744
5,7,0,0,18.536,18536,-8.7400,2.4800,4.0500,9.9469,-0.3240,-0.5694,0.1778,61.56,31.31,2.81,-1.5281,2.6182,4.4806,5.4098
5,7,0,0,18.657,18657,-6.4400,4.0100,2.5300,7.9972,-0.1451,-0.4287,2.2646,57.19,50.13,12.19,-2.1754,2.8016,4.2236,5.5154
5,7,0,0,18.781,18781,-6.4900,7.5700,2.6800,10.3251,0.2236,-0.0873,1.9788,46.44,62.06,29.13,-2.7440,3.4300,4.0202,5.9545
5,7,0,0,18.905,18905,-4.6100,8.8100,2.5500,10.2650,0.3349,0.3567,1.5152,33.44,64.56,43.13,-2.9899,4.1389,3.8264,6.3806
5,7,0,0,19.026,19026,-4.0900,7.9500,3.3600,9.5509,0.1058,1.2970,0.6076,27.00,60.75,44.75,-3.1348,4.6411,3.7650,6.7485
5,7,0,0,19.146,19146,-2.4700,7.7400,3.3000,8.7692,0.2203,1.8893,1.6439,15.00,58.38,47.50,-3.0472,5.0495,3.7037,6.9642
5,7,0,0,19.309,19309,5.3700,2.1500,0.6300,5.8186,0.0982,2.5318,5.1782,-24.06,55.94,69.63,-1.9380,4.6674,3.2987,6.0351
5,7,0,0,19.429,19429,14.0100,2.2700,0.6900,14.2095,0.6360,2.3169,3.6576,-58.44,49.13,91.81,0.1635,4.3515,2.9549,5.2625
5,7,0,0,19.557,19557,14.5300,2.6800,2.4200,14.9720,0.8290,1.1672,1.0690,-76.63,37.75,99.69,2.0566,4.1312,2.8844,5.4421
5,7,0,0,19.678,19678,10.5900,1.9500,3.0000,11.1781,0.2051,0.6643,-0.5138,-81.44,53.75,96.63,3.1811,3.8438,2.8997,5.7708
5,7,0,0,19.798,19798,10.2800,2.6200,1.9800,10.7918,-0.1920,-0.0415,-0.8388,-77.69,76.94,91.50,4.1166,3.6825,2.7785,6.1828
5,7,0,0,19.919,19919,11.0800,3.7500,1.2000,11.7588,-0.1789,-1.3014,-0.7669,-71.25,67.56,88.69,5.0342,3.6914,2.5705,6.7511
5,7,0,0,20.041,20041,9.8500,4.2900,2.5000,11.0307,-0.2127,-1.8751,-1.3112,-59.88,53.69,86.25,5.6688,3.7703,2.5612,7.2739
5,7,0,0,20.161,20161,8.2500,5.7600,3.2900,10.5860,-0.2225,-1.6035,-2.0562,-43.56,52.56,79.63,6.0089,4.0325,2.6572,7.7090
5,7,0,0,20.324,20324,5.1800,7.5500,4.5400,10.2199,0.4723,-1.5228,-2.2809,-19.50,51.88,65.75,5.8997,4.4960,2.9053,7.9663
5,7,0,0,20.449,20449,3.1200,6.9100,4.5400,8.8371,0.8530,-1.3472,-2.8394,-0.88,47.69,53.25,5.5334,4.8141,3.1207,7.9708
5,7,0,0,20.571,20571,-0.9700,5.0200,5.4800,7.4948,0.6949,-1.3646,-2.9289,21.69,39.63,35.38,4.6764,4.8412,3.4316,7.5553
5,7,0,0,20.691,20691,-4.0100,3.7000,5.2400,7.5649,-0.1298,-1.6668,-2.0464,38.88,34.38,23.38,3.5318,4.6909,3.6699,6.9243
5,7,0,0,20.812,20812,-7.8200,2.8700,3.6400,9.0906,-0.4745,-1.4094,-1.9700,55.25,31.06,11.50,2.0359,4.4509,3.6660,6.1151
5,7,0,0,20.934,20934,-9.1400,2.3600,2.7000,9.8183,-0.1767,-0.4102,-1.3744,65.63,19.00,359.38,0.5632,4.1754,3.5387,5.5021
5,7,0,0,21.055,21055,-8.4800,0.3500,2.9100,8.9722,0.3720,-0.1953,-1.0668,68.31,0.19,352.44,-0.6285,3.6713,3.4558,5.0810
5,7,0,0,21.176,21176,-8.8700,-0.5500,3.6600,9.6112,0.0273,-0.0371,-0.1625,68.88,-10.00,350.13,-1.7145,3.1150,3.4827,4.9772
5,8,0,0,21.343,21343,-8.6700,0.7300,3.3600,9.3269,-0.0611,-0.3120,-0.2607,69.69,-14.44,347.50,-2.6310,2.8008,3.4666,5.1753
5,8,0,0,21.464,21464,-8.4700,-1.9100,2.4200,9.0136,0.1309,0.1811,-0.6589,69.19,-26.56,343.75,-3.4005,2.1800,3.3287,5.2341
5,8,0,0,21.586,21586,-8.0400,-1.5800,2.4400,8.5494,0.0055,0.9239,1.1443,65.94,-20.31,349.44,-4.0118,1.6845,3.2116,5.4080
5,8,0,0,21.707,21707,-7.0800,0.8600,4.0400,8.1968,-0.2563,1.0559,2.6562,60.06,9.31,4.69,-4.4161,1.5759,3.3207,5.7457
5,8,0,0,21.827,21827,-5.5500,3.9400,4.4000,8.1047,-0.3807,1.0832,2.0180,48.31,29.50,19.00,-4.5656,1.8874,3.4629,6.0331
5,8,0,0,21.949,21949,-4.0900,5.9300,4.9200,8.7235,-0.3905,1.5817,2.0082,33.63,37.63,28.50,-4.5029,2.4201,3.6549,6.2842
5,8,0,0,22.069,22069,-0.9400,8.5600,6.1000,10.5531,-0.6447,2.4249,2.1358,14.13,42.63,36.94,-4.0334,3.2292,3.9771,6.5202
5,8,0,0,22.195,22195,2.3800,6.7200,4.3600,8.3566,-0.0251,2.0388,1.1181,-3.38,44.00,40.25,-3.1883,3.6892,4.0276,6.3243
5,8,0,0,22.358,22358,8.5200,6.0000,4.9000,11.5152,-0.6523,2.1184,3.1460,-31.44,45.75,53.81,-1.6454,3.9937,4.1426,5.9848
5,8,0,0,22.478,22478,10.6600,5.3700,3.8600,12.5448,-1.2555,1.1050,0.9479,-49.75,50.00,67.88,-0.0239,4.1751,4.1053,5.8554
5,8,0,0,22.599,22599,7.7200,5.9600,2.4100,10.0463,-0.9839,0.2389,-0.4134,-50.94,62.38,69.75,0.9966,4.4103,3.8819,5.9593
5,8,0,0,22.721,22721,7.5600,5.7000,1.8000,9.6376,-0.5770,0.2945,0.8923,-53.13,68.56,74.06,1.8615,4.5802,3.6076,6.1203
5,8,0,0,22.847,22847,9.3900,4.4000,0.8200,10.4021,-0.1385,0.3840,1.2414,-61.56,70.00,82.75,2.8535,4.5565,3.2402,6.2772
5,8,0,0,22.969,22969,9.9700,4.3500,0.9500,10.9191,0.1058,0.1276,0.4821,-68.00,68.88,88.25,3.7913,4.5293,2.9384,6.5972
5,8,0,0,23.090,23090,10.4700,4.7600,2.2500,11.7193,0.1091,-0.3043,-0.3491,-68.19,66.44,87.81,4.6714,4.5597,2.8477,7.1219
5,8,0,0,23.211,23211,9.9900,4.8700,2.0200,11.2959,0.0076,-1.2577,-1.3155,-60.31,61.88,83.44,5.3722,4.6006,2.7387,7.5846
5,8,0,0,23.374,23374,8.9200,7.0900,4.7000,12.3258,0.3905,-1.6232,-1.1868,-43.75,52.19,76.56,5.8397,4.9286,2.9971,8.2083
5,8,0,0,23.500,23500,8.1300,7.3800,5.0400,12.0815,0.8203,-1.6821,-2.5940,-27.31,48.00,67.00,6.1415,5.2516,3.2663,8.7159
5,8,0,0,23.621,23621,4.6000,6.2600,5.2400,9.3704,1.6177,-2.2177,-3.4208,-1.31,40.00,49.06,5.9384,5.3845,3.5264,8.7575
5,8,0,0,23.742,23742,-0.6200,3.5400,5.7600,6.7892,1.0799,-2.0835,-3.4950,23.81,27.50,30.25,5.0742,5.1415,3.8207,8.1719
5,8,0,0,23.863,23863,-5.7700,1.1300,3.9100,7.0610,0.5127,-2.0879,-2.5155,44.94,12.38,13.50,3.6452,4.6128,3.8325,7.0181
5,8,0,0,23.984,23984,-7.8200,0.4400,3.6600,8.6453,0.0971,-1.3014,-0.7123,56.94,-0.63,4.31,2.1344,4.0630,3.8098,5.9647
5,8,0,0,24.105,24105,-8.2800,0.5500,4.1700,9.2871,0.2618,-0.7363,-0.4331,63.31,-5.50,2.94,0.7620,3.6001,3.8572,5.3310
5,8,0,0,24.226,24226,-8.6500,-1.4900,3.2600,9.3632,0.2803,-0.0905,-1.8959,63.81,-26.13,355.19,-0.4782,2.9293,3.7785,4.8049
5,8,0,0,24.388,24388,-7.3300,-4.0000,3.6700,9.1213,0.4134,0.2956,-0.5171,53.81,-44.63,345.00,-1.3811,2.0162,3.7642,4.4880
5,9,0,0,24.513,24513,-7.6000,-3.3700,3.6900,9.0958,-0.3142,-0.0262,1.4443,56.88,-39.31,350.56,-2.2006,1.3064,3.7544,4.5437
5,9,0,0,24.634,24634,-8.1000,-0.6100,3.6600,8.9094,-0.5825,0.3251,1.3843,61.25,-19.69,359.00,-2.9780,1.0539,3.7420,4.8971
5,9,0,0,24.755,24755,-7.6000,1.8600,4.1400,8.8521,-0.3840,0.7221,1.5784,58.81,0.88,7.00,-3.5871,1.1601,3.7944,5.3489
5,9,0,0,24.876,24876,-7.3000,2.9400,4.7400,9.1870,-0.7374,1.3046,1.1825,51.13,15.38,13.81,-4.0763,1.3947,3.9190,5.8241
5,9,0,0,24.998,24998,-3.7400,4.9300,5.1000,8.0189,-0.5029,1.5763,2.4315,37.19,27.31,23.13,-4.0320,1.8605,4.0747,6.0267
5,9,0,0,25.119,25119,-1.1700,5.9400,6.1000,8.5943,-0.1898,1.7639,1.8446,20.06,33.31,34.38,-3.6549,2.3981,4.3416,6.1610
5,9,0,0,25.240,25240,-0.5800,5.1300,6.3900,8.2149,0.0524,1.9046,1.5926,4.38,34.25,41.63,-3.2497,2.7581,4.6115,6.2796
5,9,0,0,25.407,25407,7.8300,4.5200,2.7500,9.4500,-0.0840,3.7743,4.2313,-30.88,33.94,57.19,-1.7897,2.9903,4.3662,5.5864
5,9,0,0,25.528,25528,15.8800,-0.0100,3.4500,16.2504,0.7919,3.1154,2.9114,-67.44,8.75,80.31,0.5387,2.5949,4.2455,5.0048
5,9,0,0,25.649,25649,13.3500,-0.0600,2.6200,13.6048,0.2214,1.5544,-0.6381,-82.38,-14.94,82.94,2.2269,2.2451,4.0313,5.1235
5,9,0,0,25.769,25769,10.2000,1.1300,1.1700,10.3289,0.1025,0.3894,-0.7189,-85.81,3.81,76.25,3.2776,2.0981,3.6542,5.3384
5,9,0,0,25.890,25890,9.4600,0.8500,0.3700,9.5053,0.1091,-0.3676,-0.1069,-83.56,6.00,73.25,4.0923,1.9337,3.2214,5.5555
5,9,0,0,26.011,26011,9.4600,1.2800,0.4600,9.5573,-0.3556,-0.6665,-0.4047,-80.38,54.06,72.75,4.7996,1.8475,2.8576,5.8835
5,9,0,0,26.133,26133,12.1500,2.8600,0.6900,12.5011,-0.4560,-1.1574,-1.0537,-73.13,50.31,71.38,5.7682,1.9809,2.5719,6.6190
5,9,0,0,26.259,26259,9.3200,5.7600,3.7700,11.5868,-0.0742,-1.7770,-1.1901,-59.88,47.31,66.56,6.2362,2.4789,2.7298,7.2448
5,9,0,0,26.421,26421,7.3200,4.8500,4.7900,10.0024,0.2880,-2.7184,-1.5435,-35.88,38.00,60.94,6.3790,2.7914,3.0013,7.5823
5,9,0,0,26.542,26542,4.6100,5.2400,5.4200,8.8366,0.1963,-2.3158,-1.8151,-15.56,35.75,54.13,6.1459,3.1140,3.3200,7.6480
5,9,0,0,26.663,26663,0.2100,3.6400,5.0400,6.2206,0.1996,-1.7999,-2.1402,3.25,34.75,45.25,5.3637,3.1833,3.5467,7.1751
5,9,0,0,26.786,26786,-2.6500,7.4200,6.3300,10.1068,-0.3731,-0.4418,-0.4931,14.88,34.88,36.38,4.3077,3.7416,3.9134,6.9189
5,9,0,0,26.911,26911,0.0000,6.2800,7.6300,9.8821,0.4178,-0.9228,-0.0338,15.13,35.75,42.31,3.7401,4.0761,4.4032,7.0704
5,9,0,0,27.033,27033,-4.0100,5.2600,6.6600,9.3863,0.1527,-0.4789,-1.8773,25.56,31.50,33.63,2.7188,4.2321,4.7006,6.8846
5,9,0,0,27.155,27155,-4.9000,7.0700,8.7000,12.2346,0.1473,-0.3523,0.0589,30.63,28.75,28.94,1.7148,4.6061,5.2276,7.1753
5,9,0,0,27.275,27275,-3.5500,1.7700,5.7700,7.0020,0.2029,-1.0777,-3.0172,37.94,24.38,22.44,1.0211,4.2324,5.2991,6.8583
5,9,0,0,27.439,27439,-8.6300,3.6400,5.4800,10.8516,-0.5421,-0.9021,-0.8149,53.06,2.88,356.50,-0.2507,4.1543,5.3229,6.7568
5,9,0,0,27.564,27564,-7.8200,0.8900,4.2000,8.9210,0.8923,-0.9817,-1.1770,59.56,-4.69,353.88,-1.2481,3.7242,5.1749,6.4967
5,9,0,0,27.686,27686,-9.5200,-1.6900,3.9300,10.4370,0.7385,0.2847,-1.4104,58.00,-31.69,345.25,-2.3382,3.0107,5.0109,6.2961
5,9,0,0,27.806,27806,-5.5600,-3.7700,3.3600,7.5111,1.0254,0.3414,-0.1724,53.25,-39.75,345.50,-2.7627,2.1172,4.7933,5.9238
5,9,0,0,27.928,27928,-7.2600,-5.4600,4.2300,10.0206,0.1996,-0.0393,0.9348,54.06,-42.06,349.50,-3.3553,1.1187,4.7191,5.8974
5,10,0,0,28.048,28048,-7.5200,-2.2600,3.5600,8.6216,-0.6545,0.3382,2.2427,60.06,-22.50,0.75,-3.9041,0.6735,4.5664,6.0455
5,10,0,0,28.169,28169,-7.2500,2.1900,4.4500,8.7841,-0.6927,0.6709,2.3344,58.06,9.63,13.56,-4.3450,0.8733,4.5510,6.3525
5,10,0,0,28.290,28290,-6.0900,4.2600,5.1200,9.0250,-0.3622,0.6000,1.6908,49.19,29.25,25.81,-4.5750,1.3196,4.6260,6.6387
5,10,0,0,28.453,28453,-6.3800,5.4800,4.4400,9.5104,-1.3101,1.6090,2.4522,35.25,40.94,31.31,-4.8128,1.8678,4.6015,6.9156
5,10,0,0,28.578,28578,2.3500,10.2800,2.9200,10.9420,-0.5356,2.2667,4.6000,5.00,52.25,53.19,-3.8690,2.9763,4.3799,6.5583
5,10,0,0,28.699,28699,6.0000,8.4700,6.5400,12.2684,0.6240,1.2239,0.9196,-15.94,50.31,64.00,-2.5685,3.7003,4.6646,6.4844
5,10,0,0,28.820,28820,3.2300,6.2100,5.3600,8.8163,0.2105,1.4726,0.1756,-21.69,49.94,59.06,-1.8044,4.0310,4.7562,6.4905
5,10,0,0,28.940,28940,6.4700,6.2000,4.1100,9.8587,0.1167,1.7202,1.6635,-34.63,51.38,61.13,-0.7140,4.3168,4.6711,6.4003
5,10,0,0,29.062,29062,10.0200,5.0700,4.4700,12.0866,-0.0055,1.0625,1.4224,-49.81,50.38,68.94,0.7004,4.4161,4.6446,6.4470
5,10,0,0,29.183,29183,8.3800,3.9600,3.2900,9.8351,-0.3698,0.2029,-0.1571,-54.81,52.94,71.75,1.7124,4.3560,4.4661,6.4693
5,10,0,0,29.304,29304,7.0800,3.9700,1.8800,8.3320,-0.6829,0.1265,0.2105,-54.75,57.81,73.31,2.4197,4.3051,4.1253,6.4348
5,10,0,0,29.471,29471,9.4200,3.8500,0.6000,10.1941,-0.5836,0.4625,1.5032,-62.94,61.44,84.00,3.3422,4.2451,3.6607,6.5263
5,10,0,0,29.593,29593,10.2500,2.4400,0.9600,10.5801,-0.4614,0.4745,1.4039,-75.06,56.13,98.25,4.2525,4.0073,3.3049,6.7129
5,10,0,0,29.713,29713,10.8800,3.1000,1.3100,11.3886,-0.3687,0.2498,-0.4843,-78.75,63.25,102.88,5.1258,3.8877,3.0420,7.1163
5,10,0,0,29.834,29834,9.9300,3.8400,1.4100,10.7396,-0.0993,-0.5345,-1.2294,-71.31,71.19,97.00,5.7589,3.8814,2.8269,7.4981
5,10,0,0,29.955,29955,10.1000,4.3900,2.0700,11.2057,-0.1385,-1.0865,-0.8258,-63.00,65.00,92.63,6.3309,3.9484,2.7272,7.9441
5,10,0,0,30.077,30077,10.3000,5.7800,3.0400,12.1959,-0.3283,-1.3079,-1.3603,-53.31,59.69,90.31,6.8539,4.1898,2.7684,8.4968
5,10,0,0,30.198,30198,8.0800,8.1000,3.9300,12.0972,-0.0305,-1.6177,-2.8023,-35.69,59.81,80.88,7.0155,4.7051,2.9215,8.9381
5,10,0,0,30.324,30324,5.5600,8.2100,4.0500,10.7108,0.5781,-1.9199,-3.2572,-12.69,57.81,67.06,6.8237,5.1669,3.0702,9.0932
5,10,0,0,30.486,30486,-1.5100,5.5900,3.7800,6.9150,0.6447,-1.8773,-4.2717,28.31,49.44,39.13,5.7255,5.2227,3.1637,8.3706
5,10,0,0,30.608,30608,-6.2200,2.8500,2.8100,7.3964,0.2694,-1.5632,-3.1514,54.19,37.31,19.56,4.1514,4.9100,3.1171,7.1455
5,10,0,0,30.728,30728,-7.5200,0.8500,1.5500,7.7250,0.0873,-0.6523,-1.2075,67.31,21.25,7.25,2.6134,4.3750,2.9106,5.8688
5,10,0,0,30.850,30850,-6.9500,-2.3200,1.5100,7.4810,0.5716,0.1222,-0.5007,70.00,7.13,3.88,1.3532,3.4928,2.7260,4.6327
5,10,0,0,30.976,30976,-7.7100,-2.8900,1.8400,8.4369,0.0753,1.1421,1.1879,65.69,7.06,7.19,0.1589,2.6517,2.6093,3.7236
5,10,0,0,31.098,31098,-4.6900,3.8400,2.7200,6.6438,-0.7036,2.6758,3.4339,45.94,29.44,22.31,-0.4801,2.8083,2.6239,3.8732
5,10,0,0,31.218,31218,0.2000,7.5100,3.9600,8.4924,-0.2498,3.1263,2.6867,17.75,37.31,37.19,-0.3904,3.4278,2.7999,4.4432
5,10,0,0,31.339,31339,5.6700,8.5900,8.3900,13.2789,-0.3556,2.9289,3.0172,-9.63,38.81,48.63,0.4082,4.1081,3.5366,5.4360
5,10,0,0,31.501,31501,7.2900,7.4000,7.0900,12.5767,-1.5392,1.1301,-0.0316,-31.75,49.63,58.63,1.3150,4.5419,4.0048,6.1965
5,10,0,0,31.623,31623,7.6900,12.8300,7.4000,16.6885,-1.2228,-0.3447,1.1388,-35.81,60.31,63.94,2.1551,5.6340,4.4522,7.4973
