participant,rep,equipment_code,exercise_code,timestamp,timestamp_ms,accelX,accelY,accelZ,accelMag,gyroX,gyroY,gyroZ,roll,pitch,yaw,filteredX,filteredY,filteredZ,filteredMag
6,1,0,0,00.000,0,-2.7500,9.2200,0.6800,9.6454,-0.0131,0.0109,0.0076,16.75,86.00,16.69,-2.7926,9.2605,0.6458,9.6940
6,1,0,0,00.163,163,-2.7400,9.2700,0.6400,9.6876,0.0131,0.0044,0.0098,16.75,86.06,16.63,-2.7856,9.2618,0.6450,9.6931
6,1,0,0,00.284,284,-2.9500,9.2800,0.6300,9.7580,0.0087,0.0033,-0.0218,16.81,86.06,16.56,-2.8073,9.2642,0.6430,9.7015
6,1,0,0,00.410,410,-2.9200,9.4500,0.7500,9.9192,-0.0120,0.0371,-0.0349,16.75,86.00,16.44,-2.8222,9.2887,0.6571,9.7301
6,1,0,0,00.532,532,-2.7800,10.1500,1.0300,10.5741,-0.0796,0.2236,0.1287,15.94,86.13,16.31,-2.8166,9.4022,0.7063,9.8404
6,1,0,0,00.653,653,-1.8200,9.2000,1.1700,9.4510,0.0785,0.6032,0.4592,11.88,85.25,17.63,-2.6853,9.3755,0.7674,9.7826
6,1,0,0,00.774,774,-1.4100,9.0600,0.6000,9.1887,0.0273,0.3774,0.5334,8.13,84.44,18.00,-2.5172,9.3339,0.7453,9.6961
6,1,0,0,00.896,896,-1.4200,9.7200,0.7700,9.8533,0.0567,0.2313,0.0600,7.06,84.06,17.38,-2.3726,9.3848,0.7486,9.7090
6,1,0,0,01.016,1016,-0.8600,9.4800,1.0900,9.5811,-0.0229,0.3163,0.0894,6.13,83.56,16.44,-2.1733,9.3974,0.7936,9.6780
6,1,0,0,01.184,1184,-0.9300,9.6500,0.7200,9.7214,-0.1571,0.0938,-0.0393,5.31,84.75,15.44,-2.0095,9.4307,0.7839,9.6742
6,1,0,0,01.305,1305,-0.9300,9.7600,0.9000,9.8454,-0.0022,-0.0022,-0.1014,6.00,85.13,14.44,-1.8672,9.4741,0.7992,9.6893
6,1,0,0,01.426,1426,-0.7700,9.9900,1.1300,10.0831,-0.0131,-0.0458,-0.0044,6.50,85.06,14.13,-1.7226,9.5420,0.8428,9.7328
6,1,0,0,01.546,1546,-0.2800,11.1900,1.3900,11.2795,0.1473,0.1985,0.6141,5.06,84.63,15.25,-1.5325,9.7592,0.9149,9.9211
6,1,0,0,01.667,1667,0.6700,11.1900,1.7100,11.3397,0.3109,0.4625,1.2774,-1.69,83.00,19.56,-1.2423,9.9477,1.0197,10.0767
6,1,0,0,01.788,1788,2.5700,11.8400,1.5600,12.2157,1.0952,-0.2116,1.5064,-11.56,78.88,27.38,-0.7399,10.1971,1.0909,10.2819
6,1,0,0,01.910,1910,2.2900,9.6200,3.6300,10.5340,2.5002,-1.2435,0.8247,-16.94,63.81,35.81,-0.3407,10.1210,1.4255,10.2266
6,1,0,0,02.030,2030,1.7400,7.2200,5.5300,9.2594,2.2755,-0.6250,0.8083,-18.44,45.25,42.00,-0.0665,9.7388,1.9663,9.9355
6,1,0,0,02.193,2193,1.1000,2.4200,8.3000,8.7153,0.7647,0.8694,0.9861,-21.63,26.44,43.81,0.0872,8.7743,2.8009,9.2110
6,1,0,0,02.318,2318,4.2100,4.5200,6.3300,8.8444,-0.3840,2.1391,1.0188,-35.31,27.38,48.13,0.6305,8.2137,3.2660,8.8617
6,1,0,0,02.439,2439,7.5900,3.6800,5.6600,10.1581,-0.3883,1.7933,1.7170,-52.00,27.63,55.25,1.5476,7.6163,3.5815,8.5574
6,1,0,0,02.560,2560,8.3700,1.6500,2.6200,8.9243,-0.3720,1.0701,1.4039,-66.06,14.06,69.44,2.4466,6.8301,3.4548,8.0356
6,1,0,0,02.681,2681,9.9300,0.0900,3.2600,10.4518,-0.1789,0.7101,0.6916,-71.75,-0.94,76.88,3.4327,5.9419,3.4291,7.6713
6,1,0,0,02.802,2802,9.7900,-0.9900,3.0300,10.2959,-0.5236,1.0472,0.9599,-77.00,-10.56,81.50,4.2705,5.0285,3.3765,7.4110
6,1,0,0,02.924,2924,8.5900,-0.5800,1.4300,8.7275,-0.5541,0.9850,0.6720,-82.00,-41.06,89.19,4.8397,4.2894,3.1200,7.1802
6,1,0,0,03.044,3044,9.3900,-1.6400,0.3400,9.5382,-0.4167,0.2138,1.3243,-75.69,-78.50,101.88,5.4393,3.5081,2.7537,7.0338
6,1,0,0,03.206,3206,6.6600,-4.1900,1.4100,7.9937,0.0415,-0.4451,0.4538,-67.63,-78.00,108.19,5.6001,2.4937,2.5766,6.6497
6,1,0,0,03.332,3332,7.5500,-3.9500,1.4200,8.6384,0.3589,-0.5105,-1.2675,-68.00,-70.19,103.56,5.8571,1.6446,2.4242,6.5488
6,2,0,0,03.453,3453,6.7900,0.2700,1.0000,6.8686,1.0210,-0.1942,-2.5929,-80.31,-25.31,80.75,5.9800,1.4634,2.2365,6.5501
6,2,0,0,03.573,3573,9.3200,1.7600,2.3000,9.7596,0.9785,-0.3327,-2.5482,-75.31,44.31,58.56,6.4201,1.5025,2.2449,6.9653
6,2,0,0,03.694,3694,7.3900,4.9300,2.8100,9.3174,0.5792,-1.2239,-2.4566,-57.88,56.81,38.94,6.5479,1.9542,2.3194,7.2162
6,2,0,0,03.815,3815,5.7100,5.1900,4.5400,8.9528,0.0011,-1.5141,-1.1606,-43.31,52.56,30.19,6.4375,2.3806,2.6120,7.3438
6,2,0,0,03.937,3937,4.6400,7.5700,4.8900,10.1364,-1.0505,-0.7581,-1.5490,-31.44,55.88,26.25,6.2007,3.0644,2.9122,7.5046
6,2,0,0,04.057,4057,2.4400,10.2100,4.1300,11.2807,-0.7461,-0.2585,-1.4726,-16.88,64.56,14.81,5.7051,4.0060,3.0726,7.6182
6,2,0,0,04.223,4223,1.1200,9.3700,3.9600,10.2339,-0.2738,-0.8181,-1.6635,-4.88,68.88,7.25,5.1009,4.7128,3.1896,7.6422
6,2,0,0,04.346,4346,-1.6400,9.7400,3.3600,10.4330,0.0022,-0.8432,-1.1585,8.19,69.94,0.69,4.2126,5.3753,3.2120,7.5470
6,2,0,0,04.467,4467,-2.0500,9.7400,3.7400,10.6329,0.0360,-0.3752,-1.2446,18.06,69.63,354.75,3.3874,5.9504,3.2816,7.5928
6,2,0,0,04.588,4588,-2.4200,9.9600,3.8200,10.9385,0.5912,-0.7494,0.0600,23.06,68.50,354.38,2.6221,6.4788,3.3526,7.7518
6,2,0,0,04.709,4709,-4.8700,9.4200,4.5500,11.5393,1.0483,-0.4145,0.4691,24.63,64.69,359.50,1.6348,6.8664,3.5103,7.8830
6,2,0,0,04.830,4830,-4.7400,7.5800,5.6900,10.5972,0.6305,0.6796,1.7442,17.63,59.56,7.88,0.7948,6.9604,3.7976,7.9687
6,2,0,0,04.951,4951,-1.5700,7.9500,4.8000,9.4185,-0.2727,1.4933,1.7628,2.56,59.19,16.69,0.4832,7.0908,3.9297,8.1213
6,2,0,0,05.075,5075,1.6900,8.8300,3.7300,9.7333,-0.3796,1.6330,1.9286,-13.44,61.94,22.81,0.6422,7.3200,3.9034,8.3205
6,2,0,0,05.239,5239,5.5800,7.6700,3.3400,10.0559,-0.0807,0.9937,2.1642,-37.75,64.81,37.25,1.2929,7.3661,3.8291,8.4020
6,2,0,0,05.360,5360,5.0500,5.5600,2.6000,7.9483,-0.0491,0.9501,2.1293,-51.69,65.06,46.88,1.7880,7.1281,3.6672,8.2131
6,2,0,0,05.482,5482,9.5400,1.9200,1.5600,9.8555,-0.3043,1.1246,2.4031,-71.13,62.69,63.81,2.8095,6.4418,3.3895,7.8025
6,2,0,0,05.602,5602,9.3300,3.3500,-0.1600,9.9145,-0.2356,1.2228,0.1374,-77.75,89.69,68.81,3.6687,6.0344,2.9218,7.6427
6,2,0,0,05.723,5723,10.7100,-0.0700,-0.6600,10.7305,-0.1669,0.5956,1.9559,-83.63,178.75,79.81,4.5966,5.2300,2.4498,7.3812
6,2,0,0,05.845,5845,8.7700,-0.0500,-0.7500,8.8022,-0.2727,-0.3349,1.1105,-81.06,-139.06,89.06,5.1465,4.5342,2.0281,7.1526
6,2,0,0,05.966,5966,10.3900,-1.1600,0.0000,10.4546,0.3131,-0.7559,1.0897,-76.06,-99.25,96.00,5.8375,3.7839,1.7609,7.1760
6,2,0,0,06.092,6092,7.9800,-2.6700,0.4300,8.4258,0.6000,-0.4112,0.5901,-71.50,-88.38,96.38,6.1198,2.9334,1.5855,6.9693
6,2,0,0,06.254,6254,8.1200,-4.5500,0.5300,9.3230,0.0513,-0.0120,0.7799,-65.44,-88.75,97.31,6.3834,1.9473,1.4464,6.8287
6,2,0,0,06.375,6375,7.4200,-4.3900,0.3900,8.6302,-0.2498,-0.1058,-0.1658,-63.06,-86.56,99.75,6.5200,1.1122,1.3072,6.7421
6,3,0,0,06.496,6496,8.0600,-2.9900,0.7000,8.6252,0.0644,-0.0360,-1.2054,-68.00,-83.63,94.75,6.7229,0.5716,1.2272,6.8579
6,3,0,0,06.618,6618,8.7400,-0.3400,0.5500,8.7639,0.3589,0.0491,-2.1369,-80.50,-78.81,80.50,6.9887,0.4515,1.1379,7.0951
6,3,0,0,06.744,6744,7.6600,2.3900,0.3800,8.0332,0.3327,-0.3796,-2.3235,-83.44,5.88,62.94,7.0772,0.7069,1.0381,7.1878
6,3,0,0,06.866,6866,8.7500,3.6600,1.2100,9.5615,0.0851,-0.9894,-2.1446,-69.19,66.56,49.44,7.2976,1.0961,1.0607,7.4553
6,3,0,0,06.987,6987,6.4400,6.4700,2.6900,9.5169,-0.0109,-1.2152,-2.6344,-51.31,65.19,36.13,7.1846,1.8042,1.2754,7.5167
6,3,0,0,07.107,7107,4.2100,8.6500,3.7800,10.3361,-0.6174,-0.6981,-2.1391,-33.44,68.38,23.31,6.7926,2.7063,1.6055,7.4861
6,3,0,0,07.270,7270,2.0600,10.1700,2.7100,10.7246,-0.8290,-0.1713,-1.4028,-18.06,76.19,13.56,6.1690,3.6898,1.7510,7.3985
6,3,0,0,07.392,7392,1.4400,10.2700,2.0400,10.5692,-0.3316,-0.0229,-1.7748,-9.00,80.38,5.63,5.5458,4.5569,1.7891,7.3975
6,3,0,0,07.514,7514,-0.3200,10.4300,1.5400,10.5479,-0.0491,-0.0196,-1.2097,0.94,81.69,355.38,4.7729,5.3309,1.7563,7.3677
6,3,0,0,07.637,7637,-1.6500,10.5000,1.6500,10.7562,0.1265,-0.1320,-0.9185,9.50,81.06,348.13,3.9265,6.0120,1.7423,7.3890
6,3,0,0,07.759,7759,-1.4700,11.3100,2.0200,11.5826,0.0404,-0.0491,0.3087,10.88,80.50,347.88,3.2154,6.7102,1.7789,7.6504
6,3,0,0,07.879,7879,-0.8600,11.0600,1.9500,11.2635,-0.1407,0.2716,1.5173,2.94,81.00,355.19,2.6783,7.2834,1.8014,7.9666
6,3,0,0,08.001,8001,0.9400,10.7200,1.5900,10.8780,-0.2280,0.6240,1.7901,-9.13,82.50,4.31,2.4493,7.7362,1.7736,8.3062
6,3,0,0,08.121,8121,3.8800,10.9100,1.2800,11.6499,0.0109,0.3142,2.2777,-23.25,83.94,15.00,2.6378,8.1544,1.7085,8.7391
6,3,0,0,08.284,8284,5.8900,8.8300,1.3300,10.6972,0.7854,-0.3458,2.7391,-45.06,76.81,36.06,3.0664,8.2435,1.6586,8.9503
6,3,0,0,08.410,8410,6.1100,4.9800,2.2800,8.2055,0.7232,-0.0098,2.7871,-61.44,60.81,51.00,3.4674,7.8134,1.7405,8.7237
6,3,0,0,08.531,8531,7.7400,1.3600,2.7100,8.3127,0.1364,0.1920,3.2038,-75.94,14.81,69.56,4.0305,6.9630,1.8683,8.2595
6,3,0,0,08.652,8652,8.5700,-1.6100,2.3200,9.0233,0.0142,0.3731,2.4795,-71.25,-52.00,88.25,4.6286,5.8333,1.9278,7.6921
6,3,0,0,08.773,8773,8.0000,-4.0500,1.7400,9.1340,0.0458,0.1865,1.8697,-59.25,-71.19,102.38,5.0729,4.5310,1.9031,7.0630
6,3,0,0,08.894,8894,6.4600,-5.3600,1.0800,8.4633,-0.0044,0.0295,1.6428,-49.06,-76.56,112.44,5.2557,3.2276,1.7946,6.4234
6,3,0,0,09.017,9017,6.0900,-6.4500,1.3400,8.9714,-0.0829,-0.0829,1.1061,-40.56,-78.19,120.19,5.3656,1.9523,1.7347,5.9675
6,3,0,0,09.142,9142,5.0500,-7.4600,1.6400,9.1566,-0.0829,-0.0502,1.6570,-31.69,-78.75,129.13,5.3240,0.7120,1.7222,5.6408
6,3,0,0,09.305,9305,2.3800,-8.1000,1.8600,8.6449,0.0218,-0.2236,-0.2236,-22.69,-78.19,137.31,4.9361,-0.4492,1.7404,5.2532
6,3,0,0,09.425,9425,2.2600,-7.8600,1.7500,8.3636,0.0251,-0.3185,-0.7123,-23.81,-77.25,134.13,4.5834,-1.4257,1.7416,5.1063
6,4,0,0,09.547,9547,3.6200,-7.4000,1.7000,8.4116,-0.0960,-0.1767,-2.3060,-31.94,-75.13,124.25,4.4565,-2.2130,1.7362,5.2699
6,4,0,0,09.668,9668,5.2900,-3.1500,1.6000,6.3613,-0.1854,0.0829,-3.6805,-53.19,-67.06,101.56,4.5663,-2.3365,1.7182,5.4095
6,4,0,0,09.794,9794,7.5800,1.6300,2.0100,8.0096,0.0000,0.4058,-4.1801,-75.25,-32.56,76.44,4.9635,-1.8138,1.7567,5.5688
6,4,0,0,09.916,9916,7.4500,5.3900,2.1200,9.4366,-0.2389,0.7570,-3.9106,-67.63,68.81,47.19,5.2911,-0.8645,1.8045,5.6568
6,4,0,0,10.037,10037,5.7600,10.4000,0.7000,11.9091,-0.5880,0.2585,-3.8005,-42.38,85.69,21.56,5.3529,0.6199,1.6590,5.6383
6,4,0,0,10.157,10157,4.2000,11.0800,0.2900,11.8529,-0.4069,0.1745,-1.2534,-25.56,90.00,5.56,5.2010,1.9982,1.4786,5.7645
6,4,0,0,10.320,10320,1.1100,10.4500,-0.3900,10.5160,-0.2051,0.3229,-1.4846,-11.81,93.56,350.25,4.6619,3.1120,1.2324,5.7390
6,4,0,0,10.440,10440,-0.3100,10.6200,-0.7500,10.6510,0.2749,0.0971,-1.0941,-3.00,93.50,340.69,4.0067,4.1013,0.9711,5.8153
6,4,0,0,10.561,10561,-1.3000,10.1300,-0.1700,10.2145,0.7352,-0.1385,-1.6919,5.56,89.88,332.50,3.3074,4.8958,0.8208,5.9650
6,4,0,0,10.682,10682,-2.5000,10.0500,0.9500,10.3998,0.7145,-0.1244,-0.9992,14.94,84.81,325.81,2.5422,5.5750,0.8378,6.1842
6,4,0,0,10.808,10808,-2.7900,9.7600,1.3400,10.2390,0.2891,-0.2476,0.4156,16.94,81.81,326.56,1.8395,6.1264,0.9040,6.4602
6,4,0,0,10.929,10929,-2.5900,10.2900,1.4200,10.7055,-0.2487,-0.2073,1.0287,11.50,82.50,333.88,1.2558,6.6751,0.9720,6.8614
6,4,0,0,11.050,11050,-0.8300,11.2200,1.0500,11.2995,-0.4047,0.1429,2.1053,1.69,85.00,343.88,0.9810,7.2740,0.9823,7.4053
6,4,0,0,11.172,11172,1.9200,10.7400,0.6500,10.9296,-0.1833,0.1680,2.3693,-14.63,87.25,359.38,1.1047,7.7307,0.9385,7.8654
6,4,0,0,11.333,11333,3.8400,9.5100,0.6400,10.2760,0.3491,-0.1767,1.7421,-32.88,85.56,17.44,1.4651,7.9652,0.8991,8.1486
6,4,0,0,11.455,11455,4.5400,7.3900,1.2500,8.7628,0.2400,-0.0644,2.4293,-46.00,81.19,29.94,1.8703,7.8894,0.9454,8.1630
6,4,0,0,11.577,11577,7.6400,4.9400,1.2500,9.1834,-0.0982,0.1920,2.6922,-64.56,76.38,48.56,2.6306,7.5007,0.9855,8.0095
6,4,0,0,11.701,11701,9.0500,3.3200,0.9300,9.6845,0.0316,0.2182,1.9210,-79.00,67.94,63.06,3.4765,6.9498,0.9782,7.8322
6,4,0,0,11.823,11823,9.2800,0.4300,1.0500,9.3491,0.2094,-0.1265,1.8380,-84.81,-3.56,75.56,4.2413,6.0907,0.9877,7.4873
6,4,0,0,11.943,11943,8.1000,-1.7000,0.9900,8.3355,0.1156,-0.1811,1.9591,-73.63,-71.88,86.38,4.7498,5.0641,0.9880,7.0129
6,4,0,0,12.064,12064,8.1600,-3.8100,1.0700,9.0690,0.0796,-0.0665,1.7268,-61.69,-78.00,97.88,5.1991,3.8947,0.9988,6.5725
6,4,0,0,12.186,12186,7.5100,-5.1500,0.9900,9.1598,-0.0153,-0.0131,1.0930,-52.50,-80.38,106.94,5.5037,2.7028,0.9976,6.2121
6,4,0,0,12.347,12347,6.8700,-6.3700,1.2700,9.4545,-0.0785,0.1200,1.1956,-43.38,-82.25,115.63,5.6837,1.5073,1.0335,5.9703
6,4,0,0,12.474,12474,5.7800,-7.4000,1.2300,9.4700,-0.3283,-0.0262,1.6439,-33.75,-82.38,125.50,5.6964,0.3335,1.0594,5.8037
6,4,0,0,12.595,12595,4.7300,-7.7100,1.3100,9.1396,-0.5225,-0.7887,0.2323,-25.94,-78.13,131.06,5.5691,-0.7264,1.0924,5.7215
6,4,0,0,12.716,12716,3.5200,-7.4600,2.1500,8.5243,-0.0644,-1.1857,-0.1844,-24.56,-73.13,125.69,5.2990,-1.6137,1.2318,5.6746
6,5,0,0,12.837,12837,3.6700,-7.6000,2.7000,8.8611,-0.1724,-1.1606,-1.2010,-27.19,-68.25,113.88,5.0844,-2.4026,1.4253,5.8013
6,5,0,0,12.958,12958,4.5900,-6.4500,4.4100,9.0619,-0.6752,-0.6720,-2.0944,-35.75,-58.75,98.94,5.0192,-2.9359,1.8186,6.0926
6,5,0,0,13.080,13080,3.6200,-2.6000,4.0300,6.0088,-0.8585,-0.1669,-1.9439,-45.13,-43.13,86.38,4.8348,-2.8917,2.1100,6.0158
6,5,0,0,13.206,13206,7.0900,-1.0800,5.7100,9.1673,-0.8967,0.4156,-1.8860,-53.19,-25.44,76.88,5.1320,-2.6529,2.5844,6.3289
6,5,0,0,13.369,13369,9.6200,5.9200,4.2700,12.0757,-1.2588,0.2389,-1.8806,-58.50,21.38,59.50,5.7234,-1.5232,2.8065,6.5539
6,5,0,0,13.491,13491,8.1000,6.0800,4.0800,10.9189,-1.0537,-0.0229,-2.6267,-50.69,46.00,49.06,6.0366,-0.5213,2.9743,6.7497
6,5,0,0,13.612,13612,3.6500,9.2100,4.5000,10.8810,-0.7079,0.0622,-2.6704,-33.81,62.81,31.75,5.7221,0.7610,3.1754,6.5882
6,5,0,0,13.733,13733,4.3100,9.1300,4.0900,10.8932,-0.7887,0.4222,-1.3799,-24.75,70.63,21.56,5.5360,1.8638,3.2959,6.7070
6,5,0,0,13.859,13859,1.1400,10.1700,1.6200,10.3611,-1.1170,0.8912,-1.0745,-16.06,79.38,10.00,4.9567,2.9584,3.0750,6.5404
6,5,0,0,13.980,13980,2.6800,10.7900,-0.3600,11.1237,-0.7854,1.3308,1.0745,-19.31,89.38,7.13,4.6567,3.9904,2.6224,6.6697
6,5,0,0,14.101,14101,4.4100,10.0000,-1.0400,10.9786,-0.4451,1.0276,0.7156,-24.69,96.69,6.50,4.6242,4.7823,2.1398,6.9880
6,5,0,0,14.223,14223,5.9200,9.2600,-1.7700,11.1322,-0.4014,0.5258,1.6559,-32.00,102.81,11.38,4.7950,5.3723,1.6246,7.3819
6,5,0,0,14.385,14385,6.9500,8.6800,-2.3000,11.3550,0.0382,-0.2574,1.4835,-44.75,108.25,26.56,5.0789,5.8082,1.1074,7.7947
6,5,0,0,14.510,14510,7.7500,7.3600,-1.7800,10.8352,0.3109,-0.4407,1.5915,-54.50,107.38,36.94,5.4309,6.0127,0.7269,8.1349
6,5,0,0,14.633,14633,8.5300,5.8600,-0.9400,10.3915,0.1342,-0.5825,2.0148,-68.31,106.13,50.63,5.8393,5.9926,0.5073,8.3825
6,5,0,0,14.753,14753,8.0400,2.4600,-0.0800,8.4083,-0.0785,-0.3600,2.6900,-84.38,174.94,67.25,6.1293,5.5271,0.4299,8.2645
6,5,0,0,14.874,14874,8.5100,0.1400,-0.1500,8.5125,-0.1778,-0.0676,1.7759,-79.56,-96.13,83.63,6.4430,4.8172,0.3535,8.0525
6,5,0,0,14.995,14995,9.2300,-2.6300,0.0200,9.5974,-0.1953,0.0055,1.8544,-67.69,-92.56,96.00,6.8103,3.8358,0.3095,7.8224
6,5,0,0,15.116,15116,8.2100,-4.1900,0.2300,9.2203,-0.4734,-0.3643,1.5697,-56.63,-87.81,108.31,6.9947,2.7782,0.2990,7.5322
6,5,0,0,15.237,15237,6.5900,-5.0500,0.8000,8.3409,-0.2465,-0.4276,1.0472,-48.44,-82.63,116.63,6.9414,1.7467,0.3651,7.1671
6,5,0,0,15.400,15400,6.9100,-6.4300,1.5800,9.5702,-0.0840,-0.6872,0.6392,-39.75,-78.13,121.69,6.9372,0.6692,0.5252,6.9892
6,5,0,0,15.525,15525,5.6300,-6.4900,2.0200,8.8260,0.0633,-0.8639,0.1811,-37.13,-74.13,119.56,6.7650,-0.2742,0.7221,6.8089
6,5,0,0,15.646,15646,4.3600,-6.3700,2.1300,8.0077,0.2018,-0.3098,-0.6261,-37.69,-71.25,113.75,6.4481,-1.0775,0.9077,6.6002
6,6,0,0,15.766,15766,6.8800,-6.6700,2.9100,10.0146,-0.0295,0.3011,-1.1192,-44.19,-70.81,106.94,6.5050,-1.8144,1.1715,6.8542
6,6,0,0,15.887,15887,8.1700,-2.6300,1.6800,8.7458,-0.2149,-0.3360,-2.4173,-56.13,-63.25,95.63,6.7244,-1.9219,1.2385,7.1025
6,6,0,0,16.008,16008,8.4000,-1.9900,3.3600,9.2634,0.2607,-1.0341,-1.4235,-63.31,-42.94,80.75,6.9452,-1.9309,1.5181,7.3667
6,6,0,0,16.129,16129,8.4200,0.0700,4.0700,9.3523,-0.5694,-1.2141,-2.3082,-62.25,-14.94,68.94,7.1395,-1.6672,1.8544,7.5625
6,6,0,0,16.252,16252,6.8500,3.7700,5.9000,9.7952,-0.6458,-1.1923,-2.2635,-52.94,17.25,54.38,7.1014,-0.9507,2.3875,7.5521
6,6,0,0,16.418,16418,5.8500,5.7000,6.6100,10.5074,-0.9697,-0.5345,-1.2621,-40.13,34.13,45.00,6.9365,-0.0743,2.9439,7.5357
6,6,0,0,16.539,16539,2.6000,7.4700,5.4700,9.6167,-1.0167,-0.1811,-1.6657,-30.31,46.75,36.63,6.3650,0.9198,3.2768,7.2178
6,6,0,0,16.660,16660,4.0400,8.8600,5.1800,11.0297,-0.7309,0.1549,-0.5803,-26.44,54.75,32.88,6.0587,1.9661,3.5276,7.2813
6,6,0,0,16.781,16781,3.5700,9.4500,5.8600,11.6785,-0.5760,0.5498,-0.5574,-23.19,60.81,28.00,5.7307,2.9523,3.8349,7.5009
6,6,0,0,16.902,16902,4.2500,9.6700,4.0000,11.2948,-0.4680,1.1617,1.6024,-28.69,66.56,28.81,5.5356,3.8375,3.8567,7.7617
6,6,0,0,17.023,17023,5.8400,6.7800,1.7500,9.1179,-0.3862,1.6450,2.0180,-44.44,72.19,38.06,5.5757,4.2253,3.5791,7.8582
6,6,0,0,17.144,17144,7.6500,7.6300,0.2700,10.8080,-0.2160,1.5370,0.8345,-54.00,86.25,40.75,5.8491,4.6739,3.1430,8.1201
6,6,0,0,17.269,17269,10.0300,5.5300,0.2000,11.4552,0.3349,-0.1156,1.5555,-61.94,92.88,45.25,6.4000,4.7867,2.7552,8.4536
6,6,0,0,17.432,17432,6.3800,5.2100,1.0700,8.3062,1.0112,-0.6054,1.1334,-65.56,71.31,46.56,6.3974,4.8425,2.5331,8.4139
6,6,0,0,17.553,17553,6.4700,3.2500,2.9200,7.8070,0.6196,0.0480,0.6545,-69.31,55.81,47.94,6.4069,4.6327,2.5841,8.3179
6,6,0,0,17.675,17675,9.0900,3.3600,3.0900,10.1718,0.3371,0.4407,1.3734,-73.81,49.25,49.25,6.7605,4.4650,2.6508,8.5245
6,6,0,0,17.795,17795,12.6500,2.2100,1.3600,12.9134,-0.0153,0.5629,1.8337,-82.44,18.94,57.25,7.5366,4.1678,2.4807,8.9624
6,6,0,0,17.917,17917,9.2100,1.5700,0.3000,9.3477,0.3622,-0.0295,0.1963,-83.44,-3.81,62.75,7.7571,3.8255,2.1933,8.9229
6,6,0,0,18.043,18043,7.4100,-0.4100,1.9000,7.6607,0.8487,-0.5509,0.8912,-78.63,-53.63,63.69,7.7114,3.2674,2.1547,8.6477
6,6,0,0,18.165,18165,10.5400,-2.1900,2.4900,11.0493,0.6425,-0.6752,2.2297,-70.19,-59.63,64.81,8.0841,2.5482,2.1989,8.7568
6,6,0,0,18.286,18286,9.6200,-2.5900,2.6200,10.3013,0.1909,-0.4756,0.8421,-62.94,-57.56,65.19,8.2865,1.8711,2.2544,8.7892
6,6,0,0,18.447,18447,5.2900,-4.7200,2.3500,7.4689,-0.4811,0.9687,-0.0796,-63.50,-64.50,67.88,7.8916,1.0026,2.2670,8.2718
6,6,0,0,18.568,18568,8.2800,-2.9400,0.8200,8.8246,-1.1050,1.1137,-0.4909,-64.75,-72.69,77.13,7.9428,0.4831,2.0763,8.2239
6,7,0,0,18.690,18690,9.3400,-0.9400,0.3800,9.3949,-0.1549,0.4232,-1.1923,-71.63,-78.19,77.06,8.1269,0.2955,1.8528,8.3407
6,7,0,0,18.811,18811,9.3800,-0.1100,0.9400,9.4276,0.2149,-0.3622,-1.8282,-81.56,-65.88,66.19,8.2920,0.2421,1.7325,8.4746
6,7,0,0,18.937,18937,8.2600,2.3500,1.8200,8.7785,0.0120,-1.1214,-1.5839,-80.63,20.38,54.44,8.2878,0.5199,1.7440,8.4853
6,7,0,0,19.058,19058,7.7300,4.2100,3.9800,9.6601,0.0240,-0.6425,-2.3791,-67.00,47.63,41.06,8.2143,1.0061,2.0387,8.5231
6,7,0,0,19.179,19179,8.2400,6.4100,3.0800,10.8845,-0.8901,-0.1571,-0.9468,-56.13,61.13,32.38,8.2177,1.7182,2.1759,8.6728
6,7,0,0,19.300,19300,6.7300,7.4400,2.7100,10.3919,-0.3742,-0.3098,-0.9272,-49.38,68.06,28.81,8.0217,2.4722,2.2463,8.6893
6,7,0,0,19.461,19461,3.4200,10.4800,3.0800,11.4461,-0.4636,-0.0894,-2.0562,-31.44,73.75,13.88,7.4153,3.5274,2.3561,8.5429
6,7,0,0,19.582,19582,5.0000,10.4200,2.5000,11.8248,-0.1320,0.0011,-0.9534,-25.56,76.88,8.69,7.0970,4.4357,2.3751,8.6997
6,7,0,0,19.704,19704,0.7500,9.2700,2.4600,9.6201,0.8279,-0.5770,-1.6799,-16.00,74.06,0.69,6.2606,5.0727,2.3863,8.4037
6,7,0,0,19.828,19828,1.0700,9.8300,3.7800,10.5859,-0.1178,-0.4920,0.3327,-11.81,70.75,359.75,5.5766,5.6996,2.5699,8.3779
6,7,0,0,19.951,19951,1.6000,11.6100,3.3300,12.1836,-0.0436,-0.1124,1.2195,-16.81,71.75,8.00,5.0526,6.4785,2.6701,8.6388
6,7,0,0,20.072,20072,3.3200,9.5400,3.9000,10.8279,0.4025,0.4985,1.6417,-27.31,68.75,17.38,4.8243,6.8819,2.8322,8.8688
6,7,0,0,20.194,20194,5.2600,7.5400,2.9000,9.6400,0.3698,0.6927,2.3693,-42.94,65.25,28.81,4.8817,6.9686,2.8411,8.9702
6,7,0,0,20.314,20314,6.9000,7.8700,2.8700,10.8528,0.5770,0.1876,0.4996,-51.81,61.00,33.94,5.1477,7.0874,2.8449,9.2100
6,7,0,0,20.477,20477,7.5800,3.3700,4.6000,9.4854,0.9054,-0.2793,1.3821,-61.50,36.25,43.31,5.4682,6.5975,3.0762,9.1045
6,7,0,0,20.603,20603,7.1800,2.5100,3.7500,8.4803,0.1778,0.5541,2.4620,-66.81,17.81,50.44,5.6938,6.0589,3.1650,8.8964
6,7,0,0,20.724,20724,8.5400,1.2800,3.8500,9.4548,0.1484,0.6545,0.7189,-71.00,-15.88,61.56,6.0688,5.4292,3.2552,8.7694
6,7,0,0,20.845,20845,8.7800,-1.1800,2.2700,9.1451,-0.1124,0.7407,2.4009,-69.56,-49.69,72.81,6.4261,4.5582,3.1254,8.4759
6,7,0,0,20.967,20967,8.7400,-2.9400,1.9500,9.4252,-0.1909,-0.0415,1.4192,-57.88,-68.00,88.38,6.7310,3.5702,2.9705,8.1778
6,7,0,0,21.087,21087,8.1100,-4.4900,2.4200,9.5806,0.4494,-0.5116,1.3930,-48.81,-70.81,95.56,6.9127,2.5080,2.8980,7.9041
6,7,0,0,21.208,21208,6.0700,-6.2800,2.4800,9.0793,0.5509,-1.0145,0.3731,-41.81,-70.94,96.06,6.8017,1.3500,2.8429,7.4945
6,7,0,0,21.330,21330,3.5300,-7.0000,3.2300,8.4790,0.5672,-0.9817,-0.5760,-40.94,-68.00,87.19,6.3705,0.2497,2.8939,7.0015
6,7,0,0,21.496,21496,6.9700,-5.7700,3.1400,9.5778,-0.5269,-0.0131,-0.3218,-44.06,-64.38,82.44,6.4495,-0.5436,2.9263,7.1032
6,7,0,0,21.617,21617,4.4300,-3.8100,3.7800,6.9591,-0.3829,0.8825,-1.6962,-53.25,-56.81,75.13,6.1834,-0.9740,3.0388,6.9583
6,8,0,0,21.739,21739,9.1300,-0.9900,2.1000,9.4206,-0.4298,1.1857,-0.9207,-66.00,-57.56,71.63,6.5717,-0.9761,2.9151,7.2552
6,8,0,0,21.859,21859,12.2500,0.4100,1.6500,12.3674,-0.1407,0.3752,-2.1751,-76.50,-49.88,64.31,7.3200,-0.7934,2.7484,7.8591
6,8,0,0,21.980,21980,7.3700,4.6300,1.9100,8.9108,0.3403,-0.2738,-2.5155,-74.38,51.88,41.00,7.3266,-0.0788,2.6379,7.7874
6,8,0,0,22.101,22101,10.7500,3.9600,2.4500,11.7152,0.2596,-0.8879,-2.0028,-65.81,55.56,32.25,7.7777,0.4534,2.6132,8.2174
6,8,0,0,22.224,22224,4.0400,5.5000,3.7100,7.7676,0.1604,-0.9697,-3.1852,-44.63,61.19,12.94,7.2851,1.1184,2.7577,7.8695
6,8,0,0,22.349,22349,2.2400,8.0200,4.4500,9.4414,-0.4800,-0.7298,-0.2782,-31.06,63.88,3.75,6.6203,2.0279,2.9807,7.5383
6,8,0,0,22.512,22512,0.7900,9.4100,4.0200,10.2632,-0.2214,-0.7439,-2.1588,-17.25,67.63,358.19,5.8520,3.0007,3.1177,7.2781
6,8,0,0,22.632,22632,-0.0700,8.5900,3.6100,9.3180,-0.6632,-0.5138,-1.6712,-5.50,71.00,349.94,5.0717,3.7372,3.1825,7.0581
6,8,0,0,22.753,22753,-7.1500,8.9000,1.2500,11.4846,-0.3785,-1.2599,-2.5045,12.56,75.31,337.63,3.4612,4.4175,2.9279,6.3298
6,8,0,0,22.874,22874,-5.0600,8.9600,2.1700,10.5164,-0.0524,-0.6414,-0.6752,17.75,77.50,339.31,2.3383,5.0161,2.8280,6.2150
6,8,0,0,22.996,22996,-4.5800,8.9000,1.7800,10.1664,-0.0905,-0.0982,-0.1516,21.13,78.88,338.06,1.4266,5.5279,2.6899,6.3110
6,8,0,0,23.118,23118,-6.6700,9.8700,2.0800,12.0927,0.1560,0.5236,1.1923,20.50,77.63,337.69,0.3597,6.1001,2.6095,6.6445
6,8,0,0,23.242,23242,0.8300,10.1200,2.8000,10.5330,-0.1102,0.7734,1.6733,4.06,77.06,350.44,0.4217,6.6298,2.6346,7.1466
6,8,0,0,23.364,23364,-0.9400,11.0100,2.2900,11.2848,-0.3185,0.8432,1.7715,-3.94,78.81,352.88,0.2422,7.2070,2.5892,7.6618
6,8,0,0,23.527,23527,3.5300,11.5200,0.7100,12.0696,-0.4723,0.3349,3.0958,-26.88,85.00,11.56,0.6755,7.7753,2.3416,8.1483
6,8,0,0,23.648,23648,7.4600,9.6100,0.7800,12.1907,1.0068,-0.7570,2.7369,-48.38,79.31,33.00,1.5695,8.0171,2.1358,8.4439
6,8,0,0,23.769,23769,5.0200,5.4800,2.7400,7.9208,1.2414,-0.8116,2.0289,-59.13,55.19,43.50,2.0242,7.6828,2.2154,8.2481
6,8,0,0,23.894,23894,5.5400,3.3100,3.1500,7.1812,0.4963,-0.3338,2.2057,-65.63,22.75,56.38,2.4875,7.1066,2.3386,7.8841
6,8,0,0,24.016,24016,7.3000,-0.4200,3.7300,8.2085,0.1276,0.8967,2.6704,-68.75,-21.50,71.69,3.1217,6.1148,2.5219,7.3140
6,8,0,0,24.137,24137,8.4200,-2.6200,2.5400,9.1767,0.0774,0.8018,2.3584,-62.50,-59.19,88.88,3.8198,4.9637,2.5243,6.7529
6,8,0,0,24.259,24259,9.2200,-4.5900,2.0100,10.4936,0.3153,-0.1331,1.6461,-51.81,-72.13,101.38,4.5314,3.7048,2.4565,6.3478
6,8,0,0,24.379,24379,5.1500,-3.9400,1.3600,6.6254,1.0341,-1.3952,-0.8672,-49.56,-69.69,95.50,4.6130,2.6974,2.3120,5.8224
6,8,0,0,24.544,24544,7.9800,-6.4400,3.3400,10.7847,0.1004,-0.2040,-0.3567,-46.13,-68.81,87.06,5.0566,1.4933,2.4475,5.8129
6,9,0,0,24.668,24668,7.5200,-3.3400,2.7400,8.6726,-0.2673,0.5051,0.1505,-48.75,-67.94,86.63,5.3813,0.8564,2.4860,5.9893
6,9,0,0,24.789,24789,7.5800,-6.4200,1.8700,10.1079,-0.4363,0.7461,-0.1494,-47.13,-72.81,93.81,5.6710,-0.1024,2.4049,6.1607
6,9,0,0,24.911,24911,6.5000,-2.6000,1.4200,7.1433,-0.4047,0.0425,-2.0922,-58.63,-66.38,86.38,5.7802,-0.4315,2.2751,6.2268
6,9,0,0,25.031,25031,9.9200,-0.4800,2.6500,10.2791,0.2945,0.1036,-2.4151,-72.06,-46.25,70.00,6.3257,-0.4379,2.3245,6.7535
6,9,0,0,25.152,25152,7.5700,1.9500,2.6300,8.2477,-0.1691,0.0960,-2.2133,-78.19,15.56,53.00,6.4897,-0.1233,2.3647,6.9082
6,9,0,0,25.273,25273,8.4900,5.0900,2.5300,10.2171,-0.5760,-0.1789,-1.3864,-70.25,55.69,43.06,6.7533,0.5637,2.3865,7.1847
6,9,0,0,25.395,25395,7.7300,6.4500,2.1600,10.2966,-0.3087,-0.3545,-1.9711,-60.75,65.38,36.25,6.8820,1.3394,2.3567,7.3966
6,9,0,0,25.561,25561,5.6500,8.2200,2.7200,10.3387,-0.1549,-0.1745,-2.4075,-43.13,72.13,20.56,6.7197,2.2461,2.4046,7.4820
6,9,0,0,25.682,25682,2.4800,9.8800,2.4300,10.4723,-0.4243,-0.0916,-2.7838,-27.44,76.75,5.75,6.1610,3.2520,2.4079,7.3710
6,9,0,0,25.803,25803,-0.5200,10.6400,1.4900,10.7564,-0.4047,-0.2825,-2.9354,-10.69,80.69,350.56,5.2806,4.2256,2.2869,7.1393
6,9,0,0,25.923,25923,-2.7900,10.7900,1.3700,11.2288,0.6829,-0.1756,-1.4770,3.31,80.06,338.00,4.2171,5.0906,2.1661,6.9563
6,9,0,0,26.045,26045,-2.0000,8.6800,2.5500,9.2653,1.4301,-1.1083,-0.8858,8.88,72.88,337.44,3.3978,5.5636,2.2167,6.8857
6,9,0,0,26.165,26165,-5.5000,7.7400,3.8600,10.2497,1.2228,-1.2665,-0.1571,15.31,65.81,341.50,2.2253,5.8504,2.4332,6.7156
6,9,0,0,26.286,26286,-3.9500,7.0100,4.4800,9.2094,-0.6534,0.4538,0.9010,12.50,65.13,347.88,1.4116,6.0032,2.7030,6.7333
6,9,0,0,26.408,26408,-1.5500,11.2700,1.8200,11.5208,-1.2010,1.0919,0.3829,8.06,72.81,344.75,1.0213,6.6972,2.5866,7.2516
6,9,0,0,26.575,26575,2.4800,8.9100,2.3300,9.5377,-0.9872,1.1923,3.4405,-11.75,77.75,357.38,1.2135,6.9888,2.5528,7.5388
6,9,0,0,26.696,26696,3.6500,12.2300,0.2100,12.7648,0.5443,0.6152,0.7221,-24.69,83.50,4.19,1.5346,7.6795,2.2441,8.1465
6,9,0,0,26.816,26816,1.5500,6.8300,1.1000,7.0895,-1.8697,1.5152,0.9479,-29.38,86.88,3.19,1.5366,7.5675,2.0933,8.0007
6,9,0,0,26.937,26937,8.4900,10.8900,-3.1900,14.1721,-0.6436,0.8596,1.6297,-40.94,106.31,15.44,2.4529,8.0053,1.3971,8.4885
6,9,0,0,27.058,27058,5.5900,9.1100,-1.6000,10.8074,1.8708,-1.2392,1.5239,-46.50,100.13,17.25,2.8663,8.1509,1.0022,8.6981
6,9,0,0,27.179,27179,5.2900,3.5100,2.5400,6.8378,0.3403,-0.6850,2.4446,-64.06,75.81,33.38,3.1857,7.5394,1.2048,8.2730
6,9,0,0,27.300,27300,8.0900,4.3400,-0.5500,9.1971,-1.1639,2.0137,1.6221,-75.69,101.94,47.00,3.8319,7.1178,0.9736,8.1421
6,9,0,0,27.422,27422,11.9700,3.0600,-1.8900,12.4987,-0.2727,-0.0142,1.4977,-78.69,166.25,61.81,4.9043,6.5831,0.5962,8.2307
6,9,0,0,27.585,27585,7.8600,-0.9100,0.2500,7.9165,0.4265,-1.1432,2.0475,-77.00,-97.38,74.69,5.2938,5.5957,0.5506,7.7226
6,9,0,0,27.709,27709,8.1500,-4.0400,0.8900,9.1398,-0.1014,0.4821,1.6984,-65.13,-90.88,84.94,5.6702,4.3259,0.5953,7.1567
6,9,0,0,27.830,27830,8.2400,-3.0200,-0.3200,8.7818,-0.5367,0.1702,0.4025,-61.00,-94.25,93.38,6.0088,3.3579,0.4747,6.8998
6,9,0,0,27.951,27951,7.7200,-4.0100,0.3400,8.7060,0.4407,-0.6840,-0.2716,-59.81,-89.81,92.88,6.2343,2.3870,0.4570,6.6913
6,9,0,0,28.072,28072,6.0400,-4.2000,0.8600,7.4068,-0.0884,-0.1756,-0.3698,-61.06,-85.50,89.00,6.2087,1.5190,0.5101,6.4121
6,10,0,0,28.194,28194,7.6700,-2.1700,0.4200,7.9821,0.0709,0.0044,-1.6526,-67.94,-83.13,82.06,6.4013,1.0329,0.4982,6.5032
6,10,0,0,28.320,28320,11.7900,1.8400,0.4000,11.9394,0.5978,-0.4996,-2.7773,-83.50,-5.50,63.19,7.1114,1.1393,0.4853,7.2184
6,10,0,0,28.442,28442,8.6600,2.9000,2.5700,9.4874,1.0723,-1.6439,-1.2959,-74.75,40.13,41.63,7.3154,1.3713,0.7600,7.4815
6,10,0,0,28.605,28605,4.8500,6.1800,4.0200,8.8247,-1.2523,-0.4396,-3.0161,-52.06,52.19,24.31,6.9906,2.0049,1.1896,7.3690
6,10,0,0,28.726,28726,4.9300,9.2200,2.6800,10.7933,-1.1868,0.2542,-1.0690,-40.56,68.25,15.56,6.7190,2.9557,1.3860,7.4701
6,10,0,0,28.848,28848,2.8200,9.1400,3.1800,10.0799,-0.4985,0.0654,-1.8250,-30.63,75.94,6.75,6.2052,3.7706,1.6224,7.4401
6,10,0,0,28.973,28973,3.1000,11.5900,0.6200,12.0134,-0.6905,0.1767,-0.4811,-23.00,82.88,0.13,5.7960,4.8010,1.4903,7.6723
6,10,0,0,29.094,29094,1.5700,10.1500,0.9600,10.3155,0.4014,-0.3338,-1.7671,-14.31,82.50,351.69,5.2392,5.5059,1.4204,7.7318
6,10,0,0,29.215,29215,-0.7900,9.4800,2.6300,9.8697,0.8116,-0.8159,-0.7625,-4.44,77.31,346.06,4.4447,6.0296,1.5798,7.6555
6,10,0,0,29.336,29336,-1.4800,8.7000,3.1600,9.3737,-0.2629,-0.2891,-1.1748,1.94,75.38,343.94,3.6639,6.3815,1.7880,7.5726
6,10,0,0,29.457,29457,-5.4000,10.5000,2.0400,11.9821,-0.7919,0.3131,0.1014,8.38,79.25,336.94,2.4696,6.9242,1.8212,7.5736
6,10,0,0,29.625,29625,1.5500,10.5600,-0.0700,10.6734,-1.6090,1.1312,1.3810,-10.13,90.69,347.38,2.3484,7.4033,1.5720,7.9243
6,10,0,0,29.747,29747,4.8100,13.1300,-2.0700,14.1357,0.2803,-0.3272,1.8588,-23.06,97.56,359.19,2.6728,8.1579,1.0921,8.6538
6,10,0,0,29.868,29868,1.6300,9.0700,1.3900,9.3195,2.1075,-1.6537,1.4028,-31.69,81.44,10.38,2.5353,8.2781,1.1313,8.7313
6,10,0,0,29.989,29989,3.3900,7.3700,2.6100,8.5218,-0.1985,0.7134,1.7126,-42.63,70.88,21.63,2.6480,8.1584,1.3262,8.6793
6,10,0,0,30.109,30109,8.2900,6.5500,1.5200,10.6741,-0.0284,0.8956,1.9580,-56.63,76.56,31.00,3.3914,7.9465,1.3517,8.7450
6,10,0,0,30.231,30231,8.4800,5.1400,1.3200,10.0036,0.3840,-0.4952,2.3071,-68.38,69.69,41.31,4.0620,7.5767,1.3476,8.7018
6,10,0,0,30.351,30351,5.7200,0.3000,1.8900,6.0316,-0.6698,0.8050,1.9515,-78.44,43.50,53.44,4.2805,6.6178,1.4190,8.0082
6,10,0,0,30.473,30473,12.8100,3.8800,-1.2400,13.4420,-0.8748,1.2665,0.9381,-88.44,-179.13,68.69,5.4044,6.2570,1.0686,8.3367
6,10,0,0,30.639,30639,9.2600,0.6800,0.2900,9.2895,1.0559,-1.6799,0.8792,-79.94,-73.13,71.75,5.9125,5.5221,0.9660,8.1477
6,10,0,0,30.760,30760,6.7600,-2.5600,2.5900,7.6785,0.5443,-0.4909,1.7475,-67.88,-64.75,74.56,6.0242,4.4571,1.1800,7.5861
6,10,0,0,30.881,30881,6.8800,-4.5500,1.8000,8.4426,-0.3316,1.0047,1.7977,-57.75,-77.25,87.13,6.1370,3.2702,1.2617,7.0674
6,10,0,0,31.002,31002,8.1800,-4.4000,0.4300,9.2982,-0.4134,0.8607,0.4418,-51.56,-85.94,100.31,6.4062,2.2595,1.1521,6.8900
6,10,0,0,31.123,31123,8.5400,-5.9300,0.4500,10.4067,0.0894,-0.0556,1.1661,-44.19,-88.13,110.13,6.6874,1.1803,1.0596,6.8729
6,10,0,0,31.244,31244,5.8100,-5.2200,0.2400,7.8142,0.4821,-0.2913,-1.0548,-45.50,-88.13,105.31,6.5717,0.3369,0.9516,6.6488
6,10,0,0,31.365,31365,7.2700,-6.2200,0.6800,9.5919,0.0065,0.1167,0.2291,-47.38,-89.94,101.56,6.6638,-0.5271,0.9158,6.7470
6,10,0,0,31.491,31491,6.8200,-6.2200,0.1300,9.2313,-0.3600,0.0229,-0.5203,-46.06,-88.50,104.75,6.6843,-1.2773,0.8123,6.8536
6,10,0,0,31.653,31653,7.0000,-3.6000,0.1400,7.8727,0.2694,-0.0982,-2.6714,-63.75,-87.19,85.50,6.7259,-1.5834,0.7237,6.9476
6,10,0,0,31.774,31774,8.9400,0.5300,0.7900,8.9905,-0.1407,-0.3043,-2.5045,-81.50,-72.56,67.00,7.0177,-1.3049,0.7324,7.1755
6,10,0,0,31.896,31896,9.2300,3.9600,1.3400,10.1326,-0.2476,-0.3687,-2.5122,-80.50,58.25,52.13,7.3092,-0.6111,0.8125,7.3796
6,10,0,0,32.016,32016,7.6600,6.2200,2.0100,10.0700,-0.2018,-0.0611,-1.3286,-67.56,74.13,40.19,7.3554,0.2891,0.9703,7.4248
6,10,0,0,32.137,32137,7.8300,4.6100,1.4400,9.1997,-0.3054,0.0425,-1.0221,-64.06,78.38,38.06,7.4180,0.8584,1.0322,7.5385
