participant,rep,equipment_code,exercise_code,timestamp,timestamp_ms,accelX,accelY,accelZ,accelMag,gyroX,gyroY,gyroZ,roll,pitch,yaw,filteredX,filteredY,filteredZ,filteredMag
7,1,0,0,00.000,0,-4.2000,9.4500,0.0600,10.3415,-0.1822,0.2291,0.9403,25.38,89.56,335.63,-4.3258,8.7840,0.1572,9.7927
7,1,0,0,00.166,166,-2.9000,9.0200,-0.0200,9.4747,-0.0327,-0.0316,0.8923,17.56,90.19,342.25,-4.1379,8.8151,0.1339,9.7389
7,1,0,0,00.287,287,-2.7100,8.8300,-0.1000,9.2370,0.0425,0.0676,0.5738,12.75,90.06,347.13,-3.9497,8.8171,0.1030,9.6619
7,1,0,0,00.409,409,-1.8200,9.0600,0.0400,9.2411,0.0055,0.1025,-0.0687,11.13,89.75,348.06,-3.6691,8.8491,0.0947,9.5801
7,1,0,0,00.530,530,-1.7700,9.4800,0.0500,9.6440,-0.0065,-0.0360,-0.0469,10.69,89.75,348.19,-3.4188,8.9322,0.0888,9.5646
7,1,0,0,00.650,650,-1.4400,9.7700,0.1100,9.8762,0.1876,-0.0884,-0.2291,11.50,89.31,347.94,-3.1581,9.0426,0.0916,9.5787
7,1,0,0,00.771,771,-2.0500,9.7400,0.3000,9.9579,0.2018,-0.1811,0.0153,12.81,88.06,348.13,-3.0121,9.1345,0.1191,9.6191
7,1,0,0,00.892,892,-2.4900,9.5100,0.3600,9.8372,0.0251,-0.0622,0.1767,12.75,87.50,349.25,-2.9433,9.1840,0.1508,9.6453
7,1,0,0,01.013,1013,-1.9500,9.6300,0.3300,9.8310,-0.0589,0.0949,0.1734,11.19,87.81,350.56,-2.8124,9.2428,0.1744,9.6627
7,1,0,0,01.176,1176,-1.7500,9.5000,0.5000,9.6728,0.0502,-0.0600,0.0142,10.44,87.56,350.69,-2.6724,9.2767,0.2173,9.6564
7,1,0,0,01.300,1300,-1.9900,9.4600,0.4800,9.6790,0.0076,-0.0207,-0.0327,10.44,87.44,351.38,-2.5825,9.3008,0.2520,9.6560
7,1,0,0,01.422,1422,-1.5900,9.6200,0.4600,9.7614,-0.0840,0.0447,-0.0218,10.88,87.63,350.56,-2.4517,9.3429,0.2794,9.6632
7,1,0,0,01.542,1542,-1.8800,11.2600,0.4500,11.4247,-0.1047,0.1004,-0.2269,11.94,88.25,349.00,-2.3764,9.5955,0.3019,9.8900
7,1,0,0,01.663,1663,-1.0200,11.8900,0.3100,11.9377,0.0829,0.1004,0.7614,9.06,88.31,351.00,-2.1976,9.8979,0.3029,10.1434
7,1,0,0,01.784,1784,-0.8800,11.2500,0.1100,11.2849,0.3207,-0.1058,1.4966,1.00,87.06,359.38,-2.0240,10.0760,0.2775,10.2811
7,1,0,0,01.906,1906,0.1000,9.6500,1.0000,9.7022,0.3371,-0.0633,1.6242,-9.50,84.50,10.63,-1.7441,10.0199,0.3727,10.1774
7,1,0,0,02.027,2027,3.0500,10.3000,0.5400,10.7557,0.2651,-0.3742,1.9417,-21.31,82.13,23.44,-1.1124,10.0568,0.3948,10.1258
7,1,0,0,02.189,2189,4.1600,6.5700,2.6700,8.2219,2.3551,-0.6927,1.6832,-34.88,64.63,37.00,-0.4176,9.5973,0.6946,9.6315
7,1,0,0,02.314,2314,4.4000,2.4700,4.8800,7.0196,1.8097,-0.2171,1.2697,-41.56,42.94,42.44,0.2172,8.6581,1.2461,8.7500
7,1,0,0,02.435,2435,5.6600,0.8200,5.9000,8.2169,1.2545,-0.2345,0.3349,-43.38,30.06,42.56,0.9345,7.6253,1.8594,7.9041
7,1,0,0,02.555,2555,6.8300,0.5500,6.0600,9.1474,-0.6774,0.1604,0.0600,-44.00,26.88,42.69,1.7113,6.6929,2.4129,7.3175
7,1,0,0,02.676,2676,6.2500,3.7600,5.0200,8.8544,-1.2043,0.3098,-0.5181,-44.75,36.31,43.63,2.3094,6.3064,2.7565,7.2597
7,2,0,0,02.797,2797,6.7100,4.8400,4.8200,9.5751,-0.7919,0.1680,-0.6545,-43.69,47.00,41.63,2.8893,6.1132,3.0284,7.4088
7,2,0,0,02.918,2918,6.2400,6.4600,4.5100,10.0503,-0.2880,-0.2116,-1.1203,-38.88,55.31,36.81,3.3308,6.1589,3.2236,7.7083
7,2,0,0,03.040,3040,3.9300,7.9300,4.8900,10.1115,0.0055,-0.2313,-1.3003,-31.88,57.69,30.13,3.4098,6.3923,3.4432,8.0215
7,2,0,0,03.207,3207,3.6700,7.4800,3.8200,9.1658,-0.5378,-0.1331,-0.3949,-25.06,61.25,24.38,3.4441,6.5356,3.4929,8.1717
7,2,0,0,03.328,3328,4.1100,9.8200,1.6400,10.7710,-1.2643,0.1353,-0.7876,-20.88,70.63,21.31,3.5318,6.9684,3.2487,8.4609
7,2,0,0,03.449,3449,2.5100,10.4700,1.8500,10.9244,-0.5705,-0.1451,-1.0919,-15.44,75.00,16.44,3.3972,7.4298,3.0644,8.7255
7,2,0,0,03.570,3570,1.7500,6.9000,4.1700,8.2499,0.0011,-0.2749,-0.5138,-9.38,74.56,11.88,3.1801,7.3600,3.2101,8.6364
7,2,0,0,03.691,3691,0.6800,8.2000,3.2300,8.8394,0.0873,0.0480,-0.6120,-3.38,76.25,7.50,2.8507,7.4707,3.2127,8.6174
7,2,0,0,03.812,3812,0.2000,11.4600,1.3500,11.5410,-0.1462,-0.0633,-0.7505,0.75,79.38,3.94,2.5014,7.9964,2.9672,8.8884
7,2,0,0,03.935,3935,-2.1300,10.2700,1.9900,10.6757,0.1876,-0.5192,-0.9381,5.69,78.00,0.19,1.8911,8.2960,2.8385,8.9698
7,2,0,0,04.060,4060,-2.4600,9.4500,2.7000,10.1313,-0.2880,0.0687,-0.7581,9.94,77.19,356.69,1.3177,8.4481,2.8202,9.0033
7,2,0,0,04.222,4222,-2.4700,11.5800,1.6500,11.9549,0.2236,0.1364,-0.3109,13.31,79.44,351.75,0.8186,8.8608,2.6660,9.2893
7,2,0,0,04.343,4343,-2.3700,10.9300,2.5700,11.4755,0.2531,0.1320,0.0654,12.75,76.75,351.94,0.3984,9.1334,2.6534,9.5194
7,2,0,0,04.465,4465,-0.9600,9.6900,2.6900,10.1022,-0.5258,0.4243,0.8967,7.63,75.94,354.94,0.2194,9.2068,2.6582,9.5854
7,2,0,0,04.585,4585,-0.0600,10.7300,2.1000,10.9337,0.2705,0.4778,1.1781,0.63,77.81,358.81,0.1826,9.4075,2.5846,9.7578
7,2,0,0,04.708,4708,0.6300,9.6600,2.5300,10.0057,-0.1625,0.3272,1.3603,-8.25,77.00,5.69,0.2416,9.4408,2.5774,9.7893
7,2,0,0,04.833,4833,2.9700,9.2900,1.7900,9.9161,0.0524,0.3480,1.3723,-18.56,78.06,12.94,0.6011,9.4209,2.4737,9.7588
7,2,0,0,04.954,4954,3.5500,7.6300,2.4800,8.7732,0.3305,0.1025,1.1628,-26.69,75.56,20.13,0.9897,9.1849,2.4745,9.5637
7,2,0,0,05.075,5075,5.4000,7.2600,2.3600,9.3508,0.0295,0.2498,1.1257,-34.19,74.06,26.31,1.5708,8.9313,2.4594,9.3959
7,2,0,0,05.236,5236,5.8200,6.9800,2.1300,9.3343,0.2705,0.1582,0.6152,-42.00,73.31,32.69,2.1308,8.6741,2.4160,9.2530
7,2,0,0,05.357,5357,7.5900,5.4600,2.5600,9.6940,0.0829,0.0491,0.7374,-46.88,70.63,36.19,2.8502,8.2506,2.4350,9.0623
7,2,0,0,05.479,5479,7.6300,4.8100,2.2300,9.2912,-0.2051,-0.0567,0.8879,-51.88,69.31,42.06,3.4800,7.7972,2.4080,8.8716
7,2,0,0,05.600,5600,7.8000,3.6200,2.1500,8.8638,-0.5487,0.3262,-0.3883,-53.81,70.81,45.13,4.0493,7.2468,2.3740,8.6341
7,3,0,0,05.726,5726,7.7300,7.1800,1.1200,10.6094,0.0436,0.0545,-1.1934,-49.50,77.50,41.31,4.5343,7.2380,2.2087,8.8219
7,3,0,0,05.847,5847,6.6400,6.2000,2.2500,9.3591,0.4549,-0.2923,-0.7341,-43.00,74.06,33.56,4.8118,7.1012,2.2142,8.8590
7,3,0,0,05.968,5968,6.4400,6.1900,3.2800,9.5157,0.3414,-0.2498,-1.2228,-35.44,71.38,26.00,5.0263,6.9811,2.3546,8.9188
7,3,0,0,06.088,6088,4.3500,7.1900,3.3500,9.0466,-0.1658,-0.2389,-1.1366,-27.50,71.88,19.44,4.9372,7.0086,2.4858,8.9262
7,3,0,0,06.251,6251,2.5300,9.7400,2.3100,10.3250,-0.1560,-0.3905,-1.0527,-17.56,74.19,12.94,4.6200,7.3686,2.4626,9.0391
7,3,0,0,06.371,6371,1.0800,9.0000,3.1100,9.5832,0.3960,-0.4331,-1.3941,-9.31,72.44,6.31,4.1535,7.5835,2.5479,9.0141
7,3,0,0,06.492,6492,-1.1500,9.3500,2.8800,9.8509,-0.8694,-0.3153,-0.9152,-2.50,73.81,2.38,3.4547,7.8163,2.5917,8.9301
7,3,0,0,06.617,6617,0.6800,10.8600,1.3500,10.9647,-0.7636,0.0087,-0.6163,2.25,80.63,357.88,3.0890,8.2174,2.4281,9.1084
7,3,0,0,06.740,6740,-1.6100,10.7800,1.4400,10.9943,0.5421,-0.4592,-1.1399,9.75,81.19,352.56,2.4698,8.5551,2.2979,9.1962
7,3,0,0,06.861,6861,-2.5200,8.0200,3.3600,9.0532,1.2490,-0.4309,-0.5661,18.25,74.19,349.13,1.8123,8.4846,2.4378,9.0120
7,3,0,0,06.982,6982,-3.6100,9.0500,2.2300,9.9954,-0.6774,-0.1854,-0.4276,22.94,74.00,346.69,1.0978,8.5591,2.4104,8.9595
7,3,0,0,07.103,7103,-3.8400,9.6100,2.2300,10.5863,0.1134,-0.0796,-0.8672,27.00,74.88,341.50,0.4471,8.6976,2.3867,9.0302
7,3,0,0,07.266,7266,-5.7100,6.8600,2.8700,9.3755,-0.0076,-0.2902,-0.7538,32.75,71.81,340.13,-0.3643,8.4554,2.4504,8.8109
7,3,0,0,07.392,7392,-6.9300,10.0900,2.5600,12.5055,-1.0101,0.3731,0.0622,34.13,75.88,336.88,-1.2295,8.6708,2.4648,9.0978
7,3,0,0,07.513,7513,-2.9400,12.4900,2.8500,13.1441,0.1833,0.7821,2.0639,25.44,77.44,339.69,-1.4549,9.1741,2.5156,9.6233
7,3,0,0,07.634,7634,-2.6400,11.0800,2.6200,11.6876,-0.2236,0.7352,2.8482,8.81,76.75,353.06,-1.6110,9.4252,2.5293,9.8908
7,3,0,0,07.756,7756,0.6000,9.0700,1.9500,9.2966,0.1942,0.4320,2.8405,-10.94,76.63,8.00,-1.3197,9.3784,2.4530,9.7833
7,3,0,0,07.876,7876,2.5200,7.1900,2.1100,7.9056,0.4451,0.3000,2.1424,-27.44,73.50,22.13,-0.8137,9.0900,2.4078,9.4387
7,3,0,0,07.998,7998,5.1700,6.2800,2.6300,8.5489,0.1811,0.3447,1.8206,-40.44,70.25,33.06,-0.0252,8.7198,2.4371,9.0540
7,3,0,0,08.119,8119,7.5900,4.4200,2.0400,9.0170,0.1167,0.2989,1.7671,-52.69,67.44,43.50,0.9783,8.1532,2.3847,8.5509
7,3,0,0,08.285,8285,8.0000,2.4400,2.2900,8.6717,0.0295,0.0556,1.6090,-66.44,54.88,57.75,1.9036,7.4003,2.3723,8.0010
7,3,0,0,08.406,8406,8.1100,-2.2200,2.4900,8.7693,-0.0044,0.0305,-0.4331,-71.19,47.13,63.06,2.7214,6.1326,2.3878,7.1215
7,3,0,0,08.527,8527,6.6100,1.3700,3.0400,7.4034,-0.0589,0.1974,-1.1879,-64.69,59.25,55.06,3.2338,5.5050,2.4737,6.8471
7,4,0,0,08.648,8648,8.9400,6.2300,-1.0600,10.9481,-1.9755,1.1694,-1.0570,-59.88,81.63,53.06,3.9858,5.6005,2.0081,7.1613
7,4,0,0,08.769,8769,8.3900,7.0100,-0.5700,10.9479,1.1050,-0.6381,-1.5457,-51.00,88.06,44.56,4.5661,5.7863,1.6683,7.5574
7,4,0,0,08.906,8906,6.7500,5.9000,2.4800,9.3018,-0.0938,-0.3949,-1.4912,-39.88,78.31,34.13,4.8539,5.8013,1.7753,7.7696
7,4,0,0,09.028,9028,4.5000,9.1000,1.1600,10.2179,-0.3643,-0.0862,-1.3123,-29.00,82.06,25.38,4.8073,6.2360,1.6942,8.0540
7,4,0,0,09.150,9150,2.6800,8.5200,1.7300,9.0976,-0.0098,-0.4243,-1.4737,-19.06,82.44,17.50,4.5270,6.5369,1.6989,8.1309
7,4,0,0,09.312,9312,1.7700,8.0500,2.5700,8.6337,-0.2629,-0.4592,-1.3297,-5.25,80.81,6.44,4.1637,6.7363,1.8137,8.1243
7,4,0,0,09.432,9432,-0.9500,10.4500,0.8300,10.5259,-0.9425,0.3054,-1.2741,3.31,86.44,358.25,3.4898,7.2257,1.6841,8.1991
7,4,0,0,09.555,9555,-0.6500,10.4900,-0.0900,10.5105,-0.3534,0.0022,-0.9883,9.88,90.88,350.13,2.9443,7.6558,1.4503,8.3297
7,4,0,0,09.680,9680,-2.1700,9.9600,-0.0600,10.1938,0.1342,-0.2040,-1.0690,16.50,91.94,344.81,2.2704,7.9595,1.2513,8.3710
7,4,0,0,09.801,9801,-3.9300,9.9100,0.0900,10.6612,0.1756,-0.2683,-1.1596,25.19,91.56,338.31,1.4533,8.2165,1.0983,8.4160
7,4,0,0,09.923,9923,-4.8600,10.6000,1.1600,11.7186,1.0047,0.1407,-0.8781,33.69,87.75,332.81,0.6214,8.5306,1.1064,8.6244
7,4,0,0,10.044,10044,-5.0700,8.9800,2.6300,10.6425,-0.4254,0.5552,1.3341,31.31,83.75,335.94,-0.1286,8.5898,1.3072,8.6896
7,4,0,0,10.165,10165,-2.3900,11.3600,0.0100,11.6087,-1.4464,1.1323,2.0355,19.44,89.19,339.13,-0.4266,8.9548,1.1362,9.0367
7,4,0,0,10.332,10332,-1.0300,11.3100,-1.0800,11.4080,0.2716,0.0502,2.1882,0.00,93.31,352.81,-0.5061,9.2652,0.8442,9.3173
7,4,0,0,10.454,10454,1.2200,9.1300,-0.1300,9.2121,0.5607,0.1691,2.2253,-15.38,89.25,7.25,-0.2787,9.2474,0.7158,9.2792
7,4,0,0,10.575,10575,3.7400,8.3800,0.2000,9.1789,0.4865,0.1647,1.9210,-28.94,86.38,18.38,0.2509,9.1331,0.6478,9.1595
7,4,0,0,10.696,10696,5.9700,6.2000,1.0200,8.6673,0.6272,-0.0447,2.2384,-43.06,82.00,30.00,1.0045,8.7466,0.6969,8.8316
7,4,0,0,10.816,10816,7.1000,3.3100,1.5900,7.9934,0.3829,-0.0055,2.0846,-56.81,74.31,42.00,1.8078,8.0302,0.8146,8.2713
7,4,0,0,10.937,10937,8.1700,0.0100,1.8200,8.3703,0.0644,-0.0055,1.1999,-67.50,65.56,52.06,2.6461,6.9733,0.9471,7.5184
7,4,0,0,11.058,11058,8.9500,0.1300,1.0000,9.0066,-0.3305,-0.0164,-0.1898,-70.31,64.44,56.19,3.4768,6.0715,0.9540,7.0613
7,5,0,0,11.180,11180,8.0100,3.0600,1.6600,8.7338,0.0829,-0.4112,-1.4126,-63.81,67.63,50.63,4.0742,5.6747,1.0471,7.0638
7,5,0,0,11.346,11346,6.7400,4.8200,2.6500,8.6996,-0.1200,-0.4342,-1.6210,-50.50,69.13,39.50,4.4255,5.5621,1.2583,7.2184
7,5,0,0,11.467,11467,5.3300,6.4500,2.7200,8.7983,-0.2662,-0.4342,-1.3777,-40.56,71.31,32.13,4.5447,5.6791,1.4509,7.4169
7,5,0,0,11.587,11587,4.5200,7.8000,2.7800,9.4339,-0.2302,-0.3196,-1.5893,-30.38,73.25,24.38,4.5414,5.9586,1.6260,7.6664
7,5,0,0,11.709,11709,3.0300,9.1800,2.6300,10.0185,-0.2323,-0.2836,-1.5075,-20.19,75.31,16.13,4.3422,6.3831,1.7583,7.9177
7,5,0,0,11.829,11829,1.6700,8.8900,3.0700,9.5523,-0.2040,-0.2803,-1.8206,-9.69,76.56,7.38,3.9901,6.7134,1.9312,8.0449
7,5,0,0,11.950,11950,0.4000,10.2500,2.4400,10.5440,-0.4232,-0.1462,-1.1639,0.25,79.13,358.31,3.5170,7.1794,1.9982,8.2406
7,5,0,0,12.073,12073,-1.0000,10.2300,1.7200,10.4217,-0.2280,-0.3534,-1.3025,8.44,81.19,351.25,2.9218,7.5814,1.9616,8.3584
7,5,0,0,12.198,12198,-2.5400,9.4100,1.3300,9.8371,0.2465,-0.3131,-1.0407,17.38,81.31,344.13,2.2021,7.8224,1.8783,8.3407
7,5,0,0,12.361,12361,-4.3700,9.7500,2.3200,10.9335,0.4832,-0.5498,-1.1476,30.56,77.63,336.94,1.3360,8.0764,1.9365,8.4121
7,5,0,0,12.481,12481,-6.9400,9.1800,2.9400,11.8777,0.8672,-0.4342,-0.8236,37.63,74.50,335.44,0.2455,8.2218,2.0688,8.4817
7,5,0,0,12.603,12603,-6.1800,7.7400,4.0300,10.6930,0.5411,0.2083,0.6709,38.25,69.63,338.13,-0.6012,8.1583,2.3272,8.5050
7,5,0,0,12.724,12724,-4.9100,10.5700,3.6700,12.2189,-0.1091,0.8268,1.1345,31.81,68.44,341.75,-1.1690,8.4761,2.5042,8.9153
7,5,0,0,12.844,12844,-4.0400,8.6000,4.5500,10.5349,1.0876,0.5727,1.7202,21.19,64.25,349.94,-1.5473,8.4925,2.7737,9.0670
7,5,0,0,12.966,12966,-2.2400,8.7300,3.2500,9.5809,-1.0363,1.3406,1.9820,7.19,64.19,358.69,-1.6386,8.5238,2.8365,9.1316
7,5,0,0,13.092,13092,1.3900,10.4300,2.3300,10.7771,0.4156,0.6741,1.8217,-7.25,66.94,6.31,-1.2395,8.7749,2.7698,9.2848
7,5,0,0,13.213,13213,2.5400,6.8000,4.5300,8.5564,1.0450,0.4167,1.7388,-20.00,58.75,16.13,-0.7415,8.5147,3.0017,9.0587
7,5,0,0,13.376,13376,5.9000,5.1100,3.8200,8.6899,0.0971,0.6665,1.7104,-35.81,51.88,27.31,0.1337,8.0660,3.1095,8.6457
7,5,0,0,13.496,13496,6.7200,4.6600,3.7300,8.9882,0.5760,0.1691,1.4181,-45.13,45.63,35.19,1.0016,7.6172,3.1913,8.3192
7,5,0,0,13.617,13617,6.3400,0.7800,5.0600,8.1491,0.6861,-0.1822,0.9294,-50.06,33.44,40.63,1.7051,6.7162,3.4376,7.7351
7,5,0,0,13.740,13740,7.0400,2.0100,5.0400,8.8884,-0.7101,0.4069,0.3632,-52.88,29.88,44.00,2.4081,6.0961,3.6487,7.5016
7,5,0,0,13.865,13865,8.3200,0.8500,3.8200,9.1944,-0.3622,-0.0175,-0.3000,-55.50,34.06,46.69,3.1871,5.4048,3.6713,7.2696
7,6,0,0,13.985,13985,7.5400,2.6600,4.6100,9.2293,-0.5432,-0.0698,-0.8650,-51.56,40.56,43.63,3.7607,5.0431,3.7950,7.3469
7,6,0,0,14.107,14107,6.1700,5.4800,3.9800,9.1619,-0.8236,-0.0262,-1.4552,-45.56,51.75,37.94,4.0782,5.1007,3.8194,7.5654
7,6,0,0,14.227,14227,5.7000,5.8400,3.8300,9.0147,-0.9468,0.2214,-0.7985,-37.81,61.81,30.81,4.2919,5.1981,3.8208,7.7485
7,6,0,0,14.393,14393,3.9800,10.2900,1.9300,11.2004,-0.8236,0.3207,-1.4115,-27.69,76.44,21.31,4.2508,5.8691,3.5716,8.0791
7,6,0,0,14.517,14517,4.3100,8.5100,2.2400,9.7987,-0.4505,-0.1571,-1.0527,-20.88,80.50,15.88,4.2586,6.2171,3.3961,8.2657
7,6,0,0,14.638,14638,1.8000,9.3700,1.3000,9.6295,-0.5683,0.3752,-1.1225,-14.38,85.19,9.19,3.9346,6.6326,3.1199,8.3190
7,6,0,0,14.758,14758,0.4600,10.4500,0.4100,10.4682,-0.1953,0.1233,-1.1334,-6.56,88.13,0.63,3.4768,7.1356,2.7628,8.4046
7,6,0,0,14.879,14879,-1.2600,10.2300,0.4700,10.3180,-0.0044,0.0774,-1.7693,3.94,88.13,349.06,2.8526,7.5434,2.4607,8.4318
7,6,0,0,15.000,15000,-2.3700,8.6100,0.6500,8.9539,-0.1298,0.0894,-1.9330,13.56,88.38,338.56,2.1644,7.6839,2.2221,8.2864
7,6,0,0,15.121,15121,-4.4900,9.1700,0.0900,10.2106,-0.1364,0.2640,-1.4148,23.44,89.38,327.75,1.2875,7.8797,1.9411,8.2168
7,6,0,0,15.243,15243,-6.1500,9.6500,0.2400,11.4456,0.0589,0.2007,-1.6101,33.06,88.25,316.44,0.3074,8.1130,1.7170,8.2984
7,6,0,0,15.410,15410,-6.1000,9.1100,0.2400,10.9663,-0.3883,-0.2094,-1.3799,45.75,88.75,302.75,-0.5369,8.2444,1.5223,8.4009
7,6,0,0,15.531,15531,-7.4700,8.4000,-0.3500,11.2465,-0.0567,0.4538,1.3515,45.75,90.81,301.63,-1.4505,8.2649,1.2756,8.4876
7,6,0,0,15.651,15651,-7.4800,7.0800,0.7500,10.3266,0.4440,1.0177,0.0916,43.69,83.56,302.19,-2.2450,8.1088,1.2063,8.4999
7,6,0,0,15.772,15772,-4.0300,5.5500,1.7700,7.0835,-0.3229,0.0884,-1.7541,47.44,76.88,294.63,-2.4803,7.7716,1.2806,8.2577
7,6,0,0,15.893,15893,-12.2800,4.6400,-0.1900,13.1288,-0.9436,-1.2468,0.2716,58.50,88.69,283.88,-3.7716,7.3589,1.0868,8.3403
7,6,0,0,16.014,16014,-8.3200,8.1300,-1.2500,11.6996,0.1320,0.5171,1.0625,49.69,93.88,289.56,-4.3710,7.4605,0.7789,8.6817
7,6,0,0,16.136,16136,-7.6600,6.6700,0.6500,10.1778,0.7516,0.6436,1.5446,40.69,85.31,299.38,-4.8044,7.3564,0.7619,8.8192
7,6,0,0,16.256,16256,-3.5500,7.2300,1.3800,8.1719,0.1844,0.3436,2.2362,27.63,81.13,310.94,-4.6391,7.3397,0.8434,8.7237
7,6,0,0,16.423,16423,-0.6600,8.0100,1.3000,8.1416,0.0251,-0.0273,1.8762,9.75,81.00,328.63,-4.1147,7.4280,0.9035,8.5395
7,6,0,0,16.544,16544,2.8400,7.5200,1.2800,8.1397,0.1898,-0.0240,1.3843,-0.81,80.50,339.69,-3.1983,7.4402,0.9531,8.1543
7,6,0,0,16.665,16665,3.0400,6.7700,1.8300,7.6435,0.1811,-0.0774,-0.2018,-4.19,79.00,343.50,-2.3762,7.3518,1.0687,7.7999
7,6,0,0,16.786,16786,0.5300,7.9900,2.4000,8.3595,-0.0949,-0.3131,-0.9981,0.81,78.56,339.50,-1.9933,7.4359,1.2441,7.7983
7,7,0,0,16.907,16907,-0.5000,9.7600,1.7400,9.9265,-0.2913,-0.2989,-0.6992,7.69,80.56,334.50,-1.7965,7.7422,1.3095,8.0550
7,7,0,0,17.028,17028,-3.4300,8.5700,1.4500,9.3441,0.2967,-0.1920,-1.1825,15.06,80.25,329.25,-2.0118,7.8513,1.3280,8.2130
7,7,0,0,17.149,17149,-3.2800,8.7500,1.7100,9.4997,0.0927,0.0371,0.2869,15.63,78.75,329.06,-2.1789,7.9697,1.3783,8.3764
7,7,0,0,17.276,17276,-2.9600,9.0000,1.9200,9.6669,0.0720,-0.1320,-0.8465,16.31,78.50,328.44,-2.2818,8.1055,1.4497,8.5444
7,7,0,0,17.438,17438,-4.6200,9.5100,1.9400,10.7493,0.3065,-0.3447,-0.2422,21.69,76.69,326.44,-2.5899,8.2906,1.5143,8.8167
7,7,0,0,17.559,17559,-4.9600,8.4500,2.6000,10.1373,0.4200,-0.4320,-0.9556,26.50,74.75,324.81,-2.9022,8.3116,1.6574,8.9583
7,7,0,0,17.680,17680,-4.9700,7.6900,2.6700,9.5376,0.1091,-0.4407,-1.1290,33.00,73.50,321.13,-3.1747,8.2297,1.7908,9.0007
7,7,0,0,17.801,17801,-8.1200,8.3500,2.4300,11.8980,-0.1298,-0.5029,-1.2359,42.13,74.63,315.00,-3.8264,8.2455,1.8750,9.2815
7,7,0,0,17.922,17922,-7.7800,9.8600,2.0400,12.7244,-0.1898,-0.1200,0.5672,44.31,77.44,314.13,-4.3474,8.4583,1.8968,9.6974
7,7,0,0,18.043,18043,-5.5400,10.3600,2.1700,11.9470,0.0731,0.2836,2.1358,33.50,79.00,324.50,-4.5045,8.7089,1.9328,9.9935
7,7,0,0,18.169,18169,-2.6300,9.4000,2.3400,10.0376,0.2574,0.5509,3.4459,13.56,78.13,342.50,-4.2575,8.7999,1.9864,9.9755
7,7,0,0,18.291,18291,1.2300,8.8800,2.5400,9.3177,0.2902,0.2651,3.7885,-14.25,76.06,8.06,-3.5344,8.8105,2.0594,9.7138
7,7,0,0,18.452,18452,5.2400,5.6400,3.2200,8.3448,0.0764,0.3185,3.1972,-44.56,69.13,36.75,-2.3782,8.3927,2.2123,8.9993
7,7,0,0,18.573,18573,10.2100,4.2600,1.7800,11.2054,0.0851,0.4887,2.1522,-64.31,61.69,55.88,-0.7194,7.8481,2.1554,8.1704
7,7,0,0,18.694,18694,8.9700,2.7200,1.7500,9.5353,0.2498,-0.0251,1.5806,-73.88,46.19,64.75,0.5575,7.1724,2.1019,7.4948
7,7,0,0,18.816,18816,9.0100,0.0300,2.2600,9.2892,0.2127,0.1113,1.3974,-78.56,5.63,73.88,1.6713,6.2312,2.1228,6.7917
7,7,0,0,18.936,18936,8.7800,-1.4200,2.2200,9.1670,-0.0502,0.4996,1.4355,-77.94,-40.63,82.94,2.6080,5.2229,2.1356,6.2162
7,7,0,0,19.062,19062,7.7800,-2.8800,1.2600,8.3911,-0.1385,-0.0982,1.4552,-70.06,-65.00,94.44,3.2896,4.1552,2.0202,5.6717
7,7,0,0,19.184,19184,6.6600,-4.6000,1.5600,8.2431,-0.1844,-0.0142,0.6000,-62.00,-68.94,103.06,3.7337,3.0015,1.9596,5.1758
7,7,0,0,19.305,19305,7.1000,-5.0300,1.5300,8.8347,-0.2825,0.2029,-0.0731,-60.94,-70.75,106.13,4.1773,1.9431,1.9030,4.9847
7,8,0,0,19.466,19466,7.1400,-3.9900,2.2200,8.4751,0.1789,-0.0611,-1.4868,-67.69,-63.75,98.25,4.5677,1.1613,1.9447,5.0985
7,8,0,0,19.588,19588,8.4000,-2.0600,1.8700,8.8488,-0.1374,0.2782,-1.8784,-77.81,-43.25,85.94,5.0727,0.7368,1.9349,5.4790
7,8,0,0,19.713,19713,8.0900,2.1600,0.8100,8.4125,-0.4909,0.2073,-2.6354,-78.94,50.88,69.94,5.4703,0.9244,1.7867,5.8284
7,8,0,0,19.836,19836,7.3100,5.2100,0.6800,9.0024,-0.1102,0.0305,-2.4238,-62.56,77.63,53.56,5.7127,1.4891,1.6408,6.1274
7,8,0,0,19.957,19957,5.4500,6.4400,1.8400,8.6349,-0.1898,-0.2803,-2.2624,-46.88,80.25,38.19,5.6781,2.1415,1.6671,6.2933
7,8,0,0,20.077,20077,6.1100,9.0800,1.5200,11.0494,-0.2094,-0.0796,-1.6090,-33.38,82.69,26.31,5.7350,3.0558,1.6477,6.7040
7,8,0,0,20.199,20199,4.4000,10.2600,1.5700,11.2735,0.1047,-0.3622,-1.7933,-20.56,82.69,14.69,5.5591,4.0051,1.6375,7.0446
7,8,0,0,20.319,20319,2.5700,10.2900,1.7200,10.7446,0.2476,-0.5716,-1.8490,-9.94,81.00,6.69,5.1652,4.8333,1.6483,7.2634
7,8,0,0,20.488,20488,-0.0200,10.1000,2.5200,10.4096,0.6807,-0.5280,-0.8487,3.31,76.88,357.69,4.4819,5.5273,1.7632,7.3313
7,8,0,0,20.609,20609,-2.9400,9.3100,4.1700,10.6164,0.6130,-0.6905,-1.1410,13.19,71.69,353.06,3.5039,6.0258,2.0804,7.2743
7,8,0,0,20.730,20730,-2.7800,8.1700,4.3600,9.6689,-1.1705,0.6043,0.7734,14.31,73.13,352.25,2.6759,6.3083,2.3808,7.2542
7,8,0,0,20.850,20850,-0.1200,11.7000,0.3900,11.7071,-1.2795,0.7549,0.5138,8.94,83.06,349.94,2.3074,7.0188,2.1184,7.6861
7,8,0,0,20.971,20971,-1.5300,10.2000,1.4100,10.4100,0.7145,-0.0578,0.5912,5.69,82.81,351.50,1.8018,7.4380,2.0251,7.9165
7,8,0,0,21.092,21092,0.0400,8.6400,1.9700,8.8618,-0.7549,0.4941,0.9174,0.25,82.38,356.31,1.5696,7.5964,2.0178,8.0150
7,8,0,0,21.213,21213,2.5100,12.4100,-1.1000,12.7090,-0.9730,0.5094,0.7494,-6.63,90.75,359.31,1.6935,8.2307,1.6070,8.5554
7,8,0,0,21.338,21338,1.2300,9.1800,0.7800,9.2948,2.2635,-0.5738,0.2313,-9.44,83.75,1.94,1.6324,8.3558,1.4980,8.6446
7,8,0,0,21.502,21502,2.2000,9.4200,2.4500,9.9789,-0.4211,0.5400,0.7996,-15.06,76.31,6.63,1.7072,8.4960,1.6234,8.8166
7,8,0,0,21.622,21622,3.7200,8.8300,2.9600,10.0284,0.8639,-0.0916,1.0123,-21.56,73.63,11.19,1.9725,8.5401,1.7996,8.9477
7,8,0,0,21.744,21744,4.4800,7.4700,3.6500,9.4442,0.7876,0.0982,1.0930,-28.13,67.06,16.63,2.3029,8.3990,2.0434,8.9455
7,8,0,0,21.864,21864,5.2100,7.2200,3.8300,9.6923,1.1912,0.0164,0.9861,-34.69,59.88,20.81,2.6860,8.2437,2.2788,8.9647
7,8,0,0,21.986,21986,5.5600,3.9800,5.0700,8.5123,1.0308,0.1025,0.8421,-39.75,48.56,23.19,3.0647,7.6818,2.6466,8.6838
7,8,0,0,22.107,22107,5.7500,2.8600,5.3700,8.3713,-0.3785,0.5105,0.4080,-44.31,44.38,25.69,3.4186,7.0464,3.0055,8.3888
7,8,0,0,22.234,22234,7.7400,7.1500,2.4600,10.8204,-0.6501,0.4418,0.2520,-49.00,50.63,29.56,3.9880,7.0601,2.9336,8.6229
7,8,0,0,22.355,22355,8.1800,5.6700,3.7800,10.6466,0.8705,-0.2705,0.1244,-50.19,47.75,29.63,4.5404,6.8769,3.0452,8.7852
7,8,0,0,22.517,22517,7.5200,3.4500,4.7500,9.5402,-0.2160,0.1113,-0.0284,-49.31,38.06,27.50,4.9330,6.4253,3.2698,8.7356
7,8,0,0,22.639,22639,6.1700,-0.2800,6.6000,9.0392,-0.3938,0.0382,0.0796,-48.75,38.81,26.50,5.0960,5.5417,3.7086,8.3925
7,8,0,0,22.762,22762,8.9100,8.2500,1.6400,12.2532,-1.7759,0.7919,-0.3960,-50.63,55.25,30.75,5.5986,5.8986,3.4360,8.8286
7,8,0,0,22.886,22886,7.2800,4.3300,3.9200,9.3335,1.5501,-0.8432,-0.3153,-47.13,53.69,27.19,5.8202,5.6919,3.4998,8.8612
7,8,0,0,23.007,23007,5.7400,7.0900,2.8900,9.5691,-1.1596,-0.0218,-0.4407,-43.38,54.06,26.00,5.8096,5.8761,3.4195,8.9428
7,8,0,0,23.128,23128,5.7500,4.4200,5.0900,8.8604,-0.4571,-0.7178,-0.8279,-38.94,54.69,22.81,5.8018,5.6843,3.6396,8.9004
7,8,0,0,23.248,23248,6.1200,6.9500,4.3100,10.2144,-0.1298,-0.1734,-0.6490,-32.63,58.19,19.13,5.8437,5.8511,3.7279,9.0709
7,8,0,0,23.369,23369,3.2900,10.6600,1.5400,11.2619,-1.3319,-0.1145,-0.9130,-27.38,65.44,17.94,5.5072,6.4848,3.4396,9.1767
7,9,0,0,23.532,23532,0.7200,8.4400,3.9400,9.3421,-0.4047,-0.8072,-1.1345,-16.81,66.00,10.69,4.8764,6.7424,3.5056,9.0293
7,9,0,0,23.653,23653,1.7500,8.3400,4.1000,9.4566,-0.1494,-0.5411,-1.1923,-8.88,66.69,5.75,4.4644,6.9529,3.5839,9.0066
7,9,0,0,23.779,23779,0.0800,8.3800,4.6500,9.5840,0.1767,-0.4243,-0.9228,-0.31,66.50,0.56,3.8866,7.1410,3.7244,8.9426
7,9,0,0,23.900,23900,-1.1500,8.2100,4.2300,9.3070,-0.2836,-0.2618,-0.6447,7.06,67.75,356.06,3.2229,7.2818,3.7910,8.8195
7,9,0,0,24.021,24021,-2.5300,11.0200,2.1500,11.5093,0.3142,-0.5225,-1.5937,14.50,69.63,350.94,2.4648,7.7744,3.5748,8.9048
7,9,0,0,24.143,24143,-4.8200,8.3700,5.2700,11.0028,1.9155,-1.0297,-0.9348,25.13,60.63,348.06,1.5049,7.8529,3.7982,8.8521
7,9,0,0,24.264,24264,-6.9100,4.5100,6.7900,10.6861,-1.0592,0.3556,0.4581,27.63,57.31,350.31,0.3960,7.4124,4.1924,8.5251
7,9,0,0,24.384,24384,-1.6300,10.3000,1.2500,10.5028,-2.7751,1.4126,0.5640,19.81,71.69,345.69,0.1290,7.7929,3.8047,8.6730
7,9,0,0,24.552,24552,-3.5000,9.0200,2.7700,10.0640,0.1789,0.1909,0.5836,13.81,78.25,344.56,-0.3492,7.9546,3.6683,8.7667
7,9,0,0,24.673,24673,-0.4300,11.0000,1.8000,11.1546,0.2105,0.4222,0.9447,7.75,78.75,348.13,-0.3598,8.3559,3.4221,9.0367
7,9,0,0,24.795,24795,-1.0900,9.6600,2.8600,10.1333,3.0118,-0.5781,0.2498,5.75,67.94,352.88,-0.4560,8.5278,3.3481,9.1728
7,9,0,0,24.916,24916,-1.9900,6.4800,6.6200,9.4750,2.7205,0.1844,0.5192,4.38,48.19,358.13,-0.6582,8.2579,3.7792,9.1054
7,9,0,0,25.037,25037,-1.0000,3.2400,7.7600,8.4685,0.1134,0.9556,0.8803,-1.75,37.69,1.50,-0.7032,7.5967,4.3038,8.7594
7,9,0,0,25.159,25159,2.1400,7.4700,6.3400,10.0288,-0.1145,1.0221,0.6687,-10.69,40.31,3.88,-0.3286,7.5800,4.5721,8.8582
7,9,0,0,25.284,25284,2.5500,6.4100,7.1400,9.9283,0.4232,0.6240,0.9370,-17.50,37.50,7.00,0.0508,7.4258,4.9105,8.9027
7,9,0,0,25.406,25406,3.9600,5.2500,6.9000,9.5317,0.0709,0.7134,1.0854,-26.06,34.06,12.63,0.5659,7.1391,5.1727,8.8342
7,9,0,0,25.569,25569,4.5100,2.0000,7.9500,9.3564,0.8039,0.2422,0.8847,-33.00,25.56,16.56,1.0856,6.4619,5.5386,8.5797
7,9,0,0,25.689,25689,5.2200,3.2800,6.4700,8.9369,-0.2182,0.5934,0.6981,-37.88,22.56,20.50,1.6304,6.0426,5.6614,8.4393
7,9,0,0,25.811,25811,6.7900,3.1000,6.1300,9.6587,-0.0862,0.4647,0.9174,-43.56,21.13,25.63,2.3103,5.6548,5.7231,8.3707
7,9,0,0,25.936,25936,7.0300,1.7800,5.3800,9.0296,0.0120,0.2193,0.9774,-47.81,15.44,31.50,2.9323,5.1442,5.6779,8.2037
7,9,0,0,26.058,26058,7.1700,0.9000,5.5100,9.0873,0.0055,0.0044,0.6829,-49.94,8.44,37.75,3.4907,4.5850,5.6558,8.0743
7,9,0,0,26.178,26178,6.8800,0.7400,6.6400,9.5902,0.0938,-0.0905,0.6370,-49.75,3.00,42.00,3.9373,4.0783,5.7855,8.0998
7,9,0,0,26.300,26300,6.6700,-1.7900,7.0900,9.8975,0.1702,0.1484,0.6818,-49.81,-2.94,46.13,4.2974,3.3050,5.9574,8.0549
7,9,0,0,26.420,26420,7.1300,-1.8600,5.4100,9.1414,-0.1887,0.1211,-0.2465,-50.81,-4.25,47.50,4.6707,2.6244,5.8852,7.9586
7,9,0,0,26.583,26583,7.0000,-1.2500,5.2300,8.8270,-0.3392,-0.1102,-0.9381,-50.19,2.00,43.88,4.9776,2.1138,5.7989,7.9292
7,9,0,0,26.704,26704,6.2300,2.0900,6.3100,9.1103,-0.8203,-0.2716,-0.9839,-47.31,14.06,38.94,5.1427,2.1107,5.8663,8.0818
7,9,0,0,26.825,26825,6.5600,3.3800,5.7900,9.3799,-0.7919,-0.1364,-1.0516,-43.94,25.81,34.19,5.3294,2.2780,5.8562,8.2394
7,9,0,0,26.950,26950,5.6500,4.1400,5.7300,9.0496,-0.6010,-0.3992,-1.3352,-38.81,35.25,28.94,5.3717,2.5233,5.8396,8.3260
7,9,0,0,27.071,27071,4.5100,6.1100,6.0500,9.7095,-0.7919,-0.3294,-1.6701,-30.81,44.69,22.13,5.2581,2.9960,5.8673,8.4290
7,9,0,0,27.192,27192,3.4900,8.4200,5.1900,10.4887,-0.7341,-0.2869,-1.1825,-23.13,52.13,15.81,5.0251,3.7107,5.7781,8.5092
7,9,0,0,27.314,27314,2.0100,8.7300,4.9700,10.2447,-0.5421,-0.4396,-1.1410,-15.75,56.19,10.31,4.6278,4.3721,5.6716,8.5264
7,9,0,0,27.436,27436,1.4600,9.1700,4.6100,10.3669,-0.2945,-0.4145,-0.9239,-8.75,59.31,5.81,4.2104,5.0044,5.5317,8.5657
7,9,0,0,27.603,27603,-1.9400,8.6600,5.0300,10.2010,0.0469,-0.4909,-1.4410,2.06,60.00,359.06,3.3999,5.4861,5.4656,8.4575
7,9,0,0,27.724,27724,-3.3400,7.9100,5.6700,10.2894,-0.5280,-0.3065,-1.2577,10.88,61.31,351.81,2.5118,5.8055,5.4925,8.3774
7,9,0,0,27.845,27845,-2.4100,9.7500,3.1500,10.5258,-1.6559,0.2858,-0.0862,14.13,69.75,346.88,1.8632,6.3253,5.1838,8.3877
7,9,0,0,27.966,27966,-1.5400,11.5500,2.3100,11.8790,0.7210,-0.0175,0.1822,15.56,73.31,344.06,1.4147,7.0138,4.8051,8.6188
7,9,0,0,28.086,28086,-3.6400,9.2900,4.3300,10.8767,0.0676,0.0774,0.6185,14.44,68.94,347.63,0.7487,7.3137,4.7425,8.7489
7,9,0,0,28.207,28207,-1.6400,9.5700,3.7300,10.4013,-0.5171,0.6436,1.1868,7.94,70.56,351.06,0.4339,7.6110,4.6091,8.9084
7,9,0,0,28.329,28329,0.8100,10.9400,2.1500,11.1786,-0.8039,0.8334,1.7344,-3.31,75.69,357.56,0.4835,8.0497,4.2851,9.1320
7,9,0,0,28.450,28450,2.6300,10.8800,1.5500,11.3002,0.4014,0.2193,1.8337,-15.69,77.06,6.75,0.7663,8.4227,3.9246,9.3237
7,10,0,0,28.616,28616,3.5500,7.6400,2.8200,8.8839,0.5760,0.1298,1.6919,-30.44,69.25,20.31,1.1331,8.3195,3.7791,9.2076
7,10,0,0,28.737,28737,4.8900,6.8100,3.2800,9.0026,0.4571,0.1385,1.3755,-40.88,63.44,29.13,1.6282,8.1206,3.7133,9.0766
7,10,0,0,28.859,28859,6.4500,4.8700,3.8200,8.9393,0.1614,0.2040,1.5424,-50.13,57.19,37.25,2.2636,7.6923,3.7274,8.8424
7,10,0,0,28.980,28980,7.4000,3.8300,3.0000,8.8560,-0.4505,0.4363,1.6341,-61.13,50.69,49.44,2.9404,7.1833,3.6315,8.5694
7,10,0,0,29.100,29100,7.2800,1.9300,3.0000,8.1070,-0.4036,0.3349,1.5403,-70.44,39.88,61.56,3.5123,6.4911,3.5483,8.1890
7,10,0,0,29.223,29223,7.8500,-0.3400,2.4700,8.2364,-0.9796,0.7865,2.0737,-79.44,9.06,76.75,4.0839,5.5909,3.4062,7.7161
7,10,0,0,29.348,29348,9.7600,-2.4000,1.0500,10.1054,-1.3068,1.2861,2.2973,-76.81,-70.50,99.44,4.8318,4.5379,3.0957,7.3159
7,10,0,0,29.470,29470,9.5700,-2.1500,-0.7900,9.8403,-0.4091,0.1625,1.0472,-68.38,-89.81,116.75,5.4562,3.6566,2.5837,7.0581
7,10,0,0,29.633,29633,6.6900,-5.7500,1.1500,8.8961,0.7374,-0.6436,0.1298,-62.88,-85.25,116.81,5.6188,2.4171,2.3948,6.5687
7,10,0,0,29.757,29757,6.7900,-5.7900,1.0100,8.9804,0.3403,0.0567,-0.8858,-64.69,-84.31,111.00,5.7731,1.3356,2.2123,6.3251
7,10,0,0,29.878,29878,8.5300,-3.0000,-0.1600,9.0436,0.1625,0.0644,-1.9995,-74.63,-85.06,100.06,6.1364,0.7643,1.8997,6.4690
7,10,0,0,30.001,30001,9.5900,-0.4000,-0.1300,9.5992,0.3916,-0.6338,-2.3267,-87.25,-0.94,82.56,6.5915,0.6108,1.6322,6.8180
7,10,0,0,30.123,30123,7.8500,2.2100,1.7600,8.3429,0.5683,-0.9774,-2.2307,-74.00,56.31,65.19,6.7573,0.8216,1.6491,7.0040
7,10,0,0,30.243,30243,5.9300,4.0800,2.8600,7.7454,-0.0622,-0.5552,-2.0082,-59.69,60.88,51.63,6.6483,1.2509,1.8086,7.0026
7,10,0,0,30.365,30365,6.8100,7.4400,2.1000,10.3024,-0.2018,-0.4898,-1.8740,-47.38,66.44,41.88,6.6696,2.0665,1.8470,7.2226
7,10,0,0,30.485,30485,4.7300,7.9800,3.0700,9.7713,0.1178,-0.8519,-1.9580,-33.56,66.81,31.06,6.4140,2.8458,2.0082,7.2987
7,10,0,0,30.649,30649,1.3000,8.3800,4.1300,9.4325,-0.4331,-0.3632,-1.7486,-15.38,68.63,17.88,5.7401,3.5750,2.2878,7.1389
7,10,0,0,30.774,30774,0.6900,10.2900,3.9200,11.0330,-0.3752,-0.3022,-1.4083,-2.19,72.31,6.75,5.0747,4.4599,2.5029,7.2047
7,10,0,0,30.895,30895,-1.1500,9.6600,3.1400,10.2224,-0.1767,-0.1538,-1.4715,8.38,73.88,357.25,4.2544,5.1451,2.5868,7.1599
7,10,0,0,31.017,31017,-4.5500,10.3800,3.1700,11.7684,-0.4680,-0.0578,-1.8130,19.63,75.19,346.06,3.0942,5.8350,2.6637,7.1215
7,10,0,0,31.137,31137,-3.4000,13.0500,2.8400,13.7814,-0.1549,0.5432,-0.0153,24.56,76.69,338.25,2.2384,6.7857,2.6869,7.6339
7,10,0,0,31.258,31258,-3.0300,10.7500,3.0200,11.5700,0.7407,0.1691,1.5359,17.31,74.00,344.00,1.5442,7.3081,2.7308,7.9530
7,10,0,0,31.379,31379,-2.4100,9.6700,3.5700,10.5859,0.3240,0.5956,2.2089,4.25,70.38,357.00,1.0231,7.6193,2.8414,8.1960
7,10,0,0,31.500,31500,1.1900,9.6300,2.6300,10.0534,0.1974,0.6207,2.0082,-11.50,69.19,8.75,1.0451,7.8843,2.8135,8.4363
7,10,0,0,31.667,31667,4.1400,8.5700,3.2000,10.0411,1.6057,-0.5138,1.5370,-27.19,58.56,23.06,1.4529,7.9747,2.8645,8.5972
7,10,0,0,31.789,31789,3.6900,3.7400,5.5300,7.6279,2.5558,-0.6534,1.1726,-30.88,36.69,29.69,1.7477,7.4166,3.2157,8.2705
7,10,0,0,31.909,31909,3.7000,0.2600,7.3600,8.2418,1.4584,0.1145,0.6610,-31.94,19.13,31.56,2.0050,6.4736,3.7618,7.7510
7,10,0,0,32.030,32030,4.1400,0.0500,7.4500,8.5232,-0.6610,1.0068,0.9185,-37.00,14.13,35.88,2.2863,5.6271,4.2478,7.4119
7,10,0,0,32.151,32151,7.1300,2.2700,6.0900,9.6477,-1.0134,1.2021,0.8618,-46.56,17.56,43.25,2.9246,5.1847,4.4906,7.4565
7,10,0,0,32.273,32273,8.0400,2.3800,5.3400,9.9409,0.2978,0.4658,0.9207,-53.75,15.00,50.00,3.5987,4.8151,4.6025,7.5709
7,10,0,0,32.396,32396,7.5500,-0.4200,5.2600,9.2112,0.8039,0.0611,0.8825,-56.06,2.63,53.31,4.1194,4.1253,4.6892,7.4817
