participant,rep,equipment_code,exercise_code,timestamp,timestamp_ms,accelX,accelY,accelZ,accelMag,gyroX,gyroY,gyroZ,roll,pitch,yaw,filteredX,filteredY,filteredZ,filteredMag
8,1,0,0,00.000,0,-3.8700,9.0400,2.3200,10.1035,0.2040,0.0382,0.1200,22.13,76.38,16.88,-4.1559,8.6555,1.6770,9.7469
8,1,0,0,00.122,122,-3.5100,9.4700,2.8000,10.4805,0.2269,0.2771,0.3960,20.38,74.75,18.00,-4.0708,8.7628,1.8250,9.8330
8,1,0,0,00.245,245,-2.2000,9.5300,3.1900,10.2877,0.3840,0.4254,0.7963,15.19,72.25,21.31,-3.8243,8.8639,2.0048,9.8597
8,1,0,0,00.369,369,-1.7700,9.6600,3.4700,10.4158,0.4156,0.3294,0.8159,9.13,69.25,25.31,-3.5536,8.9688,2.1979,9.8944
8,1,0,0,00.491,491,-0.6800,9.8100,4.1100,10.6579,0.5738,0.2083,1.3548,1.63,66.06,31.75,-3.1749,9.0797,2.4499,9.9258
8,1,0,0,00.611,611,1.0300,8.5500,4.2200,9.5902,0.9152,0.0251,1.7399,-7.88,60.94,41.19,-2.6208,9.0099,2.6831,9.7594
8,1,0,0,00.732,732,2.4400,7.2500,4.9800,9.1278,0.7549,-0.3894,0.8661,-15.06,53.50,50.56,-1.9539,8.7780,2.9858,9.4755
8,1,0,0,00.896,896,1.6800,6.3600,5.9300,8.8565,0.3305,-0.1680,0.2509,-15.81,47.63,54.31,-1.4751,8.4593,3.3738,9.2260
8,1,0,0,01.021,1021,2.4800,6.5200,6.3200,9.4129,0.0175,-0.1385,0.1298,-16.31,46.19,56.25,-0.9539,8.2038,3.7620,9.0755
8,1,0,0,01.142,1142,2.4700,6.8600,6.5900,9.8280,-0.0142,-0.0120,-0.0720,-16.00,46.00,56.69,-0.5027,8.0267,4.1347,9.0430
8,1,0,0,01.263,1263,2.4500,7.5400,7.4900,10.9066,-0.0556,0.1505,-0.0982,-15.44,46.81,55.31,-0.1136,7.9626,4.5768,9.1849
8,1,0,0,01.383,1383,3.6200,7.8900,6.8900,11.0828,0.2760,0.4429,0.9828,-19.06,46.63,57.25,0.3784,7.9530,4.8816,9.3394
8,1,0,0,01.505,1505,4.6600,7.3700,7.2000,11.3081,0.8039,0.1189,0.8727,-24.56,41.75,61.69,0.9426,7.8762,5.1871,9.4778
8,1,0,0,01.626,1626,4.4800,4.5800,6.7100,9.2774,1.0832,-0.1102,1.4017,-29.25,31.50,68.06,1.4087,7.4418,5.3878,9.2948
8,1,0,0,01.746,1746,4.3600,3.7600,7.7100,9.6224,0.5770,-0.1876,0.6763,-30.81,22.88,72.75,1.7976,6.9567,5.6938,9.1677
8,1,0,0,01.914,1914,5.4300,2.3300,8.4300,10.2946,0.6218,-0.1887,1.0145,-32.00,12.19,79.81,2.2763,6.3470,6.0544,9.0621
8,1,0,0,02.035,2035,4.7700,1.4500,8.1500,9.5539,0.6938,-0.0818,0.6992,-31.69,3.94,84.19,2.6049,5.7017,6.3305,8.9090
8,1,0,0,02.156,2156,4.9400,0.0500,8.4400,9.7796,0.7036,0.1822,0.8552,-32.19,-3.81,87.75,2.9126,4.9569,6.6085,8.7594
8,1,0,0,02.276,2276,4.8600,-1.3700,7.8200,9.3085,0.6185,0.1778,1.1552,-32.38,-12.44,93.31,3.1692,4.1232,6.7681,8.5354
8,1,0,0,02.397,2397,4.8200,-2.5500,7.9000,9.5992,0.4560,0.2683,0.8061,-31.88,-20.06,99.13,3.3867,3.2438,6.9173,8.3571
8,1,0,0,02.519,2519,4.8100,-3.2100,7.4300,9.4152,0.4156,0.2793,0.5531,-32.00,-25.81,102.94,3.5743,2.3934,6.9849,8.2032
8,1,0,0,02.639,2639,4.8500,-3.4800,7.5100,9.5934,0.1374,-0.0262,0.4429,-31.00,-29.75,106.00,3.7424,1.6194,7.0541,8.1479
8,1,0,0,02.761,2761,3.9300,-4.7900,6.4600,8.9510,0.3938,0.1887,0.6283,-29.31,-33.50,109.13,3.7671,0.7748,6.9758,7.9657
8,1,0,0,02.927,2927,3.6200,-5.4200,6.2800,9.0509,-0.4374,0.5967,-0.3807,-31.50,-35.50,111.00,3.7477,-0.0415,6.8841,7.8382
8,2,0,0,03.048,3048,4.9700,-2.7300,6.4000,8.5507,-0.9447,0.8258,-1.5119,-39.75,-27.31,107.06,3.9088,-0.3958,6.8203,7.8709
8,2,0,0,03.169,3169,6.6900,0.1400,6.0600,9.0277,-0.8618,0.8279,-2.0900,-49.50,-11.06,97.56,4.2753,-0.3252,6.7201,7.9714
8,2,0,0,03.290,3290,7.5300,2.4000,4.5800,9.1344,-0.5214,0.5901,-1.4039,-54.50,8.50,88.25,4.7042,0.0339,6.4381,7.9737
8,2,0,0,03.411,3411,8.3400,3.3500,4.6400,10.1147,-0.6130,0.1004,-1.6068,-54.00,25.31,80.56,5.1833,0.4709,6.2012,8.0958
8,2,0,0,03.532,3532,6.5900,5.1700,4.3800,9.4521,-0.8039,-0.1734,-1.8271,-46.69,41.88,71.13,5.3687,1.0901,5.9612,8.0961
8,2,0,0,03.659,3659,5.4500,7.2800,4.3100,10.0636,-0.9817,-0.0687,-1.6679,-37.44,54.38,62.63,5.3794,1.9058,5.7436,8.0968
8,2,0,0,03.781,3781,3.9900,8.5600,3.4400,10.0512,-0.9207,-0.0360,-1.1497,-28.31,64.88,54.94,5.1963,2.7827,5.4400,8.0211
8,2,0,0,03.944,3944,2.7400,9.8600,2.7100,10.5864,-0.5596,-0.0709,-1.4639,-18.06,72.94,46.31,4.8726,3.7153,5.0803,7.9596
8,2,0,0,04.064,4064,1.0700,10.0400,2.3300,10.3622,-0.2803,-0.3218,-1.4639,-8.19,76.00,37.88,4.3715,4.5487,4.7179,7.8778
8,2,0,0,04.185,4185,-0.5100,10.0200,2.0200,10.2343,-0.0851,-0.6370,-1.1301,0.88,77.00,32.13,3.7283,5.2697,4.3624,7.7910
8,2,0,0,04.311,4311,-1.8700,9.1800,1.7500,9.5306,-0.0862,-0.6632,-1.1061,8.63,77.63,28.75,2.9906,5.7850,4.0181,7.6521
8,2,0,0,04.433,4433,-3.9000,9.3700,1.5900,10.2730,-0.1865,-0.4483,-1.2021,18.31,79.13,22.63,2.0826,6.2574,3.6982,7.5610
8,2,0,0,04.554,4554,-4.2700,9.2500,1.5300,10.3022,-0.2923,-0.1920,-0.2509,23.25,81.25,19.13,1.2455,6.6517,3.4124,7.5790
8,2,0,0,04.676,4676,-4.0800,9.8300,1.3300,10.7259,-0.2596,0.0578,-0.2051,24.38,83.25,17.63,0.5437,7.0705,3.1380,7.7547
8,2,0,0,04.798,4798,-4.2600,10.6000,1.4200,11.5119,0.1505,0.2683,0.1462,24.94,83.13,15.75,-0.0893,7.5356,2.9116,8.0791
8,2,0,0,04.964,4964,-2.5700,11.2400,2.1300,11.7252,1.2632,0.2782,0.7919,18.44,76.00,21.44,-0.4162,8.0238,2.8086,8.5113
8,2,0,0,05.085,5085,-2.8400,9.5600,3.3500,10.5205,2.1348,-0.0196,1.2632,11.75,63.63,30.38,-0.7356,8.2262,2.8800,8.7468
8,2,0,0,05.205,5205,-1.4700,7.6800,5.3700,9.4858,1.9919,-0.0709,1.4061,3.75,50.13,41.63,-0.8324,8.1542,3.2081,8.8021
8,2,0,0,05.326,5326,-1.0600,6.6900,6.4500,9.3532,1.7159,-0.0142,1.1552,-1.75,38.31,50.19,-0.8624,7.9613,3.6353,8.7944
8,2,0,0,05.447,5447,0.7800,4.4400,8.5200,9.6391,1.5784,-0.0251,1.3941,-6.81,26.44,58.50,-0.6459,7.4973,4.2790,8.6566
8,2,0,0,05.569,5569,0.6200,3.1800,8.4600,9.0592,1.1934,0.0360,1.0210,-9.38,16.38,66.00,-0.4791,6.9284,4.8299,8.4593
8,2,0,0,05.690,5690,0.9400,1.3200,8.6700,8.8201,0.4985,0.5585,0.7516,-12.81,9.44,70.75,-0.2921,6.1893,5.3360,8.1771
8,2,0,0,05.814,5814,2.9600,1.4100,9.4300,9.9837,0.3916,0.7952,0.9567,-18.56,5.69,75.94,0.1364,5.5595,5.8754,8.0900
8,2,0,0,05.977,5977,3.8100,0.0000,8.6400,9.4428,0.4440,0.4614,0.8388,-24.56,-1.06,84.25,0.6205,4.8269,6.2397,7.9132
8,2,0,0,06.098,6098,3.9600,-0.2100,8.4500,9.3342,0.1942,0.4091,0.3000,-27.19,-4.63,87.25,1.0606,4.1632,6.5310,7.8173
8,3,0,0,06.219,6219,4.8000,-0.5900,8.5900,9.8578,0.1047,0.7134,0.2923,-30.88,-7.44,89.88,1.5533,3.5368,6.8023,7.8226
8,3,0,0,06.340,6340,5.2700,-0.1100,7.8100,9.4224,-0.0862,0.8945,0.4222,-35.81,-8.50,91.94,2.0431,3.0563,6.9351,7.8493
8,3,0,0,06.461,6461,6.9100,-0.8900,7.5900,10.3028,-0.0415,0.9850,0.6349,-41.56,-12.75,96.88,2.6844,2.5363,7.0214,7.9334
8,3,0,0,06.589,6589,7.3800,-1.0700,6.4200,9.8400,-0.0742,0.7265,0.4036,-46.25,-16.88,100.88,3.3032,2.0610,6.9422,7.9594
8,3,0,0,06.710,6710,7.3300,-1.3800,5.7900,9.4423,0.1440,0.4483,0.4571,-49.06,-21.00,104.00,3.8338,1.6076,6.7903,7.9619
8,3,0,0,06.830,6830,6.3400,-3.5500,5.2200,8.9469,0.0535,0.4123,0.2182,-50.50,-26.19,106.63,4.1641,0.9280,6.5834,7.8449
8,3,0,0,06.992,6992,7.0900,-1.6900,5.2400,8.9767,-0.8498,0.3109,-1.4148,-55.81,-16.94,103.38,4.5496,0.5830,6.4064,7.8791
8,3,0,0,07.114,7114,8.0000,0.9600,4.6700,9.3129,-0.6414,0.3600,-1.2512,-59.38,2.69,96.88,5.0043,0.6327,6.1776,7.9753
8,3,0,0,07.234,7234,7.9800,3.0500,4.2000,9.5196,-0.5258,0.0535,-1.5053,-58.69,21.38,90.38,5.3964,0.9512,5.9170,8.0645
8,3,0,0,07.355,7355,7.3900,4.0200,4.5500,9.5643,-0.3360,0.1058,-1.3123,-54.38,37.38,82.25,5.6591,1.3556,5.7368,8.1716
8,3,0,0,07.481,7481,6.8100,5.2700,3.8200,9.4203,-0.5411,-0.0807,-1.3090,-48.56,48.81,75.06,5.8108,1.8714,5.4843,8.2064
8,3,0,0,07.603,7603,5.5500,7.5500,3.6900,10.0708,-0.6109,-0.1036,-1.6624,-39.06,58.50,66.63,5.7764,2.6197,5.2478,8.2322
8,3,0,0,07.724,7724,4.2500,8.1600,3.2700,9.7643,-0.5869,0.0349,-1.0461,-30.81,65.56,58.88,5.5753,3.3498,4.9872,8.1961
8,3,0,0,07.845,7845,3.3200,8.9100,2.6300,9.8655,-0.5520,0.0065,-1.1563,-24.81,70.88,53.75,5.2781,4.0825,4.6766,8.1483
8,3,0,0,08.007,8007,1.6400,10.6300,2.5000,11.0425,-0.3011,-0.0120,-1.4715,-12.00,76.00,41.56,4.7987,4.9453,4.3898,8.1702
8,3,0,0,08.133,8133,0.6400,9.6200,2.2600,9.9026,-0.1396,0.0022,-0.5531,-6.25,77.38,35.81,4.2507,5.5613,4.1091,8.1167
8,3,0,0,08.255,8255,-0.3100,9.7500,1.6800,9.8985,-0.3382,0.0971,-1.0636,-0.38,79.25,29.50,3.6497,6.1132,3.7890,8.0653
8,3,0,0,08.376,8376,-1.2300,10.2500,1.2200,10.3954,-0.1287,0.1091,-0.7418,5.38,80.81,22.69,3.0067,6.6584,3.4505,8.0796
8,3,0,0,08.496,8496,-1.3500,10.0500,1.4200,10.2392,-0.0654,-0.1189,-0.6240,9.63,81.31,18.38,2.4326,7.1053,3.1829,8.1568
8,3,0,0,08.617,8617,-2.1900,10.0300,1.2700,10.3446,-0.0262,-0.1178,-0.2814,12.75,81.88,16.13,1.8234,7.4907,2.9308,8.2477
8,3,0,0,08.740,8740,-2.1400,10.2400,1.3000,10.5417,0.0065,-0.0305,-0.0502,13.69,81.94,15.56,1.3012,7.8530,2.7159,8.4106
8,3,0,0,08.860,8860,-2.1000,10.6100,1.6400,10.9395,0.1254,0.0142,0.4429,12.38,81.69,17.00,0.8530,8.2163,2.5742,8.6522
8,3,0,0,09.026,9026,-0.9700,10.8600,2.1000,11.1036,0.4887,0.1854,1.1203,5.06,78.88,23.75,0.6128,8.5647,2.5117,8.9464
8,3,0,0,09.148,9148,-0.0100,10.1100,2.6000,10.4390,0.4669,0.4440,1.4803,-4.81,74.94,31.81,0.5307,8.7683,2.5233,9.1396
8,3,0,0,09.268,9268,2.1700,9.8100,2.3600,10.3206,0.3982,0.5323,2.2002,-17.69,72.44,41.06,0.7467,8.9056,2.5018,9.2804
8,4,0,0,09.390,9390,4.7300,7.6700,3.3400,9.6103,0.5247,0.0578,2.0639,-32.94,67.00,54.19,1.2716,8.7428,2.6122,9.2128
8,4,0,0,09.510,9510,6.4100,7.8800,3.2200,10.6560,0.4756,-0.3545,1.6068,-42.63,59.75,64.69,1.9487,8.6291,2.6923,9.2470
8,4,0,0,09.631,9631,5.6700,3.4900,5.2700,8.4913,1.5239,-1.5839,1.5959,-46.25,39.38,75.00,2.4391,7.9519,3.0320,8.8529
8,4,0,0,09.754,9754,4.6600,3.1600,6.0800,8.2866,0.2760,0.2520,0.8334,-46.25,25.63,81.25,2.7317,7.3204,3.4337,8.5347
8,4,0,0,09.879,9879,7.8200,2.6000,5.6500,9.9917,0.2607,0.4080,1.1617,-51.88,19.13,85.56,3.4022,6.6984,3.7257,8.3860
8,4,0,0,10.041,10041,8.3400,0.7600,6.1200,10.3724,0.2127,0.3392,1.1268,-55.31,-0.94,97.38,4.0529,5.9159,4.0412,8.2313
8,4,0,0,10.162,10162,7.7100,-0.5800,4.9300,9.1698,0.0316,0.9905,1.2730,-58.94,-12.56,103.88,4.5348,5.0599,4.1583,7.9661
8,4,0,0,10.283,10283,8.7300,-1.9100,3.6600,9.6569,-0.1113,1.1563,1.0385,-63.25,-29.50,112.31,5.0876,4.1414,4.0927,7.7321
8,4,0,0,10.405,10405,8.7900,-2.5200,2.7500,9.5487,-0.2673,0.7701,0.6490,-65.56,-44.31,119.38,5.5755,3.2636,3.9157,7.5545
8,4,0,0,10.531,10531,9.7900,-2.4200,2.8000,10.4662,-0.1091,0.2040,0.6000,-64.13,-54.25,125.69,6.1309,2.5147,3.7687,7.6233
8,4,0,0,10.653,10653,7.6900,-3.0100,2.8200,8.7263,0.2247,-0.1614,0.0949,-62.00,-56.63,127.56,6.3363,1.7867,3.6437,7.5245
8,4,0,0,10.773,10773,6.4000,-4.2800,2.8600,8.2133,0.0262,0.0415,0.0175,-61.06,-58.31,127.31,6.3447,0.9872,3.5404,7.3324
8,4,0,0,10.894,10894,8.0700,-2.6100,2.8300,8.9412,-0.1691,0.1265,-1.3003,-64.19,-53.63,124.44,6.5721,0.5132,3.4468,7.4388
8,4,0,0,11.056,11056,9.5300,-0.0400,2.7500,9.9189,0.0807,-0.0971,-1.6330,-74.56,-20.63,108.50,6.9618,0.4403,3.3550,7.7406
8,4,0,0,11.180,11180,8.6500,1.6800,2.8200,9.2519,-0.0535,-0.4614,-1.7431,-72.63,15.81,98.13,7.1843,0.6037,3.2845,7.9225
8,4,0,0,11.304,11304,8.1500,4.3400,3.0300,9.7180,-0.0742,0.0120,-2.2307,-63.13,46.56,83.44,7.3116,1.0960,3.2510,8.0764
8,4,0,0,11.425,11425,7.9400,5.9500,2.8900,10.3343,-0.3076,-0.0120,-1.2534,-54.38,59.75,72.94,7.3944,1.7356,3.2034,8.2432
8,4,0,0,11.545,11545,7.0800,6.8800,2.6500,10.2217,-0.3316,-0.1244,-1.2305,-47.56,65.50,67.19,7.3529,2.4135,3.1305,8.3481
8,4,0,0,11.666,11666,5.3100,7.7200,2.4900,9.6951,-0.3905,-0.1102,-1.3777,-38.69,70.44,59.56,7.0837,3.1128,3.0461,8.3155
8,4,0,0,11.788,11788,4.1000,8.6500,2.0600,9.7916,-0.5825,-0.1331,-1.2130,-30.56,74.81,53.31,6.6906,3.8425,2.9161,8.2481
8,4,0,0,11.909,11909,2.8300,9.7300,1.5900,10.2572,-0.5967,0.0731,-1.2730,-22.19,79.69,46.56,6.1818,4.6183,2.7414,8.1889
8,4,0,0,12.071,12071,1.7000,9.8500,0.8100,10.0284,-0.3851,0.0633,-0.9523,-12.63,84.88,36.94,5.5912,5.3077,2.4869,8.1005
8,4,0,0,12.197,12197,0.4700,10.3800,0.4100,10.3987,-0.2236,-0.1516,-1.2937,-5.00,86.94,30.00,4.9164,5.9761,2.2132,8.0488
8,4,0,0,12.318,12318,-0.7900,10.6600,0.5600,10.7039,0.0207,-0.3218,-1.1552,4.06,87.56,22.69,4.1644,6.5933,1.9953,8.0496
8,4,0,0,12.439,12439,-1.4300,10.2100,0.7300,10.3355,0.1713,-0.3392,-0.5236,9.06,86.88,20.06,3.4272,7.0699,1.8286,8.0668
8,4,0,0,12.560,12560,-2.2100,10.4200,0.8400,10.6849,0.1745,-0.2814,-0.3949,11.94,86.06,19.44,2.6844,7.5114,1.6983,8.1554
8,4,0,0,12.680,12680,-2.1300,11.2800,1.4900,11.5756,0.3469,-0.0698,0.4592,12.31,84.56,20.50,2.0500,8.0080,1.6709,8.4334
8,4,0,0,12.801,12801,-0.7000,11.7900,2.0800,11.9925,0.6043,0.0589,1.6810,4.88,81.63,28.50,1.6876,8.5063,1.7248,8.8420
8,4,0,0,12.922,12922,0.8500,10.6700,2.3800,10.9652,1.1257,0.2269,1.8653,-7.75,75.69,40.25,1.5772,8.7915,1.8111,9.1136
8,4,0,0,13.089,13089,1.9100,9.3400,2.9400,9.9763,0.9392,0.5258,2.2166,-24.44,65.81,52.94,1.6211,8.8637,1.9599,9.2214
8,5,0,0,13.211,13211,5.0900,5.6800,3.4100,8.3546,0.8738,0.5869,2.6780,-42.75,55.63,66.63,2.0782,8.4442,2.1510,8.9582
8,5,0,0,13.331,13331,6.5500,3.7100,3.3300,8.2314,0.3109,0.6600,1.6428,-56.06,45.19,77.06,2.6675,7.8204,2.3063,8.5786
8,5,0,0,13.452,13452,8.2800,2.4900,3.4000,9.2908,0.3360,0.3065,1.3810,-65.13,33.56,84.88,3.4071,7.1180,2.4505,8.2631
8,5,0,0,13.573,13573,9.1900,1.4800,3.5100,9.9482,0.4494,-0.1178,1.0407,-68.56,15.13,90.63,4.1691,6.3750,2.5901,8.0455
8,5,0,0,13.694,13694,8.5600,0.2400,3.6900,9.3246,0.5280,-0.1244,1.0057,-68.06,-3.56,94.50,4.7477,5.5666,2.7350,7.8107
8,5,0,0,13.832,13832,8.6800,-1.1900,4.1400,9.6901,0.1505,0.0753,1.2097,-65.88,-24.50,100.63,5.2659,4.6762,2.9202,7.6239
8,5,0,0,13.953,13953,8.8500,-2.3400,3.6300,9.8476,-0.0349,0.2858,1.1923,-62.00,-41.25,109.38,5.7382,3.7517,3.0137,7.4889
8,5,0,0,14.115,14115,8.2500,-3.0400,3.4200,9.4340,-0.1996,0.6141,0.6218,-60.00,-52.69,117.63,6.0692,2.8567,3.0672,7.3759
8,5,0,0,14.236,14236,7.4200,-4.1500,2.7300,8.9293,-0.4200,1.0668,1.0090,-57.88,-64.00,126.94,6.2472,1.9334,3.0228,7.2043
8,5,0,0,14.357,14357,8.0600,-4.4300,1.7600,9.3641,-0.2640,0.8825,0.8061,-54.88,-73.56,137.50,6.4861,1.0949,2.8564,7.1712
8,5,0,0,14.478,14478,7.4500,-5.4100,1.2000,9.2850,0.1974,0.3120,0.1702,-52.88,-79.69,142.31,6.6131,0.2377,2.6381,7.1238
8,5,0,0,14.604,14604,6.1600,-5.2300,1.6000,8.2376,0.3240,-0.1069,-0.8596,-54.94,-81.44,139.13,6.5534,-0.4828,2.5013,7.0311
8,5,0,0,14.725,14725,8.2500,-2.9500,0.5500,8.7788,0.5792,-0.0338,-2.5155,-67.19,-79.88,123.88,6.7769,-0.8079,2.2442,7.1844
8,5,0,0,14.845,14845,9.5900,-0.6700,0.2500,9.6166,0.2825,-0.2923,-3.1765,-85.25,-2.63,100.75,7.1476,-0.7897,1.9814,7.4591
8,5,0,0,14.966,14966,8.6700,3.6200,0.6800,9.4200,-0.1538,-1.0930,-2.4969,-72.50,60.19,83.69,7.3482,-0.2087,1.8099,7.5707
8,5,0,0,15.128,15128,6.5500,6.5500,2.4300,9.5765,-0.1036,-0.8978,-2.6573,-46.75,65.75,63.06,7.2431,0.6820,1.8916,7.5170
8,5,0,0,15.249,15249,4.8600,8.8500,3.2800,10.6160,-0.5956,-1.2414,-1.8086,-30.63,67.81,53.69,6.9290,1.7583,2.0746,7.4436
8,5,0,0,15.370,15370,2.6300,10.1000,3.3400,10.9582,-0.2258,-1.1061,-1.6155,-17.25,69.44,48.69,6.3625,2.8575,2.2413,7.3260
8,5,0,0,15.496,15496,0.4100,9.4000,3.4500,10.0215,-0.0142,-0.8683,-0.9807,-7.25,69.13,44.81,5.5781,3.7197,2.4006,7.1214
8,5,0,0,15.618,15618,-0.6100,10.1100,3.6900,10.7796,-0.4134,-0.5618,-0.8159,0.75,70.69,41.81,4.7627,4.5617,2.5705,7.0782
8,5,0,0,15.738,15738,-1.2000,9.6500,2.8500,10.1334,-0.2618,-0.1494,-0.2880,4.94,73.25,39.63,3.9770,5.2322,2.6073,7.0704
8,5,0,0,15.860,15860,-0.7300,9.8500,3.0300,10.3313,-0.1571,-0.2171,-0.6130,7.50,74.31,37.63,3.3567,5.8407,2.6630,7.2439
8,5,0,0,15.981,15981,-1.8500,11.4400,3.3400,12.0603,0.0447,-0.3338,-0.4156,12.25,75.13,34.81,2.6706,6.5786,2.7522,7.6148
8,5,0,0,16.144,16144,-1.3900,10.7300,4.1400,11.5847,1.0701,0.1669,0.9970,9.06,70.13,40.06,2.1355,7.1256,2.9351,7.9969
8,5,0,0,16.269,16269,-1.6600,9.3900,4.5400,10.5612,1.1530,0.7843,1.3766,-0.31,61.94,48.56,1.6354,7.4240,3.1466,8.2275
8,5,0,0,16.390,16390,0.7500,7.4400,5.0200,9.0065,0.9196,1.4868,1.9395,-14.56,54.88,55.31,1.5187,7.4261,3.3935,8.3048
8,6,0,0,16.512,16512,3.6000,5.9800,4.2900,8.1930,0.2989,2.1162,1.4104,-31.38,52.25,60.44,1.7930,7.2356,3.5116,8.2401
8,6,0,0,16.632,16632,6.6300,5.9800,3.0000,9.4190,0.2214,2.0279,1.9646,-47.63,56.06,63.38,2.4304,7.0701,3.4442,8.2314
8,6,0,0,16.754,16754,9.6300,3.4200,2.3300,10.4815,0.5792,0.8530,2.3518,-66.38,48.63,74.63,3.3791,6.5891,3.2974,8.1060
8,6,0,0,16.875,16875,8.1500,0.8700,1.6000,8.3510,0.4047,0.5989,2.1806,-77.75,11.75,86.13,4.0078,5.8355,3.0737,7.7177
8,6,0,0,16.998,16998,8.5200,-1.3700,0.9000,8.6762,0.4342,1.1574,1.3908,-78.88,-58.69,95.88,4.6024,4.8860,2.7873,7.2680
8,6,0,0,17.162,17162,9.0400,-3.1600,-0.3800,9.5839,0.2825,0.1909,1.0625,-68.88,-96.56,106.44,5.1871,3.8257,2.3699,6.8672
8,6,0,0,17.283,17283,8.3900,-3.8100,-0.8300,9.2519,0.5967,-0.2880,0.4167,-64.13,-96.25,108.06,5.6092,2.8195,1.9482,6.5733
8,6,0,0,17.404,17404,7.7800,-5.1300,-0.8200,9.3551,0.3632,-0.2989,0.1145,-63.06,-95.75,104.88,5.8952,1.7720,1.5834,6.3562
8,6,0,0,17.525,17525,8.6400,-4.2400,-1.5000,9.7405,-0.3043,-0.4429,-0.6501,-64.13,-92.06,102.94,6.2569,0.9798,1.1771,6.4416
8,6,0,0,17.647,17647,8.8000,-3.0400,0.4500,9.3212,-0.5051,-0.7549,-1.2479,-70.56,-77.56,97.25,6.5920,0.4501,1.0813,6.6953
8,6,0,0,17.770,17770,9.3000,-1.4700,2.3600,9.7067,-0.7429,-0.8628,-1.3221,-75.69,-43.75,90.94,6.9489,0.1970,1.2498,7.0631
8,6,0,0,17.892,17892,9.1400,1.0400,2.9800,9.6696,-0.7167,-1.3701,-1.0756,-71.56,-2.38,86.63,7.2376,0.3081,1.4778,7.3934
8,6,0,0,18.015,18015,8.4000,1.3900,4.2800,9.5295,-0.3949,-1.7704,-0.9239,-59.63,12.50,83.00,7.3908,0.4507,1.8471,7.6314
8,6,0,0,18.177,18177,4.9600,3.0200,5.8800,8.2642,-0.4298,-1.2174,-1.0047,-42.69,23.25,75.63,7.0705,0.7893,2.3785,7.5015
8,6,0,0,18.299,18299,4.8400,3.1800,6.7900,8.9242,-0.9261,-0.4985,-0.3523,-36.44,27.94,74.94,6.7766,1.1043,2.9598,7.4767
8,6,0,0,18.420,18420,4.1500,5.9300,6.0700,9.4463,-1.4726,0.1844,-0.9228,-32.69,39.50,72.81,6.4304,1.7402,3.3697,7.4655
8,6,0,0,18.541,18541,5.5600,7.3500,5.3100,10.6364,-1.0450,0.3938,-0.4102,-31.81,50.75,71.06,6.3157,2.4794,3.6254,7.6928
8,6,0,0,18.667,18667,4.3800,8.6100,4.3100,10.5779,-0.9218,-0.1374,-1.2403,-27.25,59.56,67.00,6.0607,3.2873,3.7156,7.8322
8,6,0,0,18.788,18788,3.3900,9.2500,3.8800,10.5882,-0.5280,-0.2018,-0.9272,-19.94,65.38,61.88,5.7087,4.0730,3.7372,7.9464
8,6,0,0,18.909,18909,2.1400,8.9200,2.8800,9.6146,-0.6458,-0.3447,-0.7756,-14.13,69.44,58.00,5.2385,4.7117,3.6243,7.9232
8,6,0,0,19.029,19029,1.2100,10.4300,2.7200,10.8465,-0.6207,-0.5749,-1.2010,-6.94,73.63,54.44,4.7076,5.4652,3.5051,8.0198
8,6,0,0,19.192,19192,-0.4600,9.6900,2.4000,9.9934,-0.1974,-0.5792,-0.6589,2.50,76.94,50.13,4.0267,6.0220,3.3595,7.9852
8,6,0,0,19.312,19312,-1.4800,10.0100,2.1100,10.3365,-0.2574,-0.6698,-1.0145,8.75,78.69,47.88,3.3010,6.5475,3.1948,7.9983
8,6,0,0,19.434,19434,-3.3000,10.9200,2.7300,11.7298,-0.0513,-0.2193,-0.6152,15.56,80.25,44.00,2.4312,7.1237,3.1336,8.1533
8,6,0,0,19.559,19559,-2.6100,11.1200,3.4100,11.9203,0.1713,0.6501,0.3883,15.44,78.88,42.56,1.7669,7.6503,3.1700,8.4674
8,6,0,0,19.681,19681,-1.0400,10.7600,2.8800,11.1872,0.5443,1.3995,1.2326,7.75,74.44,42.81,1.3970,8.0601,3.1318,8.7592
8,6,0,0,19.802,19802,0.4600,10.6800,2.8300,11.0582,0.9916,1.2992,1.9340,-5.81,69.25,47.50,1.2735,8.4053,3.0920,9.0461
8,6,0,0,19.923,19923,3.6700,8.3300,3.9500,9.9227,1.5904,0.7418,2.1762,-21.56,59.94,55.50,1.5893,8.3954,3.2051,9.1258
8,6,0,0,20.043,20043,4.7300,6.8100,4.9200,9.6413,1.2010,0.1462,1.2926,-32.31,47.88,63.31,2.0032,8.1865,3.4311,9.0996
8,6,0,0,20.206,20206,5.6100,5.0400,5.3300,9.2349,0.8508,0.7003,1.5228,-42.13,34.75,69.50,2.4785,7.7718,3.6813,8.9497
8,6,0,0,20.332,20332,6.9900,2.1300,4.6500,8.6614,0.8247,0.9305,1.6002,-53.13,20.50,77.06,3.0730,7.0284,3.8089,8.5644
8,6,0,0,20.453,20453,7.5900,0.3600,4.0900,8.6294,0.4483,0.7996,1.4181,-60.75,4.50,84.00,3.6682,6.1497,3.8460,8.1281
8,6,0,0,20.574,20574,9.1400,-1.4000,4.2200,10.1641,0.4265,0.2433,1.5599,-63.00,-17.94,92.25,4.3892,5.1548,3.8953,7.8109
8,6,0,0,20.696,20696,8.2500,-2.2600,4.1400,9.5031,0.4832,-0.3120,0.8498,-58.69,-33.38,98.38,4.8980,4.1777,3.9275,7.5412
8,6,0,0,20.817,20817,6.9100,-3.2600,3.5800,8.4375,0.5923,0.0829,0.3982,-55.81,-40.94,99.50,5.1631,3.1976,3.8817,7.2077
8,6,0,0,20.937,20937,6.9800,-4.8700,3.6300,9.2528,-0.1080,0.1767,0.4723,-54.50,-47.00,101.69,5.4025,2.1345,3.8486,6.9681
8,6,0,0,21.061,21061,7.2600,-3.8300,3.3800,8.8770,-0.5192,0.4527,-0.2727,-54.19,-48.25,105.31,5.6473,1.3486,3.7868,6.9319
8,7,0,0,21.225,21225,8.0900,-2.9000,3.1100,9.1395,-0.6883,0.7821,-0.3622,-62.38,-45.13,106.13,5.9692,0.7887,3.6976,7.0658
8,7,0,0,21.346,21346,8.9700,-1.3000,2.7800,9.4805,-0.3556,0.5454,-0.8672,-68.13,-41.50,106.19,6.3646,0.5135,3.5767,7.3188
8,7,0,0,21.467,21467,8.9000,-0.8200,2.2700,9.2215,-0.2007,0.4309,-0.9610,-74.63,-28.69,100.81,6.6987,0.3377,3.4045,7.5218
8,7,0,0,21.588,21588,8.6200,0.6000,1.4800,8.7667,-0.3731,0.6785,-1.1792,-79.69,-1.81,96.25,6.9519,0.3723,3.1509,7.6417
8,7,0,0,21.709,21709,8.6500,2.5600,0.2800,9.0252,-0.4985,1.2730,-1.2610,-80.69,69.19,89.88,7.1757,0.6606,2.7726,7.7210
8,7,0,0,21.830,21830,9.2200,3.5900,-1.1500,9.9609,-0.2771,1.0352,-0.8454,-73.75,109.13,84.94,7.4451,1.0466,2.2557,7.8494
8,7,0,0,21.953,21953,8.5100,4.8100,-1.6700,9.9169,0.2247,0.3916,-1.4006,-65.25,113.25,75.94,7.5854,1.5425,1.7384,7.9334
8,7,0,0,22.078,22078,7.6500,6.1100,-1.5600,9.9140,0.6610,-0.0851,-1.8577,-54.00,104.94,61.88,7.5939,2.1444,1.3037,7.9978
8,7,0,0,22.240,22240,5.5000,8.3800,-0.6500,10.0447,0.4058,-0.7625,-2.1282,-37.13,91.88,43.19,7.3180,2.9661,1.0463,7.9653
8,7,0,0,22.361,22361,3.7800,9.9100,0.0500,10.6066,0.4342,-0.7429,-1.9133,-23.00,86.56,32.00,6.8518,3.8811,0.9150,7.9276
8,7,0,0,22.481,22481,2.4400,10.1200,1.1000,10.4680,0.5247,-1.1203,-1.5588,-11.44,81.50,25.56,6.2704,4.7032,0.9394,7.8944
8,7,0,0,22.602,22602,-0.5400,10.2200,1.7900,10.3896,0.1407,-1.1781,-1.4192,0.25,78.69,21.50,5.3730,5.4302,1.0515,7.7111
8,7,0,0,22.723,22723,-1.4100,10.4400,2.2000,10.7620,-0.0818,-0.4222,-0.3196,6.56,78.94,20.50,4.4791,6.0904,1.2028,7.6552
8,7,0,0,22.844,22844,-0.5000,10.5700,2.2200,10.8122,-0.1036,0.0229,0.1309,7.00,79.81,20.63,3.8230,6.6807,1.3369,7.8124
8,7,0,0,22.968,22968,-0.3800,11.1000,2.0300,11.2905,0.2422,0.0120,0.4243,4.25,79.31,23.19,3.2692,7.2630,1.4282,8.0919
8,7,0,0,23.091,23091,0.7800,11.7500,2.2100,11.9814,1.1912,-0.5487,1.4443,-0.88,74.31,31.81,2.9412,7.8543,1.5312,8.5256
8,7,0,0,23.253,23253,0.9600,9.0900,5.0100,10.4235,1.2894,-0.5149,0.9076,-9.88,59.63,52.69,2.6801,8.0171,1.9896,8.6842
8,7,0,0,23.375,23375,0.8400,8.5400,5.0800,9.9721,0.9621,0.6567,1.6788,-16.88,52.06,58.75,2.4376,8.0860,2.3969,8.7790
8,7,0,0,23.496,23496,4.5400,6.2400,5.5600,9.5112,1.2272,0.6141,2.1326,-30.44,42.06,68.63,2.7147,7.8428,2.8137,8.7633
8,7,0,0,23.622,23622,4.4100,3.6500,5.5400,7.9663,0.7374,0.2803,1.3515,-39.00,30.44,77.13,2.9381,7.2903,3.1729,8.4763
8,7,0,0,23.744,23744,6.2800,1.8300,6.3600,9.1234,0.2258,0.5367,0.5040,-45.56,21.50,82.69,3.3784,6.5707,3.5929,8.2157
8,7,0,0,23.864,23864,7.1300,3.3000,5.4600,9.5676,0.0938,0.5672,0.7909,-50.00,20.13,85.31,3.8728,6.1397,3.8390,8.2117
8,7,0,0,23.986,23986,8.5100,1.2600,5.3700,10.1412,0.6698,0.3382,1.2708,-55.13,7.38,91.50,4.4839,5.4967,4.0407,8.1637
8,7,0,0,24.106,24106,7.2500,-0.7400,4.9800,8.8267,0.4985,0.4985,1.1257,-57.63,-8.19,97.00,4.8484,4.6749,4.1645,7.9186
8,7,0,0,24.269,24269,8.8800,-1.8700,4.4100,10.0896,0.0098,0.6120,0.7767,-60.38,-26.88,105.31,5.3796,3.8124,4.1968,7.8159
8,7,0,0,24.395,24395,8.6500,-2.2300,3.4500,9.5759,0.0742,0.3327,0.9567,-60.00,-38.13,111.31,5.8106,3.0162,4.0984,7.7238
8,7,0,0,24.516,24516,8.7700,-3.1200,3.6200,9.9876,-0.0033,-0.0033,0.6207,-56.75,-46.94,117.13,6.2006,2.2076,4.0354,7.7204
8,7,0,0,24.636,24636,7.3600,-4.0800,3.6600,9.1767,0.0611,0.0960,0.8421,-53.56,-51.44,121.50,6.3533,1.3791,3.9859,7.6259
8,7,0,0,24.757,24757,6.1300,-5.9200,3.7500,9.3105,-0.2138,0.1876,0.6490,-49.56,-56.00,125.88,6.3239,0.4172,3.9548,7.4704
8,7,0,0,24.879,24879,6.4200,-5.0100,3.4800,8.8559,-0.4800,0.7538,-0.9676,-51.81,-55.75,127.56,6.3366,-0.2979,3.8923,7.4425
8,8,0,0,25.000,25000,8.9900,-1.8000,2.5100,9.5058,-0.6720,0.9741,-1.6057,-63.88,-49.81,122.00,6.6862,-0.4959,3.7101,7.6627
8,8,0,0,25.120,25120,9.1700,-1.5900,2.2600,9.5773,-0.3294,0.3742,0.0011,-71.13,-45.31,118.94,7.0135,-0.6401,3.5190,7.8729
8,8,0,0,25.287,25287,9.3400,-0.6800,1.8800,9.5516,-0.0764,0.3000,-1.2457,-74.44,-40.94,115.94,7.3201,-0.6453,3.3030,8.0567
8,8,0,0,25.409,25409,8.6300,0.5100,1.3200,8.7453,-0.1091,0.6272,-1.3166,-81.88,5.13,103.75,7.4927,-0.4931,3.0417,8.1016
8,8,0,0,25.529,25529,9.2100,2.7200,0.4400,9.6133,-0.1058,0.6610,-1.3832,-80.19,67.06,95.25,7.7190,-0.0697,2.6989,8.1775
8,8,0,0,25.650,25650,8.7400,3.0200,-0.1100,9.2477,-0.1549,0.6185,-1.1323,-71.75,92.44,85.56,7.8535,0.3375,2.3287,8.1985
8,8,0,0,25.772,25772,9.0400,5.2000,-1.2100,10.4988,-0.4374,0.5552,-1.0788,-65.13,101.69,80.06,8.0099,0.9782,1.8624,8.2815
8,8,0,0,25.893,25893,7.4200,5.9400,-2.0900,9.7318,-0.4669,0.8868,-1.0232,-55.69,109.50,72.06,7.9322,1.6321,1.3416,8.2087
8,8,0,0,26.014,26014,7.4600,6.4700,-2.6300,10.2191,-0.1756,0.4658,-0.3054,-51.19,115.75,68.19,7.8699,2.2696,0.8182,8.2314
8,8,0,0,26.134,26134,6.4000,7.0400,-2.7000,9.8900,0.3840,0.0993,-1.7606,-44.38,113.50,60.00,7.6762,2.8982,0.3546,8.2128
8,8,0,0,26.301,26301,3.0400,8.5300,-1.8000,9.2327,0.5607,-0.1233,-2.6878,-23.50,103.63,35.44,7.0653,3.6403,0.0707,7.9483
8,8,0,0,26.422,26422,0.1500,10.8200,-2.2600,11.0545,0.1178,-0.0600,-3.3369,-1.31,100.00,13.00,6.1540,4.5864,-0.2364,7.6788
8,8,0,0,26.543,26543,-2.6000,11.0800,-2.1000,11.5731,-0.0284,-0.0600,-0.9239,13.25,100.38,358.44,5.0005,5.4421,-0.4820,7.4063
8,8,0,0,26.664,26664,-1.5500,10.5100,-1.6500,10.7511,0.2378,0.0818,0.4909,12.13,99.63,359.69,4.1373,6.1099,-0.6359,7.4063
8,8,0,0,26.785,26785,-1.4400,11.4000,-1.5100,11.5894,0.3316,-0.1374,0.1298,10.88,97.69,1.31,3.4024,6.8070,-0.7511,7.6469
8,8,0,0,26.906,26906,-0.3000,11.4300,-1.2900,11.5065,1.1366,-0.6436,1.8980,3.31,93.44,12.31,2.9145,7.4162,-0.8221,8.0106
8,8,0,0,27.027,27027,1.0600,9.6400,0.3500,9.7044,1.4704,-1.1803,1.6133,-8.63,83.56,32.50,2.6701,7.7093,-0.6677,8.1858
8,8,0,0,27.153,27153,1.5500,9.6300,2.1500,9.9881,1.3057,-1.3701,1.3014,-16.63,71.63,49.00,2.5225,7.9624,-0.2964,8.3576
8,8,0,0,27.315,27315,3.6200,7.3800,4.4300,9.3378,2.0704,-1.9853,0.8094,-19.00,51.56,63.88,2.6671,7.8856,0.3265,8.3309
8,8,0,0,27.436,27436,-0.3700,5.2600,7.9500,9.5398,1.1225,-0.8868,0.2923,-13.06,36.81,69.13,2.2669,7.5396,1.3310,7.9848
8,8,0,0,27.558,27558,2.4900,5.9800,8.0500,10.3326,0.6523,0.8639,1.2861,-17.19,31.69,72.81,2.2963,7.3341,2.2164,7.9984
8,8,0,0,27.679,27679,4.6000,4.5400,8.4400,10.6304,0.5487,0.5541,1.7617,-26.75,24.25,81.94,2.5999,6.9659,3.0365,8.0314
8,8,0,0,27.800,27800,3.0400,1.6100,6.8300,7.6474,0.8421,0.8956,1.8162,-34.31,15.00,90.81,2.6579,6.2601,3.5364,7.6655
8,8,0,0,27.921,27921,6.0200,-0.1200,6.6300,8.9561,0.1887,1.6897,1.5283,-44.81,3.31,100.31,3.1009,5.4194,3.9441,7.3852
8,8,0,0,28.047,28047,8.5400,0.0900,4.2000,9.5173,0.1244,1.7497,1.4606,-56.63,-8.25,109.25,3.8176,4.7171,3.9778,7.2559
8,8,0,0,28.168,28168,9.4500,-2.1400,3.6600,10.3575,0.5792,0.8192,1.5730,-61.31,-35.00,119.69,4.5598,3.8135,3.9359,7.1293
8,8,0,0,28.329,28329,7.2700,-3.3600,3.1200,8.5952,0.0305,0.2083,0.8061,-56.44,-52.19,129.06,4.9170,2.8682,3.8284,6.8600
8,8,0,0,28.450,28450,7.5900,-4.8700,3.1100,9.5392,0.1004,0.5454,0.5312,-54.38,-60.06,133.94,5.2692,1.8485,3.7337,6.7173
8,8,0,0,28.571,28571,7.5500,-4.5900,2.2600,9.1202,-0.1429,0.6381,0.5367,-52.75,-66.69,139.75,5.5698,1.0001,3.5395,6.6746
8,8,0,0,28.692,28692,7.1900,-5.5500,1.6600,9.2333,-0.0960,0.5269,0.4287,-51.06,-72.00,145.44,5.7833,0.1370,3.2919,6.6559
8,9,0,0,28.813,28813,7.5600,-5.0800,1.6400,9.2547,-0.2563,0.4756,-0.5291,-52.00,-74.69,148.19,6.0174,-0.5505,3.0742,6.7796
8,9,0,0,28.938,28938,8.3300,-3.9200,1.6300,9.3494,0.1571,0.0949,-1.0450,-58.69,-74.00,142.94,6.3221,-0.9945,2.8839,7.0196
8,9,0,0,29.060,29060,8.4400,-3.2900,1.5500,9.1902,-0.0240,-0.0240,-0.6654,-63.81,-70.56,137.00,6.6012,-1.2970,2.7081,7.2520
8,9,0,0,29.181,29181,8.0500,-2.3500,1.0000,8.4454,0.1353,0.4232,-1.2326,-71.00,-68.06,127.38,6.7921,-1.4358,2.4830,7.3729
8,9,0,0,29.343,29343,7.6400,-0.1700,0.3900,7.6518,-0.1604,0.7189,-1.3974,-81.88,-74.63,116.25,6.9039,-1.2690,2.2072,7.3584
8,9,0,0,29.465,29465,7.0800,3.1600,-1.4400,7.8858,0.0513,1.9199,-2.9987,-80.44,130.56,100.19,6.9271,-0.6853,1.7266,7.1718
8,9,0,0,29.591,29591,6.1100,6.4300,-5.0500,10.2068,-0.3065,2.8231,-2.0300,-54.69,132.25,75.13,6.8194,0.2523,0.8336,6.8748
8,9,0,0,29.713,29713,9.1500,7.4600,-6.4500,13.4528,0.7265,0.9108,-0.6043,-40.31,138.00,54.69,7.1265,1.2021,-0.1262,7.2283
8,9,0,0,29.833,29833,5.6500,7.9600,-5.3700,11.1410,1.6952,-0.5716,-2.8765,-31.06,123.44,32.38,6.9319,2.0926,-0.8172,7.2869
8,9,0,0,29.954,29954,3.1300,9.4300,-3.3100,10.4727,1.7246,-0.7636,-2.5002,-15.31,105.94,11.00,6.4309,3.0595,-1.1457,7.2132
8,9,0,0,30.076,30076,1.6000,10.4600,-1.8800,10.7474,0.8007,-1.2523,-1.0068,-5.56,96.06,6.19,5.7944,4.0347,-1.2424,7.1692
8,9,0,0,30.197,30197,-0.0100,11.0200,-1.1800,11.0830,0.3283,-0.5967,-0.3742,-2.31,92.44,9.44,5.0295,4.9552,-1.2342,7.1675
8,9,0,0,30.364,30364,1.0100,10.3200,-0.2400,10.3721,-0.0644,0.0436,1.2752,-5.69,91.25,13.50,4.4998,5.6621,-1.1032,7.3161
8,9,0,0,30.485,30485,2.2000,10.2200,-0.3100,10.4587,0.1211,-0.2182,0.8639,-14.56,91.25,22.94,4.1968,6.2627,-0.9987,7.6047
8,9,0,0,30.605,30605,2.6300,10.3300,0.0900,10.6599,0.4854,-0.4309,0.7363,-18.00,88.69,28.00,3.9903,6.7987,-0.8552,7.9294
8,9,0,0,30.726,30726,4.5400,9.9400,0.6200,10.9453,0.3502,-0.3382,1.5708,-25.44,84.75,38.38,4.0627,7.2126,-0.6608,8.3045
8,9,0,0,30.847,30847,6.4400,8.8400,1.1000,10.9922,0.5356,-0.6185,1.9570,-37.38,78.63,52.94,4.3760,7.4271,-0.4288,8.6310
8,9,0,0,30.969,30969,6.6100,7.5400,1.9300,10.2112,0.8727,-0.9916,2.0791,-48.25,65.69,66.88,4.6704,7.4420,-0.1180,8.7869
8,9,0,0,31.089,31089,7.0100,4.9600,4.0400,9.4902,0.9774,-0.9676,1.8653,-54.75,41.56,79.19,4.9787,7.1149,0.4300,8.6945
8,9,0,0,31.215,31215,6.6300,1.3600,4.4700,8.1109,0.6927,-0.1833,2.0737,-57.88,17.94,88.81,5.1963,6.3566,0.9623,8.2664
8,9,0,0,31.377,31377,8.1600,-0.3100,4.4200,9.2854,0.4069,0.3512,1.2566,-60.25,-14.13,102.69,5.5868,5.4781,1.4180,7.9519
8,9,0,0,31.498,31498,8.0700,-1.8800,4.4800,9.4196,-0.1582,0.2782,1.2774,-58.69,-29.69,110.88,5.9140,4.5085,1.8215,7.6564
8,9,0,0,31.619,31619,7.8600,-2.5200,4.1000,9.2163,0.1516,0.3403,0.8934,-56.13,-40.88,118.56,6.1705,3.5823,2.1217,7.4437
8,9,0,0,31.740,31740,7.6300,-3.7300,3.6800,9.2559,0.2825,0.2989,0.7069,-54.63,-49.44,122.00,6.3628,2.6187,2.3271,7.2635
8,9,0,0,31.862,31862,7.5400,-4.3800,2.9200,9.1958,0.1647,0.0229,0.9730,-50.38,-56.75,126.50,6.5179,1.6965,2.4052,7.1517
8,9,0,0,31.984,31984,6.4100,-5.7600,2.8200,9.0674,0.1309,-0.2247,0.3643,-45.56,-60.19,129.25,6.5037,0.7139,2.4599,6.9899
8,9,0,0,32.109,32109,6.3900,-5.0600,2.9900,8.6819,-0.1734,-0.2487,-0.7843,-46.44,-57.75,126.63,6.4887,-0.0470,2.5297,6.9646
8,10,0,0,32.231,32231,7.3600,-3.7400,3.6100,9.0105,-0.0862,0.0894,-1.0952,-52.19,-51.06,118.88,6.6035,-0.5336,2.6721,7.1436
8,10,0,0,32.393,32393,7.8200,-3.0000,3.3900,9.0357,-0.4123,0.5520,-0.4123,-59.00,-46.19,114.06,6.7638,-0.8586,2.7667,7.3581
8,10,0,0,32.513,32513,8.2400,-1.9300,2.5100,8.8274,-0.4723,0.9523,-0.5269,-64.56,-46.44,114.56,6.9584,-0.9998,2.7328,7.5423
8,10,0,0,32.634,32634,9.8400,-0.5300,1.5700,9.9785,-0.2683,1.0472,-0.8792,-73.13,-47.56,112.31,7.3381,-0.9379,2.5796,7.8346
8,10,0,0,32.759,32759,9.8400,-0.4000,1.0100,9.8998,-0.1036,0.6065,-0.6545,-80.81,-48.75,108.38,7.6678,-0.8670,2.3728,8.0732
8,10,0,0,32.880,32880,8.6100,0.9400,0.5600,8.6792,-0.1014,0.4843,-1.3232,-87.06,0.00,102.31,7.7919,-0.6289,2.1339,8.1033
8,10,0,0,33.003,33003,8.2100,2.8300,-0.5300,8.7002,-0.0295,0.9523,-1.7017,-78.56,102.88,91.19,7.8470,-0.1731,1.7829,8.0489
8,10,0,0,33.124,33124,8.1600,5.3100,-2.1200,9.9637,0.0262,1.0407,-1.7748,-64.88,112.13,77.06,7.8883,0.5494,1.2686,8.0085
8,10,0,0,33.244,33244,7.5300,6.4800,-2.7200,10.3000,0.0425,0.6196,-1.5763,-52.94,114.06,63.19,7.8411,1.3309,0.7430,7.9878
8,10,0,0,33.407,33407,5.3400,9.0300,-2.8100,10.8606,0.5061,-0.0207,-2.7631,-33.63,106.75,39.69,7.5115,2.3455,0.2748,7.8739
8,10,0,0,33.528,33528,3.2400,11.0900,-2.4100,11.8023,1.0428,-0.6807,-2.8820,-15.00,98.81,20.44,6.9486,3.4978,-0.0790,7.7797
8,10,0,0,33.654,33654,1.4400,10.6300,-0.5900,10.7433,1.3352,-1.3570,-1.2294,-2.31,89.19,13.31,6.2227,4.4376,-0.1463,7.6443
8,10,0,0,33.775,33775,-0.7900,9.5400,0.9800,9.6227,0.4200,-1.1039,-0.5040,3.88,82.63,16.94,5.2986,5.1100,0.0021,7.3612
8,10,0,0,33.896,33896,-1.8200,10.1400,1.0700,10.3575,-0.1451,-0.1342,0.3022,5.13,82.88,19.56,4.3606,5.7728,0.1428,7.2360
8,10,0,0,34.018,34018,-0.5200,10.4800,1.2100,10.5624,0.0698,0.2520,0.4669,2.38,83.31,21.31,3.7174,6.3931,0.2834,7.4008
8,10,0,0,34.139,34139,0.1100,10.8100,1.4300,10.9047,0.7341,0.0218,0.3862,-0.19,80.88,23.19,3.2421,6.9751,0.4345,7.7040
8,10,0,0,34.259,34259,0.6400,9.0500,2.3400,9.3695,0.9490,0.0884,0.7767,-4.31,74.38,29.75,2.8992,7.2485,0.6856,7.8369
8,10,0,0,34.427,34427,1.4100,11.1000,2.9300,11.5665,0.6665,0.1025,0.6087,-9.25,68.44,36.75,2.7029,7.7561,0.9814,8.2720
8,10,0,0,34.548,34548,3.2200,8.6500,4.9500,10.4735,1.3461,-0.0349,1.6744,-17.31,59.25,46.06,2.7711,7.8739,1.5043,8.4817
8,10,0,0,34.668,34668,3.5200,8.4900,4.9900,10.4580,0.6785,0.0742,1.6188,-26.81,50.56,57.00,2.8698,7.9551,1.9637,8.6818
8,10,0,0,34.790,34790,4.5200,5.8600,5.0600,8.9651,1.0068,0.7243,1.9689,-36.81,41.63,64.88,3.0872,7.6790,2.3717,8.6094
8,10,0,0,34.910,34910,7.0000,3.3000,5.0600,9.2463,0.6272,0.3916,1.9940,-48.06,27.13,75.63,3.6028,7.1019,2.7259,8.4172
8,10,0,0,35.032,35032,7.2200,1.9700,5.4200,9.2404,0.5171,0.0109,1.3788,-52.69,11.25,84.88,4.0795,6.4257,3.0809,8.2112
8,10,0,0,35.158,35158,7.3400,0.3000,5.5300,9.1949,0.5618,0.1724,1.0516,-53.88,-2.56,90.75,4.5091,5.6185,3.4037,7.9677
8,10,0,0,35.280,35280,8.0300,-1.3700,5.2800,9.7075,0.5574,-0.0425,1.2195,-53.19,-18.50,97.44,4.9731,4.6976,3.6509,7.7542
8,10,0,0,35.443,35443,6.7800,-2.9100,5.3700,9.1254,0.5345,-0.6927,0.4047,-46.81,-29.44,102.25,5.2112,3.6951,3.8774,7.4729
8,10,0,0,35.563,35563,6.6100,-2.9400,6.1100,9.4693,0.5258,-0.6698,0.1844,-41.94,-31.69,101.31,5.3955,2.8208,4.1716,7.3804
8,10,0,0,35.685,35685,5.9700,-3.7000,6.5000,9.5698,0.5258,-0.2727,0.2913,-38.31,-34.69,100.25,5.4712,1.9615,4.4785,7.3375
8,10,0,0,35.811,35811,5.8000,-4.2300,6.2700,9.5313,0.3469,0.3218,0.2651,-37.94,-38.75,100.13,5.5145,1.1456,4.7145,7.3450
8,10,0,0,35.932,35932,6.1600,-4.6300,5.7100,9.5910,0.1854,0.2509,0.5825,-37.56,-43.63,103.44,5.5996,0.3845,4.8457,7.4151
8,10,0,0,36.053,36053,5.4700,-6.1000,4.7200,9.4556,0.0535,0.2989,0.5181,-35.69,-47.75,107.50,5.5825,-0.4700,4.8291,7.3964
8,10,0,0,36.175,36175,5.6800,-4.8800,5.3400,9.1974,-0.4331,0.6010,-0.3567,-38.13,-47.31,108.63,5.5954,-1.0511,4.8965,7.5092
8,10,0,0,36.296,36296,6.1500,-5.0700,4.6300,9.2176,-0.4483,1.2054,0.4156,-41.81,-48.63,112.31,5.6685,-1.5807,4.8614,7.6330
8,10,0,0,36.463,36463,5.5000,-5.3300,2.7900,8.1513,-1.3635,1.6995,-0.4461,-49.50,-52.13,121.44,5.6463,-2.0747,4.5884,7.5656
