participant,rep,equipment_code,exercise_code,timestamp,timestamp_ms,accelX,accelY,accelZ,accelMag,gyroX,gyroY,gyroZ,roll,pitch,yaw,filteredX,filteredY,filteredZ,filteredMag
8,1,0,0,00.000,0,0.0300,9.7700,0.0600,9.7702,-0.0774,-0.0480,0.0098,-0.56,89.50,83.50,0.2193,9.8025,0.0104,9.8050
8,1,0,0,00.163,163,0.0500,9.9000,0.0100,9.9001,0.0131,0.0240,0.0153,-0.81,89.88,83.69,0.1970,9.8154,0.0103,9.8173
8,1,0,0,00.283,283,0.1700,9.8000,0.0600,9.8017,0.0229,0.0415,0.0338,-1.06,89.75,83.69,0.1934,9.8133,0.0169,9.8153
8,1,0,0,00.404,404,0.2500,9.7700,0.0700,9.7734,0.0153,-0.0033,-0.0218,-1.13,89.63,83.56,0.2009,9.8076,0.0239,9.8097
8,1,0,0,00.526,526,0.2400,9.6200,0.0800,9.6233,0.0000,-0.0425,0.0218,-1.06,89.56,83.75,0.2060,9.7829,0.0313,9.7851
8,1,0,0,00.652,652,0.2300,9.8900,-0.0700,9.8929,-0.0611,-0.0338,0.0425,-1.19,89.81,84.19,0.2092,9.7970,0.0179,9.7993
8,1,0,0,00.773,773,0.0800,10.0300,-0.0300,10.0304,0.0120,0.0000,0.0360,-1.31,90.00,84.38,0.1922,9.8277,0.0116,9.8296
8,1,0,0,00.894,894,-0.0800,11.2800,0.0300,11.2803,0.3447,0.1036,-0.0905,-1.25,89.13,83.94,0.1563,10.0191,0.0140,10.0203
8,1,0,0,01.014,1014,-1.0300,8.9100,1.2700,9.0588,0.7658,0.2956,-0.4014,0.88,84.56,80.75,-0.0000,9.8729,0.1795,9.8746
8,1,0,0,01.177,1177,0.5200,11.1500,1.5500,11.2692,0.9054,0.6621,0.0360,0.13,79.19,75.50,0.0685,10.0412,0.3601,10.0479
8,1,0,0,01.298,1298,-0.1500,8.9100,3.5900,9.6072,1.1748,0.3807,-0.4909,1.25,71.19,70.69,0.0397,9.8922,0.7857,9.9234
8,1,0,0,01.420,1420,-0.2900,9.2500,4.1200,10.1302,0.5781,0.0185,-0.7352,4.31,65.69,65.75,-0.0037,9.8075,1.2251,9.8838
8,1,0,0,01.545,1545,-1.8200,9.0200,4.4700,10.2300,0.7221,-0.4560,-0.8825,10.25,61.38,61.50,-0.2431,9.7038,1.6527,9.8465
8,1,0,0,01.666,1666,-2.8200,7.7800,4.6800,9.5070,0.4603,-0.3643,-0.9327,17.44,56.88,57.88,-0.5826,9.4503,2.0516,9.6879
8,1,0,0,01.786,1786,-4.0600,7.6700,4.9400,9.9858,0.3927,-0.0894,-1.0570,24.00,53.13,52.19,-1.0409,9.2157,2.4322,9.5879
8,1,0,0,01.908,1908,-4.3600,6.4300,5.5500,9.5476,0.6545,-0.0491,-0.9970,29.25,47.50,46.63,-1.4782,8.8486,2.8431,9.4109
8,1,0,0,02.028,2028,-4.9400,4.7800,5.7400,8.9554,0.5443,-0.2880,-1.0996,35.06,40.81,41.31,-1.9344,8.3124,3.2248,9.1235
8,1,0,0,02.196,2196,-6.4100,4.1400,5.6200,9.4769,0.3578,-0.4843,-0.9785,43.44,33.13,34.44,-2.5242,7.7626,3.5404,8.8975
8,1,0,0,02.318,2318,-7.1200,2.6000,5.4000,9.3067,0.4691,-0.3665,-1.0537,49.56,25.44,29.75,-3.1298,7.0823,3.7855,8.6189
8,1,0,0,02.439,2439,-7.8300,1.6000,5.3300,9.6061,0.4592,-0.2051,-1.0843,53.75,14.50,24.25,-3.7492,6.3599,3.9890,8.3915
8,1,0,0,02.561,2561,-7.5700,0.0800,4.8700,9.0016,0.5051,-0.0785,-1.0199,55.56,1.81,19.31,-4.2527,5.5324,4.1051,8.0959
8,1,0,0,02.682,2682,-7.4100,-0.9200,5.2100,9.1049,0.5520,-0.1593,-0.8116,55.81,-10.25,15.13,-4.6687,4.6821,4.2507,7.8605
8,1,0,0,02.802,2802,-7.1500,-2.8500,4.4600,8.8959,0.4832,-0.4232,-1.0603,55.94,-23.63,10.63,-4.9957,3.6896,4.2783,7.5414
8,1,0,0,02.923,2923,-8.1500,-3.2300,4.0300,9.6486,0.1942,-0.4232,-0.6120,55.75,-35.31,5.50,-5.4113,2.7777,4.2456,7.4178
8,1,0,0,03.049,3049,-6.9000,-4.8000,3.2700,9.0190,0.0545,-0.1833,-0.5378,55.13,-41.56,2.13,-5.6075,1.7792,4.1170,7.1805
8,2,0,0,03.211,3211,-8.1000,-3.1800,3.2600,9.2925,-0.3371,-0.4211,0.9447,57.06,-42.56,0.31,-5.9360,1.1257,4.0041,7.2481
8,2,0,0,03.333,3333,-7.2500,-3.3600,2.8500,8.4838,-0.4952,-0.2051,0.6032,62.81,-34.06,4.38,-6.1091,0.5346,3.8520,7.2419
8,2,0,0,03.453,3453,-8.6900,0.2400,3.1600,9.2498,-0.4396,-0.1724,1.8566,66.50,-18.38,8.75,-6.4492,0.4958,3.7608,7.4821
8,2,0,0,03.575,3575,-8.0200,0.5900,2.9300,8.5588,-0.2803,-0.3076,2.0431,68.25,20.50,22.56,-6.6562,0.5082,3.6513,7.6089
8,2,0,0,03.701,3701,-7.9700,4.2600,2.3200,9.3301,-0.5498,-0.0055,1.7017,62.69,45.81,31.63,-6.8293,1.0026,3.4759,7.7283
8,2,0,0,03.823,3823,-7.6900,5.4400,2.5300,9.7535,-0.4298,0.1582,1.9035,51.31,60.88,42.81,-6.9427,1.5873,3.3513,7.8710
8,2,0,0,03.943,3943,-6.3900,8.0400,2.4100,10.5490,-0.6480,0.2749,1.4530,40.69,68.25,50.94,-6.8699,2.4376,3.2272,7.9720
8,2,0,0,04.064,4064,-5.5400,8.0900,2.0400,10.0151,-0.6578,0.2345,0.9807,32.56,73.19,56.00,-6.6947,3.1825,3.0708,8.0235
8,2,0,0,04.226,4226,-3.6700,9.4900,1.8800,10.3471,-0.5454,0.2247,0.9447,23.44,78.88,60.69,-6.2961,4.0136,2.9139,8.0150
8,2,0,0,04.350,4350,-2.6500,9.2600,1.5500,9.7556,-0.4898,0.0273,0.8170,17.88,82.06,64.69,-5.8156,4.7050,2.7341,7.9645
8,2,0,0,04.474,4474,-1.8200,10.2700,0.7900,10.4599,-0.4549,-0.1014,1.0079,10.88,86.00,71.19,-5.2891,5.4383,2.4780,7.9806
8,2,0,0,04.595,4595,-1.8000,10.3100,0.5700,10.4815,-0.0862,-0.0894,0.5683,5.81,87.69,75.94,-4.8293,6.0803,2.2265,8.0777
8,2,0,0,04.716,4716,-1.3500,10.1500,0.5000,10.2516,-0.0524,0.1745,0.1680,4.63,87.81,76.81,-4.3708,6.6166,1.9990,8.1780
8,2,0,0,04.837,4837,-0.7800,10.3400,0.4600,10.3796,0.0818,0.1331,-0.0393,4.50,87.63,74.94,-3.8977,7.1072,1.7962,8.3024
8,2,0,0,04.959,4959,-0.8400,10.8600,0.6600,10.9124,0.2520,-0.1724,-0.2127,5.38,86.56,73.63,-3.4947,7.6017,1.6465,8.5270
8,2,0,0,05.079,5079,-1.2800,9.4000,1.3600,9.5837,-0.0196,-0.5694,-0.7265,8.81,85.50,73.00,-3.2029,7.8387,1.6087,8.6193
8,2,0,0,05.241,5241,-3.3900,9.8800,-0.3300,10.4506,-0.3022,-1.1890,-1.4944,19.69,90.31,69.56,-3.2275,8.1077,1.3533,8.8308
8,2,0,0,05.367,5367,-4.9100,8.4600,-1.1000,9.8433,-0.5585,-1.1628,-1.6450,29.50,96.75,65.69,-3.4493,8.1541,1.0300,8.9133
8,2,0,0,05.488,5488,-5.9500,7.2800,-2.8100,9.8131,-0.8781,-1.1454,-2.1391,41.00,110.38,56.00,-3.7788,8.0389,0.5240,8.8982
8,2,0,0,05.608,5608,-7.6100,5.2700,-4.4900,10.2881,-0.9119,-0.8039,-1.9962,50.25,129.38,41.13,-4.2836,7.6741,-0.1367,8.7897
8,2,0,0,05.729,5729,-9.0600,4.2300,-5.3700,11.3496,-0.5552,0.0884,-1.5915,56.25,148.69,23.75,-4.9130,7.2202,-0.8264,8.7723
8,2,0,0,05.850,5850,-8.9900,2.0300,-4.5500,10.2783,-0.0894,1.2555,-1.6253,65.00,163.81,8.94,-5.4503,6.5363,-1.3170,8.6118
8,2,0,0,05.972,5972,-7.5200,-0.5300,-2.7100,8.0110,-0.1582,1.1923,-2.2144,73.69,-160.56,355.00,-5.7230,5.6051,-1.5006,8.1500
8,2,0,0,06.092,6092,-7.5400,-2.8800,-1.3900,8.1901,-0.2094,1.4508,-2.1380,67.75,-108.06,340.00,-5.9625,4.4870,-1.4860,7.6087
8,2,0,0,06.259,6259,-7.2800,-4.5300,0.2400,8.5777,0.5312,1.2305,0.1560,61.25,-80.50,339.88,-6.1361,3.2988,-1.2586,7.0794
8,2,0,0,06.381,6381,-6.8100,-5.7900,1.1400,9.0111,0.3436,0.3643,-0.1244,61.31,-75.19,346.56,-6.2249,2.1011,-0.9425,6.6372
8,2,0,0,06.501,6501,-7.3100,-4.5200,0.8400,8.6355,-0.3720,-0.0556,-0.1331,59.13,-73.88,344.38,-6.3679,1.2286,-0.7076,6.5238
8,3,0,0,06.623,6623,-8.7100,-3.9600,0.6000,9.5867,-0.1189,-0.1298,0.5531,61.25,-73.00,344.50,-6.6765,0.5449,-0.5353,6.7201
8,3,0,0,06.743,6743,-9.3800,-4.1200,1.3800,10.3375,-0.1069,0.4331,0.2629,63.69,-68.94,347.31,-7.0328,-0.0698,-0.2829,7.0388
8,3,0,0,06.864,6864,-8.6200,-3.5000,1.9400,9.5036,-0.0087,1.3199,0.3436,62.19,-56.13,350.94,-7.2419,-0.5218,0.0100,7.2607
8,3,0,0,06.985,6985,-7.5100,-3.0400,3.5000,8.8256,0.4549,1.1017,0.9392,59.69,-40.69,359.06,-7.2772,-0.8537,0.4699,7.3422
8,3,0,0,07.110,7110,-6.6200,-3.0600,3.7100,8.1824,-0.1876,0.2814,0.7232,59.44,-30.25,6.31,-7.1906,-1.1444,0.8969,7.3362
8,3,0,0,07.273,7273,-10.5900,1.1600,3.5600,11.2324,-0.5596,0.2531,1.8130,62.00,-3.19,15.06,-7.6386,-0.8407,1.2478,7.7854
8,3,0,0,07.395,7395,-7.4300,0.2900,4.7600,8.8287,0.0927,0.9927,0.5563,56.69,11.81,22.94,-7.6111,-0.6917,1.7106,7.8316
8,3,0,0,07.515,7515,-4.6100,-0.2000,5.7300,7.3570,-0.5989,0.8323,0.6610,49.56,14.38,24.06,-7.2156,-0.6269,2.2403,7.5814
8,3,0,0,07.636,7636,-5.4200,4.1300,5.7900,8.9419,-1.0581,-0.1571,2.4151,43.56,30.00,31.56,-6.9790,-0.0001,2.7080,7.4860
8,3,0,0,07.757,7757,-5.4300,7.3700,4.5100,10.2050,-0.7494,-0.3731,2.2438,34.50,48.38,47.00,-6.7749,0.9711,2.9455,7.4510
8,3,0,0,07.878,7878,-5.2500,7.3700,4.8700,10.2760,-0.5520,0.2378,0.7036,27.56,55.75,55.06,-6.5739,1.8143,3.1991,7.5328
8,3,0,0,08.000,8000,-2.7000,7.7200,3.6400,8.9520,-0.8181,0.6163,0.7810,22.31,60.19,56.13,-6.0635,2.5925,3.2572,7.3550
8,3,0,0,08.126,8126,-1.4700,9.2900,3.5100,10.0392,-0.7036,0.3403,1.6821,13.19,65.56,61.63,-5.4582,3.4751,3.2905,7.2591
8,3,0,0,08.288,8288,0.2100,10.8100,2.9800,11.2152,-0.8454,0.2236,1.3603,-0.31,73.19,73.56,-4.7112,4.4416,3.2496,7.2446
8,3,0,0,08.409,8409,0.4800,10.6500,2.5800,10.9686,-0.5618,0.0993,0.4680,-6.25,77.94,78.88,-4.0272,5.2597,3.1614,7.3401
8,3,0,0,08.529,8529,1.2500,9.9200,2.0400,10.2044,-0.3589,0.0251,0.5487,-8.75,80.56,81.44,-3.3318,5.8738,3.0136,7.3949
8,3,0,0,08.652,8652,2.0500,11.3200,1.6200,11.6176,-0.2422,-0.0436,0.4680,-12.94,82.75,85.94,-2.6226,6.5915,2.8299,7.6377
8,3,0,0,08.777,8777,1.8600,10.3100,1.8600,10.6403,0.3174,-0.3098,-0.7974,-11.44,82.00,83.00,-2.0319,7.0815,2.7021,7.8472
8,3,0,0,08.899,8899,0.5600,9.1700,2.0500,9.4130,0.2574,-0.2214,-0.7919,-5.06,79.56,75.94,-1.6904,7.3567,2.6162,7.9889
8,3,0,0,09.020,9020,0.7700,10.7600,1.7900,10.9350,0.2182,-0.4963,-0.4178,-1.56,78.19,72.88,-1.3661,7.8052,2.5073,8.3111
8,3,0,0,09.141,9141,-1.0500,9.8400,2.2300,10.1440,0.2694,-0.5127,-1.5697,5.63,76.56,68.50,-1.3245,8.0733,2.4708,8.5462
8,3,0,0,09.303,9303,-2.6400,8.4800,1.6100,9.0262,-0.4505,-0.8050,-1.6799,21.88,77.38,56.06,-1.4978,8.1269,2.3574,8.5934
8,3,0,0,09.424,9424,-4.3500,7.7200,0.2100,8.8637,-0.5989,-1.4094,-1.5283,33.56,84.38,50.00,-1.8737,8.0733,2.0744,8.5435
8,3,0,0,09.545,9545,-6.6100,6.6800,-0.9500,9.4455,-0.8094,-1.1432,-1.3712,43.19,95.94,44.25,-2.4978,7.8897,1.6758,8.4436
8,3,0,0,09.671,9671,-7.8600,6.2100,-2.4500,10.3124,-0.8683,-0.5421,-1.3832,51.25,110.31,33.88,-3.2044,7.6684,1.1322,8.3877
8,3,0,0,09.792,9792,-9.3600,5.5400,-3.4500,11.4107,-0.1124,0.1833,-0.8738,57.88,120.75,22.81,-4.0156,7.3879,0.5284,8.4252
8,3,0,0,09.913,9913,-8.9300,4.4200,-2.4200,10.2537,0.2869,1.0516,-0.6960,64.63,116.38,16.44,-4.6632,6.9968,0.1398,8.4095
8,3,0,0,10.034,10034,-7.4300,2.7300,-0.0400,7.9158,0.2967,1.3090,-0.9327,71.88,98.94,10.63,-5.0278,6.4345,0.1161,8.1667
8,3,0,0,10.157,10157,-8.9900,3.2000,0.5800,9.5602,0.8159,1.2959,0.0305,74.50,61.63,7.31,-5.5499,6.0083,0.1773,8.1812
8,3,0,0,10.323,10323,-7.6300,1.5700,1.7700,7.9884,0.0873,-0.5192,0.4603,66.81,62.94,19.88,-5.8240,5.4235,0.3871,7.9676
8,3,0,0,10.444,10444,-9.7900,2.7800,1.0900,10.2353,-0.2291,-0.1767,-1.7748,75.38,59.63,10.75,-6.3466,5.0751,0.4798,8.1404
8,3,0,0,10.565,10565,-9.6800,1.0200,0.8600,9.7715,0.2574,0.1920,-0.4756,80.63,33.75,3.69,-6.7859,4.5408,0.5299,8.1821
8,3,0,0,10.686,10686,-8.6400,-0.3600,0.8500,8.6892,0.3360,-0.0240,-0.3272,80.75,22.50,5.19,-7.0302,3.8950,0.5721,8.0574
8,3,0,0,10.807,10807,-8.3500,-1.7500,1.7000,8.6991,-0.0185,0.1407,-1.2926,80.63,-18.50,0.56,-7.2041,3.1511,0.7207,7.8961
8,3,0,0,10.928,10928,-8.8000,-1.5600,1.8300,9.1226,-0.1604,0.1724,-0.9567,74.56,-47.56,351.56,-7.4144,2.5303,0.8669,7.8821
8,3,0,0,11.050,11050,-10.5900,-1.2400,1.2500,10.7354,0.5345,-0.0938,0.2247,73.31,-51.06,352.50,-7.8329,2.0335,0.9174,8.1443
8,3,0,0,11.176,11176,-8.8600,-2.9400,1.3400,9.4307,0.2771,0.0611,-1.0134,71.88,-59.75,353.88,-7.9682,1.3781,0.9730,8.1448
8,3,0,0,11.339,11339,-9.3900,-3.6200,2.1100,10.2824,-0.1778,0.5792,-0.5901,61.50,-61.88,345.13,-8.1556,0.7195,1.1229,8.2639
8,3,0,0,11.460,11460,-4.9100,-5.1900,2.6400,7.6167,0.2880,0.1767,-0.2378,58.50,-60.50,344.88,-7.7279,-0.0592,1.3228,7.8405
8,4,0,0,11.580,11580,-9.3600,-4.8500,1.5500,10.6553,-0.1440,-0.1407,0.8912,59.31,-60.31,346.69,-7.9430,-0.6905,1.3527,8.0869
8,4,0,0,11.701,11701,-8.9500,-2.3500,1.6400,9.3976,-0.0033,-0.1025,1.7061,68.50,-48.69,356.19,-8.0757,-0.9092,1.3906,8.2448
8,4,0,0,11.824,11824,-7.7200,-1.9700,3.5900,8.7388,-0.3643,0.2454,-0.0785,70.63,-38.31,359.56,-8.0288,-1.0490,1.6804,8.2696
8,4,0,0,11.949,11949,-9.2900,-1.4500,2.4500,9.7164,-0.0469,-0.2378,1.1214,73.13,-24.56,3.44,-8.1950,-1.1018,1.7818,8.4585
8,4,0,0,12.070,12070,-7.6100,-0.6900,1.7900,7.8481,-0.4963,-0.2345,0.5203,76.31,-7.69,6.88,-8.1179,-1.0476,1.7829,8.3771
8,4,0,0,12.191,12191,-8.8900,1.4400,1.0600,9.0680,-0.4167,-0.2007,2.0409,76.00,30.94,12.69,-8.2196,-0.7198,1.6876,8.4219
8,4,0,0,12.352,12352,-8.5500,6.4300,1.3600,10.7841,-0.0382,0.0818,2.5449,59.13,67.50,31.56,-8.2632,0.2224,1.6445,8.4282
8,4,0,0,12.473,12473,-6.6000,6.6700,2.0600,9.6069,-0.2934,0.0491,1.9766,44.50,74.31,46.38,-8.0440,1.0720,1.6992,8.2911
8,4,0,0,12.594,12594,-5.1600,8.7200,1.7500,10.2823,-0.3371,0.0327,1.4737,33.44,78.75,56.00,-7.6640,2.0798,1.7059,8.1223
8,4,0,0,12.716,12716,-4.3100,9.5100,1.4100,10.5359,-0.2465,0.1898,1.0068,25.88,81.25,62.25,-7.2220,3.0589,1.6669,8.0183
8,4,0,0,12.841,12841,-3.1000,10.0400,1.0100,10.5561,-0.0175,0.4003,1.3832,17.69,81.81,68.31,-6.6788,3.9789,1.5804,7.9332
8,4,0,0,12.962,12962,-1.0600,9.6300,1.4100,9.7902,0.0884,0.4952,1.0799,7.94,80.94,75.00,-5.9384,4.7235,1.5579,7.7462
8,4,0,0,13.083,13083,-0.2400,9.9600,1.8600,10.1350,-0.1505,0.3960,0.7799,1.56,80.88,76.81,-5.1875,5.4136,1.5977,7.6661
8,4,0,0,13.204,13204,0.4200,10.4700,1.5700,10.5954,-0.2094,0.0785,0.3131,-2.38,82.31,79.31,-4.4486,6.0799,1.5941,7.7004
8,4,0,0,13.367,13367,-0.0500,9.8300,1.0500,9.8860,-0.1658,-0.0447,0.0731,-2.81,83.88,79.44,-3.8690,6.5740,1.5224,7.7785
8,4,0,0,13.493,13493,0.5200,10.2500,0.8600,10.2992,0.1298,0.0360,0.1876,-4.38,84.06,79.25,-3.2906,7.0584,1.4351,7.9189
8,4,0,0,13.614,13614,0.2300,9.8900,1.4100,9.9927,0.2302,0.2836,-0.0698,-4.50,82.63,76.75,-2.8267,7.4316,1.4318,8.0789
8,4,0,0,13.735,13735,0.3800,10.9000,1.6900,11.0368,0.3305,0.2694,-0.5847,-2.88,81.13,70.75,-2.4041,7.8886,1.4658,8.3761
8,4,0,0,13.856,13856,-0.7700,10.0800,2.5200,10.4187,0.5400,-0.0513,-1.1203,3.31,77.94,63.19,-2.1888,8.1774,1.6047,8.6160
8,4,0,0,13.976,13976,-1.2300,10.2400,2.8400,10.6975,0.3098,-0.2989,-1.1388,10.63,75.00,57.13,-2.0624,8.4492,1.7675,8.8750
8,4,0,0,14.098,14098,-2.8900,9.5200,2.7300,10.3168,0.2803,-0.6556,-1.9068,21.25,73.25,50.00,-2.1715,8.5903,1.8943,9.0607
8,4,0,0,14.218,14218,-5.3100,7.7500,2.5200,9.7267,0.3011,-0.5803,-2.1980,36.19,71.13,39.19,-2.5851,8.4796,1.9768,9.0826
8,4,0,0,14.383,14383,-6.8900,5.2200,1.9700,8.8657,0.4211,-0.4985,-2.0213,55.06,65.50,24.94,-3.1523,8.0500,1.9759,8.8682
8,4,0,0,14.507,14507,-8.1000,2.8800,1.7100,8.7652,0.2389,-0.3436,-1.8206,68.56,54.81,13.75,-3.8043,7.3688,1.9408,8.5169
8,4,0,0,14.628,14628,-9.0000,1.4300,1.1000,9.1790,0.1058,-0.2771,-1.5653,77.69,30.88,3.63,-4.4890,6.5862,1.8300,8.1779
8,4,0,0,14.749,14749,-9.1500,-0.8800,1.0000,9.2465,0.1309,-0.1876,-1.5283,80.19,-24.38,354.13,-5.1032,5.6023,1.7207,7.7711
8,4,0,0,14.870,14870,-8.7600,-2.2800,1.1700,9.1272,0.0862,0.1200,-1.3832,73.81,-57.69,344.69,-5.5851,4.5636,1.6481,7.3984
8,4,0,0,14.991,14991,-7.8500,-3.9000,1.2100,8.8485,0.1854,0.2323,-1.2250,65.56,-66.81,337.25,-5.8835,3.4483,1.5904,7.0026
8,4,0,0,15.113,15113,-8.0600,-4.6900,1.2400,9.4073,0.0109,0.2902,-0.6207,58.88,-68.94,331.94,-6.1703,2.3759,1.5442,6.7899
8,4,0,0,15.239,15239,-7.7500,-4.8100,1.5000,9.2438,-0.0120,0.0458,-0.1265,56.69,-68.25,331.56,-6.3785,1.4290,1.5384,6.7152
8,4,0,0,15.401,15401,-6.0400,-5.8600,2.3300,8.7321,-0.3207,-0.2716,-0.3163,55.56,-71.69,331.38,-6.3339,0.4685,1.6427,6.5602
8,5,0,0,15.523,15523,-7.7900,-4.1700,1.5100,8.9640,-0.2498,-0.1396,1.0047,57.19,-69.69,332.63,-6.5258,-0.1427,1.6252,6.7266
8,5,0,0,15.643,15643,-7.9700,-2.9300,1.3300,8.5950,0.2225,0.4767,2.0071,67.06,-59.00,345.69,-6.7161,-0.5100,1.5863,6.9197
8,5,0,0,15.764,15764,-9.4600,-0.9900,1.8300,9.6861,0.8399,1.2403,2.6824,72.31,-17.81,5.63,-7.0777,-0.5733,1.6184,7.2829
8,5,0,0,15.888,15888,-7.8200,1.2000,3.3500,8.5916,0.3251,1.6253,3.0260,60.88,22.94,27.75,-7.1755,-0.3396,1.8466,7.4171
8,5,0,0,16.012,16012,-4.9400,4.6700,5.1800,8.5466,-0.2258,1.5566,2.7347,39.50,38.88,46.38,-6.8809,0.3205,2.2859,7.2577
8,5,0,0,16.133,16133,-3.3300,6.7800,6.4700,9.9458,-0.8007,1.1290,1.5086,24.56,45.19,55.19,-6.4130,1.1717,2.8372,7.1098
8,5,0,0,16.253,16253,-1.4600,8.5600,5.2100,10.1267,-0.8781,0.8258,1.4617,13.00,51.75,61.00,-5.7603,2.1453,3.1499,6.9069
8,5,0,0,16.416,16416,0.2900,9.1900,5.7000,10.8180,-0.7919,0.6054,1.0876,-0.13,58.75,69.13,-4.9630,3.0736,3.4859,6.7993
8,5,0,0,16.536,16536,0.7000,9.3400,4.6000,10.4348,-0.7669,0.1691,0.1265,-4.50,64.13,71.31,-4.2168,3.8994,3.6327,6.7958
8,5,0,0,16.657,16657,0.7300,9.4000,4.2000,10.3215,-0.5792,0.0251,0.4658,-5.88,68.38,72.75,-3.5649,4.6242,3.7075,6.9165
8,5,0,0,16.779,16779,2.0100,9.4800,3.5800,10.3309,-0.4320,-0.1113,0.2291,-8.56,71.69,76.13,-2.8303,5.2641,3.6907,7.0244
8,5,0,0,16.905,16905,1.2400,9.6800,3.0800,10.2336,-0.3054,-0.3523,0.0218,-8.25,73.81,77.88,-2.2939,5.8460,3.6102,7.2437
8,5,0,0,17.026,17026,0.9600,10.6500,2.8500,11.0665,-0.1462,-0.5694,-0.0851,-7.44,75.06,77.44,-1.8651,6.4790,3.5100,7.6011
8,5,0,0,17.146,17146,-0.1900,9.5100,3.2700,10.0583,0.0011,-0.7919,-1.0537,-2.25,74.88,75.13,-1.6444,6.8784,3.4784,7.8814
8,5,0,0,17.268,17268,-0.7500,9.8600,2.0900,10.1069,-0.5945,-1.3701,-1.1857,7.06,77.13,71.44,-1.5265,7.2713,3.2955,8.1279
8,5,0,0,17.429,17429,-4.5000,9.2500,-0.5100,10.2992,-0.8083,-1.6461,-2.1784,23.63,87.56,67.31,-1.9184,7.5321,2.7940,8.2595
8,5,0,0,17.552,17552,-6.9500,8.1800,-1.3100,10.8135,-0.7374,-0.5389,-2.2547,38.69,97.50,55.56,-2.5814,7.6175,2.2532,8.3526
8,5,0,0,17.673,17673,-7.0700,6.6000,-1.4000,9.7727,-0.2836,0.1985,-2.1304,52.88,104.00,38.63,-3.1729,7.4834,1.7718,8.3191
8,5,0,0,17.798,17798,-7.7000,4.1400,-1.2600,8.8327,0.0469,0.0436,-1.9842,67.38,110.44,22.69,-3.7694,7.0428,1.3723,8.1051
8,5,0,0,17.919,17919,-8.5100,1.5500,-1.5100,8.7808,-0.1353,-0.3043,-1.8348,77.63,135.88,10.06,-4.3941,6.3190,0.9925,7.7604
8,5,0,0,18.039,18039,-8.9200,-0.5400,-2.0600,9.1707,-0.2367,-0.2062,-1.8926,78.50,-159.94,356.25,-4.9905,5.4152,0.5902,7.3877
8,5,0,0,18.160,18160,-7.9800,-3.0200,-1.9800,8.7591,-0.2313,0.1080,-1.6242,70.75,-124.19,342.56,-5.3845,4.3036,0.2515,6.8976
8,5,0,0,18.281,18281,-7.2700,-4.5600,-1.7600,8.7604,-0.2094,0.0218,-1.1999,62.63,-111.13,331.56,-5.6329,3.1356,-0.0135,6.4469
8,5,0,0,18.443,18443,-7.3100,-5.1900,-1.6800,9.1211,-0.0829,0.1647,-0.0851,56.50,-105.94,323.81,-5.8539,2.0385,-0.2331,6.2031
8,6,0,0,18.568,18568,-8.3500,-4.0800,-1.8200,9.4700,0.1876,0.2880,0.7679,59.25,-104.88,327.63,-6.1828,1.2322,-0.4422,6.3199
8,6,0,0,18.689,18689,-7.6300,-4.3300,-0.5700,8.7915,0.0938,0.4941,0.4516,64.25,-104.06,335.44,-6.3735,0.4993,-0.4591,6.4095
8,6,0,0,18.811,18811,-8.2600,-2.8100,-0.6100,8.7462,0.3382,0.6381,1.3472,70.44,-96.69,345.25,-6.6221,0.0632,-0.4790,6.6397
8,6,0,0,18.932,18932,-9.3600,-0.9200,-0.4800,9.4173,0.5356,0.2007,2.1424,83.38,-173.38,2.38,-6.9829,-0.0664,-0.4791,6.9996
8,6,0,0,19.053,19053,-9.4500,0.3800,-0.3200,9.4630,-0.0371,-0.1036,1.1159,85.06,175.06,15.81,-7.3080,-0.0075,-0.4581,7.3224
8,6,0,0,19.174,19174,-9.3900,1.9300,-0.5200,9.6004,-0.4014,0.1920,0.1429,82.75,93.88,16.06,-7.5824,0.2478,-0.4663,7.6007
8,6,0,0,19.295,19295,-12.4700,4.6400,-0.8400,13.3318,0.1953,0.3545,1.5152,77.38,84.00,20.25,-8.2264,0.8266,-0.5155,8.2839
8,6,0,0,19.463,19463,-7.5700,2.7300,1.7800,8.2417,0.2345,1.1323,-0.1909,66.44,66.81,31.00,-8.1399,1.0774,-0.2130,8.2137
8,6,0,0,19.584,19584,-5.0600,0.7900,2.3700,5.6431,-0.3054,0.8476,-0.5596,66.25,45.56,23.50,-7.7341,1.0395,0.1273,7.8047
8,6,0,0,19.704,19704,-10.1400,7.5100,2.4600,12.8558,-0.6316,0.4745,3.3881,57.44,53.50,28.81,-8.0511,1.8922,0.4347,8.2819
8,6,0,0,19.825,19825,-5.3200,8.6000,2.5000,10.4169,-0.0185,0.6392,3.5648,31.06,66.13,53.75,-7.6912,2.7761,0.7069,8.2074
8,6,0,0,19.946,19946,-1.5400,6.6500,3.5800,7.7078,0.1058,1.0570,0.0469,19.56,64.63,60.56,-6.8806,3.2866,1.0855,7.7021
8,6,0,0,20.067,20067,-0.6800,8.1800,3.9900,9.1266,-1.1148,0.8039,1.5817,13.31,66.75,59.44,-6.0636,3.9314,1.4682,7.3742
8,6,0,0,20.189,20189,3.0500,11.7100,2.7900,12.4182,-1.2294,-0.1353,2.8547,-3.19,75.69,74.25,-4.8626,4.9564,1.6424,7.1350
8,6,0,0,20.315,20315,2.0100,11.6900,2.3900,12.0999,-0.7909,-0.6840,0.4811,-13.94,81.31,89.56,-3.9570,5.8437,1.7409,7.2690
8,6,0,0,20.477,20477,0.1800,11.1800,0.9600,11.2226,-0.3578,-0.3142,0.1156,-12.19,85.88,93.63,-3.4118,6.5469,1.6380,7.5621
8,6,0,0,20.598,20598,1.8400,11.0100,1.0400,11.2110,0.2945,-0.2705,-0.2443,-12.69,85.38,95.94,-2.7198,7.1350,1.5592,7.7934
8,6,0,0,20.719,20719,1.1800,10.4800,1.4800,10.6496,0.3000,-0.1451,-1.2828,-6.63,82.94,90.75,-2.2059,7.5758,1.5488,8.0410
8,6,0,0,20.840,20840,0.0000,9.9200,1.8400,10.0892,0.2116,-0.5770,-1.2174,2.00,81.00,83.81,-1.9152,7.8847,1.5871,8.2678
8,6,0,0,20.961,20961,-1.3600,8.6000,1.3700,8.8140,-0.3992,-0.8847,-1.5882,11.69,82.13,78.00,-1.8420,7.9790,1.5585,8.3358
8,6,0,0,21.083,21083,-3.0700,8.2500,0.3600,8.8101,-0.6370,-0.9065,-1.7039,23.75,87.44,70.56,-2.0039,8.0147,1.4006,8.3793
8,6,0,0,21.209,21209,-5.5600,8.5700,-1.1200,10.2768,-0.4145,-0.7309,-1.0254,32.75,94.06,64.63,-2.4725,8.0879,1.0684,8.5246
8,6,0,0,21.330,21330,-6.5000,7.2000,-1.3800,9.7977,-0.2378,0.0862,-1.2577,40.06,98.75,57.81,-3.0032,7.9709,0.7458,8.5504
8,6,0,0,21.493,21493,-7.6300,7.1600,-1.2100,10.5331,0.1091,0.6065,-0.7559,52.13,96.69,41.94,-3.6129,7.8640,0.4881,8.6680
8,6,0,0,21.614,21614,-7.9300,5.7400,-0.6100,9.8084,0.1538,0.0295,-0.2171,53.81,92.81,40.56,-4.1818,7.5841,0.3434,8.6674
8,6,0,0,21.735,21735,-8.6500,4.7300,-0.4900,9.8709,-0.3643,0.0415,-1.9210,61.13,94.38,32.19,-4.7706,7.2080,0.2336,8.6469
8,6,0,0,21.861,21861,-9.7700,2.7100,-0.5100,10.1517,-0.2803,0.0731,-2.5907,77.19,101.63,13.63,-5.4294,6.6153,0.1356,8.5591
8,6,0,0,21.982,21982,-8.9600,0.0000,-0.6400,8.9828,-0.0011,0.0644,-1.9482,85.25,-175.75,355.94,-5.8946,5.7436,0.0334,8.2302
8,6,0,0,22.103,22103,-7.9900,-3.3500,-0.4800,8.6772,-0.0840,-0.0371,-1.4377,75.06,-98.31,346.19,-6.1707,4.5453,-0.0343,7.6641
8,6,0,0,22.224,22224,-8.1200,-3.7700,-1.0800,9.0174,-0.2236,-0.2236,-0.8748,67.25,-96.38,336.88,-6.4276,3.4495,-0.1721,7.2968
8,6,0,0,22.346,22346,-9.1500,-4.1900,-1.0600,10.1194,-0.1429,-0.2138,-0.4178,62.94,-97.75,330.75,-6.7863,2.4428,-0.2891,7.2184
8,6,0,0,22.511,22511,-7.2200,-5.6600,0.1600,9.1755,-0.3523,0.2323,-1.1639,56.38,-94.31,322.25,-6.8435,1.3751,-0.2299,6.9841
8,6,0,0,22.634,22634,-4.6600,-6.3700,0.5700,7.9131,-0.3872,0.3000,-0.9468,47.13,-87.81,311.88,-6.5558,0.3545,-0.1245,6.5665
8,6,0,0,22.755,22755,-6.5100,-5.3500,-0.2900,8.4313,0.3545,-0.0982,1.6515,49.56,-86.94,314.75,-6.5497,-0.3972,-0.1463,6.5634
8,7,0,0,22.876,22876,-8.0700,-4.5900,-0.1900,9.2860,0.4003,-0.2738,2.1784,64.38,-92.31,331.44,-6.7501,-0.9497,-0.1521,6.8182
8,7,0,0,22.997,22997,-8.3500,-1.9300,-0.4100,8.5799,0.0011,-0.1058,1.3134,75.31,-100.44,343.88,-6.9609,-1.0789,-0.1861,7.0465
8,7,0,0,23.117,23117,-9.4200,0.3100,-1.0200,9.4801,0.2040,-0.2356,1.5403,83.19,-174.25,352.81,-7.2849,-0.8959,-0.2959,7.3458
8,7,0,0,23.239,23239,-9.8100,1.1100,-1.5100,9.9874,0.3076,-0.4418,1.9908,80.75,130.06,7.88,-7.6177,-0.6316,-0.4559,7.6574
8,7,0,0,23.365,23365,-9.5200,3.5800,-1.7400,10.3186,0.0153,-0.2051,1.5337,69.25,113.63,21.38,-7.8684,-0.0766,-0.6251,7.8935
8,7,0,0,23.527,23527,-9.7100,5.6600,-1.7900,11.3809,0.1320,-0.0567,0.5465,59.81,107.25,32.19,-8.1110,0.6794,-0.7786,8.1766
8,7,0,0,23.649,23649,-8.7700,3.8300,-1.0900,9.6317,-0.0273,0.1582,-0.2443,58.69,106.00,33.94,-8.1979,1.0945,-0.8197,8.3111
8,7,0,0,23.770,23770,-5.7200,3.4800,-0.8900,6.7543,-0.0927,0.3807,-0.5029,62.88,104.81,28.13,-7.8714,1.4089,-0.8289,8.0393
8,7,0,0,23.890,23890,-7.6900,5.2800,-1.2200,9.4076,0.5923,0.1505,1.6417,59.56,98.63,33.31,-7.8475,1.9190,-0.8805,8.1265
8,7,0,0,24.012,24012,-6.1000,5.8300,-0.1400,8.4391,0.3949,-0.0185,2.1740,45.38,92.75,50.88,-7.6172,2.4344,-0.7829,8.0350
8,7,0,0,24.136,24136,-5.0500,8.4300,-0.1300,9.8277,0.1473,0.2258,1.7639,32.56,90.56,64.25,-7.2789,3.2244,-0.6969,7.9916
8,7,0,0,24.257,24257,-3.4900,10.0500,-0.0100,10.6387,0.5400,0.6196,2.1457,19.88,87.00,75.19,-6.7796,4.1239,-0.6063,7.9585
8,7,0,0,24.380,24380,-0.9700,9.9800,1.2300,10.1022,0.6698,0.6850,2.0802,3.06,81.44,88.31,-6.0141,4.8956,-0.3644,7.7633
8,7,0,0,24.543,24543,1.4700,9.8400,1.7800,10.1072,-0.1516,0.8378,0.6905,-9.38,79.75,93.88,-5.0278,5.5471,-0.0818,7.4871
8,7,0,0,24.663,24663,2.0200,11.1200,1.2300,11.3687,-0.1538,0.4560,0.0949,-12.19,81.94,92.50,-4.0991,6.2815,0.0911,7.5012
8,7,0,0,24.784,24784,1.2500,9.5400,1.9000,9.8073,0.0894,0.2105,-0.3665,-11.19,82.31,89.69,-3.3942,6.7109,0.3294,7.5276
8,7,0,0,24.905,24905,1.9500,9.6500,1.8700,10.0211,-0.0065,0.3163,0.0916,-10.31,82.13,86.94,-2.6900,7.0982,0.5324,7.6094
8,7,0,0,25.031,25031,2.8000,9.4800,1.6300,10.0183,0.0993,0.0687,0.1484,-12.00,81.94,86.13,-1.9666,7.4120,0.6771,7.6983
8,7,0,0,25.153,25153,2.2000,9.4400,1.6600,9.8341,0.0262,-0.1374,-0.3120,-10.56,81.44,82.38,-1.4175,7.6793,0.8066,7.8505
8,7,0,0,25.273,25273,1.5500,9.8000,1.8000,10.0838,-0.0196,-0.3589,0.1134,-10.06,81.13,82.13,-1.0265,7.9587,0.9375,8.0792
8,7,0,0,25.394,25394,1.1700,11.0000,1.8500,11.2157,-0.0404,-0.6305,-0.8072,-8.00,80.81,82.56,-0.7370,8.3595,1.0577,8.4583
8,7,0,0,25.557,25557,-1.9200,10.7200,1.7600,11.0319,0.0262,-0.6578,-1.6013,5.75,81.00,74.69,-0.8929,8.6705,1.1503,8.7920
8,7,0,0,25.680,25680,-2.0900,9.7000,1.6600,10.0605,0.1254,-0.4014,-2.1762,17.69,80.56,66.00,-1.0507,8.8062,1.2175,8.9518
8,7,0,0,25.801,25801,-4.7700,7.4600,1.0100,8.9120,-0.1025,-0.2858,-2.8122,35.94,80.00,49.44,-1.5408,8.6288,1.1901,8.8457
8,7,0,0,25.925,25925,-5.7100,5.1000,0.2800,7.6611,-0.2313,-0.4734,-1.9046,53.25,81.38,33.19,-2.0902,8.1638,1.0702,8.4948
8,7,0,0,26.046,26046,-7.8600,5.0600,-0.7800,9.3804,-0.4952,-0.8039,-0.7069,60.81,90.81,26.06,-2.8505,7.7548,0.8264,8.3033
8,7,0,0,26.166,26166,-8.7400,3.0100,-1.0900,9.3078,-0.4102,-0.5356,-0.9741,65.25,103.56,20.63,-3.6266,7.1296,0.5738,8.0195
8,7,0,0,26.287,26287,-9.4400,3.6300,-2.0400,10.3176,-0.5956,-0.4701,-1.0428,71.06,122.25,10.25,-4.3926,6.6684,0.2294,7.9885
8,7,0,0,26.408,26408,-9.2700,0.8100,-2.5500,9.6484,-0.2629,-0.6763,-0.9119,72.56,144.81,4.63,-5.0354,5.8964,-0.1368,7.7551
8,7,0,0,26.571,26571,-8.5500,1.0300,-2.7900,9.0525,-0.7298,0.3305,-0.8421,73.31,-177.56,348.88,-5.4985,5.2551,-0.4865,7.6215
8,8,0,0,26.697,26697,-11.4900,1.1000,-3.4800,12.0557,0.6327,0.7614,0.7690,77.56,-178.88,348.88,-6.2880,4.7076,-0.8809,7.9042
8,8,0,0,26.818,26818,-10.3500,0.1900,-0.6100,10.3697,0.5225,1.0625,-0.3567,82.75,150.31,358.13,-6.8233,4.1123,-0.8452,8.0114
8,8,0,0,26.939,26939,-8.0900,-1.0600,0.3500,8.1667,0.1276,1.4857,-2.3758,82.25,-69.19,348.94,-6.9902,3.4307,-0.6877,7.8170
8,8,0,0,27.060,27060,-7.5000,-2.4900,1.0800,7.9760,0.5585,1.0886,-1.2959,66.00,-63.19,338.56,-7.0574,2.6505,-0.4548,7.5524
8,8,0,0,27.181,27181,-7.6800,-4.3300,1.8200,9.0024,0.7210,0.6229,0.7101,62.63,-58.81,342.94,-7.1394,1.7307,-0.1550,7.3478
8,8,0,0,27.303,27303,-9.2800,-3.9000,2.5900,10.3941,0.1407,0.3414,0.3840,64.81,-51.13,350.63,-7.4215,0.9887,0.2067,7.4899
8,8,0,0,27.427,27427,-8.6700,-2.5200,2.5300,9.3766,0.0687,0.2978,-0.6196,62.31,-49.50,349.75,-7.5860,0.5263,0.5128,7.6215
8,8,0,0,27.590,27590,-5.8200,-5.4700,3.0800,8.5604,-0.0065,0.0240,-0.6021,54.31,-57.81,341.81,-7.3533,-0.2638,0.8511,7.4071
8,8,0,0,27.712,27712,-8.7000,-3.6500,2.4800,9.7551,-0.0338,0.2040,1.6210,57.19,-53.19,346.25,-7.5308,-0.7100,1.0658,7.6389
8,8,0,0,27.832,27832,-6.4000,-3.9900,2.7500,8.0276,0.2203,0.2531,1.1694,64.13,-38.13,359.31,-7.3818,-1.1423,1.2877,7.5798
8,8,0,0,27.953,27953,-7.4900,-2.4900,3.1500,8.4984,-0.6687,0.0033,1.2883,65.94,-26.44,4.00,-7.3960,-1.3199,1.5331,7.6677
8,8,0,0,28.074,28074,-7.4300,3.2300,2.1900,8.3925,-1.1497,-0.3512,3.6303,67.25,26.81,18.19,-7.4005,-0.7203,1.6197,7.6098
8,8,0,0,28.201,28201,-7.0000,5.8100,1.5200,9.2232,-0.5880,-0.6065,1.8391,56.19,61.94,33.75,-7.3477,0.1402,1.6065,7.5226
8,8,0,0,28.322,28322,-7.5700,7.0700,1.4800,10.4633,-0.9523,-0.2771,1.9297,46.56,76.50,43.56,-7.3770,1.0534,1.5899,7.6196
8,8,0,0,28.443,28443,-4.5600,9.9800,0.5500,10.9862,-0.4112,-0.1407,2.5896,31.19,84.63,57.25,-7.0058,2.2297,1.4528,7.4942
8,8,0,0,28.605,28605,-1.8000,10.1900,1.0500,10.4009,-0.2018,-0.2553,1.6439,10.63,86.94,79.13,-6.3198,3.2787,1.3998,7.2560
8,8,0,0,28.726,28726,-0.9900,10.8900,0.0100,10.9349,-0.6109,-0.3218,0.7909,3.75,90.31,87.25,-5.6175,4.2816,1.2166,7.1672
8,8,0,0,28.853,28853,-0.2600,10.5100,-0.8600,10.5483,-0.2825,-0.3742,0.6949,-1.69,93.56,95.13,-4.9115,5.1024,0.9430,7.1447
8,8,0,0,28.975,28975,-0.0600,10.3000,-0.6400,10.3200,-0.1364,-0.0742,0.3294,-4.38,94.50,99.63,-4.2722,5.7873,0.7344,7.2307
8,8,0,0,29.095,29095,1.0000,10.1600,-1.2300,10.2829,-0.3425,0.2258,0.1505,-6.38,96.38,100.69,-3.5775,6.3635,0.4755,7.3156
8,8,0,0,29.216,29216,0.7600,9.9700,-1.3700,10.0923,-0.0796,0.2160,-0.1418,-5.31,98.13,98.31,-3.0059,6.8387,0.2323,7.4738
8,8,0,0,29.337,29337,0.8500,10.1200,-1.2000,10.2263,0.1287,0.0971,0.0044,-4.63,97.81,96.50,-2.4978,7.2711,0.0436,7.6883
8,8,0,0,29.458,29458,0.8400,10.2000,-0.8800,10.2723,0.0654,0.2258,-0.1767,-4.94,97.19,95.50,-2.0579,7.6571,-0.0781,7.9292
8,8,0,0,29.620,29620,-1.5200,10.0600,-0.9800,10.2213,0.1353,0.4669,-1.3952,5.50,96.44,80.31,-1.9871,7.9737,-0.1970,8.2199
8,8,0,0,29.746,29746,-1.6300,10.2600,-1.0600,10.4426,0.3229,0.0098,-0.3327,10.94,94.69,73.69,-1.9400,8.2750,-0.3107,8.5050
8,8,0,0,29.867,29867,-1.0100,8.6100,-0.3300,8.6753,-0.2520,-0.5945,-1.0123,14.13,94.31,72.69,-1.8175,8.3191,-0.3132,8.5211
8,8,0,0,29.987,29987,-3.6200,8.4900,-2.8900,9.6714,-1.0810,-1.4454,-2.5689,25.94,102.63,65.44,-2.0550,8.3417,-0.6528,8.6158
8,9,0,0,30.108,30108,-7.5100,5.2200,-4.7900,10.3244,-1.2970,-1.6166,-3.0194,40.63,122.69,50.81,-2.7738,7.9303,-1.1980,8.4864
8,9,0,0,30.230,30230,-7.9700,4.2600,-6.0500,10.8752,-1.3035,-0.5356,-1.3374,45.81,145.81,31.38,-3.4585,7.4467,-1.8373,8.4137
8,9,0,0,30.350,30350,-8.3600,4.4700,-6.4400,11.4605,-0.3763,0.8530,-0.9021,50.13,156.75,14.44,-4.1044,7.0544,-2.4439,8.5196
8,9,0,0,30.471,30471,-8.7900,1.6900,-4.7800,10.1473,0.3218,1.7999,-0.8585,61.13,158.94,5.31,-4.7219,6.3475,-2.7517,8.3761
8,9,0,0,30.638,30638,-8.1900,1.4800,-2.5900,8.7163,0.2673,1.7890,-0.8923,79.00,158.94,358.06,-5.1789,5.7061,-2.7304,8.1753
8,9,0,0,30.760,30760,-7.7000,-0.2700,-0.5100,7.7216,0.8192,1.0276,-0.9479,87.19,-177.19,356.13,-5.5111,4.9186,-2.4378,7.7787
8,9,0,0,30.880,30880,-8.4000,-1.8400,1.0000,8.6571,0.2923,0.7330,-0.2127,81.44,-55.31,357.06,-5.8918,4.0280,-1.9848,7.4079
8,9,0,0,31.001,31001,-8.7700,-1.0000,1.1400,8.9001,-0.0295,0.4102,-0.0665,78.75,-38.63,358.13,-6.2711,3.3654,-1.5730,7.2888
8,9,0,0,31.122,31122,-9.4000,-2.2000,1.5200,9.7729,0.1887,0.0731,-0.7909,75.63,-45.94,355.63,-6.6834,2.6320,-1.1654,7.2769
8,9,0,0,31.243,31243,-9.5400,-2.4500,1.8100,10.0145,0.1724,-0.0316,-0.5552,72.13,-56.63,352.38,-7.0598,1.9624,-0.7734,7.3682
8,9,0,0,31.364,31364,-8.8200,-2.8700,1.0700,9.3367,0.2858,0.0338,-1.0090,67.44,-65.75,348.13,-7.2918,1.3256,-0.5304,7.4302
8,9,0,0,31.486,31486,-7.6100,-4.3900,1.3500,8.8886,0.0578,0.3687,-0.8356,61.00,-69.31,344.13,-7.3337,0.5724,-0.2826,7.3614
8,9,0,0,31.652,31652,-6.7700,-5.4700,1.6500,8.8587,0.0807,0.1724,-0.1833,54.56,-69.00,340.38,-7.2594,-0.2238,-0.0280,7.2629
8,9,0,0,31.773,31773,-6.1700,-5.1700,1.6700,8.2211,-0.1680,-0.2313,0.6414,55.38,-69.13,341.50,-7.1159,-0.8756,0.1958,7.1722
8,9,0,0,31.893,31893,-7.1500,-3.9500,1.7800,8.3602,-0.4734,-0.3512,1.1137,61.06,-66.38,344.56,-7.1204,-1.2807,0.4045,7.2459
8,9,0,0,32.014,32014,-9.1400,-0.8600,1.2300,9.2624,0.0207,-0.3709,2.4685,73.31,-53.88,355.19,-7.3865,-1.2253,0.5133,7.5050
8,9,0,0,32.135,32135,-8.2800,-0.0900,1.0700,8.3493,0.1124,-0.3305,1.6461,82.63,0.19,9.50,-7.5042,-1.0757,0.5867,7.6036
8,9,0,0,32.256,32256,-9.3900,3.9000,0.3000,10.1721,0.0360,-0.1080,2.5667,75.56,65.69,22.94,-7.7527,-0.4200,0.5489,7.7835
8,9,0,0,32.377,32377,-8.5100,5.6600,0.6500,10.2410,0.0785,0.5454,2.4249,57.81,75.88,40.81,-7.8525,0.3812,0.5622,7.8818
8,9,0,0,32.500,32500,-6.4800,7.1800,1.8000,9.8378,0.2400,1.0810,1.7431,43.94,72.31,51.13,-7.6717,1.2771,0.7253,7.8110
8,9,0,0,32.665,32665,-3.0200,8.2800,2.9000,9.2784,-0.2880,0.8847,1.6362,24.38,69.88,62.25,-7.0587,2.1999,1.0119,7.4625
8,9,0,0,32.786,32786,-1.8600,9.2500,2.8500,9.8562,-0.4767,0.2367,1.0483,15.81,72.56,67.13,-6.3736,3.1289,1.2541,7.2101
8,9,0,0,32.907,32907,-0.7900,10.2900,2.6500,10.6551,-0.6894,-0.0720,1.3941,7.50,76.94,74.81,-5.6379,4.0726,1.4380,7.1021
8,9,0,0,33.028,33028,-0.1000,10.7600,1.5800,10.8758,-0.5618,-0.2891,0.2094,2.63,81.75,80.69,-4.9081,4.9538,1.4568,7.1240
8,9,0,0,33.149,33149,-0.8500,10.5600,1.2600,10.6688,-0.0720,-0.3305,0.4014,1.63,83.56,83.19,-4.3733,5.6926,1.4308,7.3197
8,9,0,0,33.271,33271,-0.3300,10.8000,1.3900,10.8941,0.0796,-0.0884,-0.0415,0.19,83.31,84.75,-3.8405,6.3656,1.4254,7.5698
8,9,0,0,33.393,33393,-1.4200,11.5800,1.6500,11.7828,0.6185,0.0884,-0.9752,4.81,81.13,78.38,-3.5216,7.0527,1.4550,8.0162
8,9,0,0,33.518,33518,-2.2600,10.9300,2.6300,11.4669,1.2217,0.2967,-1.1377,11.81,73.56,69.88,-3.3553,7.5636,1.6099,8.4296
8,9,0,0,33.680,33680,-2.3000,8.1200,4.6400,9.6309,1.4933,0.2989,-1.8882,23.38,57.75,55.31,-3.2163,7.6370,2.0092,8.5267
8,10,0,0,33.802,33802,-3.0900,6.2200,5.4100,8.8037,0.8345,-0.6654,-1.6875,33.44,46.44,46.38,-3.1996,7.4502,2.4573,8.4724
8,10,0,0,33.923,33923,-5.9700,4.5000,4.2800,8.6145,0.4102,-1.5566,-1.9450,47.56,40.25,38.69,-3.5647,7.0615,2.6975,8.3575
8,10,0,0,34.049,34049,-8.0800,2.1100,3.6000,9.0939,0.2236,-1.0647,-2.2689,63.44,28.56,27.50,-4.1597,6.4090,2.8164,8.1431
8,10,0,0,34.171,34171,-7.1600,-1.0600,2.8000,7.7607,-0.1145,-0.5280,-2.5678,71.13,-13.13,10.38,-4.5551,5.4248,2.8143,7.6221
8,10,0,0,34.291,34291,-6.4000,-3.5100,1.2800,7.4107,-0.4014,-1.3854,-2.0759,66.63,-56.13,351.81,-4.7982,4.2474,2.6121,6.9200
8,10,0,0,34.412,34412,-10.6100,-3.4800,-0.5100,11.1778,-0.0644,-1.1912,0.1254,65.13,-78.81,341.38,-5.5640,3.2291,2.2007,6.7992
8,10,0,0,34.533,34533,-9.6300,-4.3400,-0.3100,10.5673,0.0894,0.1560,-0.6403,65.13,-85.75,340.25,-6.0998,2.2317,1.8698,6.7590
8,10,0,0,34.697,34697,-6.2200,-5.2900,1.3100,8.2697,-0.3163,0.5378,-1.4399,52.44,-78.81,329.25,-6.1157,1.2405,1.7961,6.4935
8,10,0,0,34.822,34822,-6.0800,-5.4800,0.9300,8.2378,0.0469,-0.0131,0.2716,48.13,-77.06,325.50,-6.1110,0.3549,1.6819,6.3481
8,10,0,0,34.943,34943,-9.4400,-5.1000,0.4200,10.7378,0.3120,-0.3589,1.4410,56.44,-79.25,334.44,-6.5496,-0.3639,1.5156,6.7326
8,10,0,0,35.064,35064,-7.8600,-5.1700,1.4000,9.5115,-0.1636,0.0338,-0.5051,59.75,-80.81,338.13,-6.7223,-0.9972,1.5004,6.9595
8,10,0,0,35.185,35185,-6.2200,-3.8300,2.4300,7.6982,-0.1396,0.5138,-0.3425,54.25,-77.13,334.06,-6.6561,-1.3705,1.6229,6.9868
8,10,0,0,35.306,35306,-10.7200,-3.5700,-0.9100,11.3354,0.7221,-0.1887,2.0540,60.31,-74.63,343.31,-7.1916,-1.6603,1.2891,7.4925
8,10,0,0,35.427,35427,-8.4900,-4.2900,0.0900,9.5127,0.3632,-0.5367,1.3526,74.25,-79.75,359.94,-7.3627,-2.0069,1.1311,7.7147
8,10,0,0,35.552,35552,-6.4000,-2.5000,0.6800,6.9045,-0.5585,-0.1036,-0.3589,75.56,-84.44,359.44,-7.2359,-2.0718,1.0717,7.6025
8,10,0,0,35.715,35715,-9.3400,1.2800,-1.5300,9.5506,-0.1844,-0.6676,2.9180,86.38,-176.50,5.31,-7.5131,-1.6302,0.7288,7.7224
8,10,0,0,35.837,35837,-9.1800,4.8200,-1.7300,10.5118,0.3076,-0.5716,3.4896,69.44,104.94,30.19,-7.7328,-0.7802,0.4048,7.7826
8,10,0,0,35.957,35957,-7.5600,7.1200,-1.0600,10.4389,0.0622,0.2138,2.0595,51.31,98.69,50.25,-7.7100,0.2609,0.2118,7.7173
8,10,0,0,36.078,36078,-6.0600,8.3000,-0.5800,10.2932,-0.0120,0.6414,1.6657,40.25,94.13,58.94,-7.4926,1.3202,0.1075,7.6088
8,10,0,0,36.199,36199,-4.2900,9.0500,-0.2600,10.0187,0.1145,0.4058,2.0224,28.06,90.69,68.13,-7.0706,2.3388,0.0590,7.4476
8,10,0,0,36.320,36320,-2.0900,9.9100,-0.1200,10.1287,-0.1811,0.1516,1.6297,15.56,90.25,79.06,-6.4143,3.3365,0.0354,7.2302
8,10,0,0,36.442,36442,-1.2500,10.3400,-0.3200,10.4202,-0.2182,-0.0120,0.8410,7.81,91.69,86.19,-5.7337,4.2594,-0.0114,7.1427
8,10,0,0,36.568,36568,-0.5700,9.9300,-0.3900,9.9540,-0.1724,0.0120,0.6480,3.19,92.88,90.81,-5.0533,5.0066,-0.0613,7.1138
8,10,0,0,36.730,36730,0.8200,10.1700,-0.7400,10.2298,-0.1538,0.0578,0.4843,-3.13,94.56,96.25,-4.2793,5.6870,-0.1507,7.1188
8,10,0,0,36.850,36850,0.6800,10.2500,-0.8000,10.3036,-0.0120,0.0502,0.1800,-5.00,95.13,96.50,-3.6258,6.2883,-0.2363,7.2626
8,10,0,0,36.971,36971,0.6300,10.3500,-0.8000,10.4000,0.0862,0.0578,-0.0938,-5.19,94.81,95.50,-3.0650,6.8235,-0.3106,7.4867
8,10,0,0,37.092,37092,0.1500,10.4400,-0.6300,10.4601,0.2051,0.0873,-0.6032,-2.63,93.81,91.94,-2.6414,7.3001,-0.3527,7.7713
8,10,0,0,37.213,37213,-0.6700,10.5900,-0.2700,10.6146,0.2302,0.0676,-1.0756,3.13,92.25,85.13,-2.3816,7.7336,-0.3418,8.0992
8,10,0,0,37.335,37335,-2.0900,10.4600,-0.1200,10.6674,0.1854,-0.1244,-1.7322,12.94,91.00,75.38,-2.3432,8.0929,-0.3125,8.4311
8,10,0,0,37.461,37461,-3.7000,9.3600,-0.4100,10.0731,0.1178,-0.4091,-1.7813,24.88,90.69,65.56,-2.5220,8.2599,-0.3254,8.6424
8,10,0,0,37.582,37582,-4.9800,7.5400,-0.8600,9.0770,-0.4494,-0.3949,-2.2569,39.06,94.06,53.56,-2.8459,8.1650,-0.3958,8.6558
8,10,0,0,37.745,37745,-6.9900,5.1900,-1.9400,8.9196,-0.6807,-0.6392,-1.9515,57.25,108.94,32.44,-3.3920,7.7730,-0.5993,8.5020
8,10,0,0,37.866,37866,-8.3900,3.4300,-3.3900,9.6772,-0.7047,-0.8312,-1.6690,64.69,133.19,17.94,-4.0506,7.2007,-0.9671,8.3182
8,10,0,0,37.988,37988,-9.3600,1.2100,-3.6700,10.1263,-0.6261,0.0153,-1.5283,67.88,162.56,2.25,-4.7502,6.4113,-1.3232,8.0882
8,10,0,0,38.113,38113,-9.1200,0.2400,-3.3900,9.7326,-0.4712,0.7330,-0.9196,71.94,-172.50,348.88,-5.3260,5.5980,-1.5956,7.8899
8,10,0,0,38.234,38234,-8.6100,-0.7900,-2.7900,9.0852,0.0447,0.7592,-0.7527,75.13,-146.50,342.00,-5.7588,4.7563,-1.7530,7.6719
8,10,0,0,38.354,38354,-10.1500,-0.8500,-2.2900,10.4398,0.1385,0.7461,-0.1713,75.94,-123.63,340.13,-6.3374,4.0175,-1.8237,7.7220
