participant,rep,equipment_code,exercise_code,timestamp,timestamp_ms,accelX,accelY,accelZ,accelMag,gyroX,gyroY,gyroZ,roll,pitch,yaw,filteredX,filteredY,filteredZ,filteredMag
9,1,0,0,00.000,0,0.4000,9.6000,1.1600,9.6781,0.0218,0.0578,-0.1778,0.13,83.44,72.31,0.1182,9.7145,0.9455,9.7611
9,1,0,0,00.121,121,0.0300,9.8900,1.2400,9.9675,-0.0196,0.0153,0.0524,0.69,83.38,71.25,0.1065,9.7376,0.9843,9.7878
9,1,0,0,00.243,243,0.1300,9.7100,1.3200,9.8002,0.0240,-0.1080,0.1004,-0.25,83.38,72.44,0.1096,9.7340,1.0286,9.7888
9,1,0,0,00.364,364,-0.1400,9.5500,1.3700,9.6488,0.0654,-0.1200,-0.0502,-0.19,83.06,72.88,0.0767,9.7097,1.0736,9.7692
9,1,0,0,00.490,490,-0.2000,10.1200,1.6000,10.2477,0.0251,-0.1745,-0.1636,0.50,82.69,72.88,0.0403,9.7638,1.1429,9.8305
9,1,0,0,00.612,612,-1.8200,10.3300,1.7000,10.6260,0.4396,-0.5192,-0.8890,4.75,80.88,71.31,-0.2049,9.8384,1.2163,9.9154
9,1,0,0,00.732,732,-2.9200,9.8100,1.8400,10.3994,0.1484,-0.5749,-1.0341,11.56,79.25,68.38,-0.5627,9.8347,1.2985,9.9360
9,1,0,0,00.853,853,-4.7500,10.4800,1.6200,11.6197,0.0807,-0.3436,-1.3799,20.38,79.06,62.94,-1.1144,9.9197,1.3409,10.0718
9,1,0,0,01.015,1015,-5.1800,9.2800,2.1100,10.8353,0.3392,-0.0207,-2.6562,36.69,75.25,47.75,-1.6502,9.8354,1.4422,10.0766
9,1,0,0,01.142,1142,-7.1100,7.4000,2.1500,10.4850,0.4963,-0.3185,-2.6191,54.69,67.56,31.31,-2.3696,9.5145,1.5355,9.9246
9,1,0,0,01.263,1263,-7.9700,3.8500,1.8200,9.0364,0.7374,-0.4571,-2.5820,71.81,49.31,17.88,-3.1076,8.7680,1.5730,9.4345
9,1,0,0,01.384,1384,-6.1900,-3.1600,0.9700,7.0173,0.2258,0.1211,-2.9016,77.56,-29.19,1.69,-3.5138,7.1962,1.4935,8.1464
9,1,0,0,01.505,1505,-6.2500,-2.7000,0.7300,6.8473,-0.3120,0.7723,0.2345,68.81,-45.50,351.81,-3.8744,5.8922,1.3929,7.1881
9,1,0,0,01.626,1626,-7.0900,-1.9200,2.8200,7.8681,-0.0251,0.3916,1.9188,70.56,-15.81,2.63,-4.2981,4.8627,1.5810,6.6798
9,1,0,0,01.747,1747,-7.2000,1.4300,2.6200,7.7942,-0.8268,0.0316,1.4104,69.38,16.06,10.13,-4.6805,4.4104,1.7179,6.6565
9,2,0,0,01.869,1869,-7.2000,5.5500,2.8700,9.5331,-0.4952,-0.1767,2.6136,62.63,46.50,19.75,-5.0125,4.5605,1.8697,7.0299
9,2,0,0,02.035,2035,-6.9500,8.8000,2.4100,11.4696,-0.1898,-0.3894,2.1282,42.69,70.50,44.44,-5.2678,5.1192,1.9409,7.5976
9,2,0,0,02.156,2156,-5.8900,8.6300,2.5000,10.7433,-0.0731,0.5716,1.5163,31.94,73.69,54.75,-5.3498,5.5818,2.0146,7.9897
9,2,0,0,02.277,2277,-1.7200,8.9300,2.8200,9.5213,0.1091,0.5378,2.2231,17.06,73.13,65.75,-4.8715,6.0230,2.1207,8.0316
9,2,0,0,02.398,2398,-0.3000,10.9600,2.7100,11.2941,-0.5203,0.2280,1.3984,5.50,75.25,75.25,-4.2691,6.6736,2.1984,8.2216
9,2,0,0,02.519,2519,-2.0800,12.5500,2.2800,12.9239,1.0788,0.0971,1.3319,-4.00,74.31,84.31,-3.9806,7.4480,2.2091,8.7291
9,2,0,0,02.641,2641,1.3600,6.0100,5.5600,8.2996,-0.6981,0.6021,-1.2021,-5.50,69.50,82.38,-3.2769,7.2585,2.6507,8.3934
9,2,0,0,02.763,2763,-2.1000,13.5800,0.3200,13.7451,-0.1560,-1.0265,-1.6472,7.06,77.63,71.00,-3.1218,8.0915,2.3436,8.9839
9,2,0,0,02.888,2888,-3.1200,8.1100,3.7600,9.4681,0.3720,-0.4723,-0.4505,13.44,74.44,71.50,-3.1215,8.0939,2.5302,9.0365
9,2,0,0,03.050,3050,-5.1000,10.2600,1.6600,11.5773,0.4265,0.2149,-2.0693,28.13,74.19,56.31,-3.3823,8.3794,2.4155,9.3535
9,2,0,0,03.171,3171,-4.6300,6.9200,3.6200,9.0790,0.9730,0.9425,-0.7778,34.31,63.31,47.94,-3.5467,8.1871,2.5743,9.2862
9,2,0,0,03.295,3295,-3.0900,6.3800,4.8100,8.5667,0.1702,-0.2302,-1.5446,38.69,54.88,40.44,-3.4865,7.9489,2.8689,9.1418
9,2,0,0,03.416,3416,-8.5600,5.5600,2.6800,10.5532,-0.0862,-1.8380,-1.8959,54.19,55.31,31.13,-4.1551,7.6341,2.8440,9.1451
9,2,0,0,03.540,3540,-10.9900,4.0300,1.5000,11.8013,0.1876,-0.4134,-1.9679,70.25,52.25,20.56,-5.0557,7.1592,2.6669,9.1612
9,2,0,0,03.661,3661,-7.8500,0.7900,2.1500,8.1774,0.2116,0.8967,-2.6104,74.19,-2.94,5.25,-5.4239,6.3199,2.5988,8.7243
9,2,0,0,03.782,3782,-5.1500,-3.4400,1.9900,6.5051,-0.1494,0.3534,-1.6450,64.56,-36.31,351.19,-5.3878,5.0338,2.5185,7.7917
9,2,0,0,03.903,3903,-9.1000,-1.3900,1.9500,9.4098,-0.3142,0.3120,2.4336,64.06,-29.38,351.25,-5.8770,4.1873,2.4436,7.6187
9,2,0,0,04.066,4066,-6.3700,1.3000,4.9400,8.1652,-0.4843,0.4571,1.4595,61.38,23.00,16.63,-5.9420,3.8068,2.7726,7.5820
9,3,0,0,04.192,4192,-6.8400,3.6500,3.6000,8.5480,-1.1028,0.2018,0.4658,57.75,32.75,15.25,-6.0603,3.7862,2.8816,7.7049
9,3,0,0,04.313,4313,-6.1500,5.9400,3.7000,9.3164,-0.6327,-0.4669,2.2177,50.81,51.56,23.56,-6.0721,4.0700,2.9895,7.8976
9,3,0,0,04.434,4434,-6.4200,7.9100,3.2900,10.7055,-0.3142,-0.6621,1.4094,41.63,65.19,37.13,-6.1180,4.5760,3.0291,8.2185
9,3,0,0,04.555,4555,-6.5700,8.3200,2.5300,10.8990,-0.0404,0.0033,1.0919,35.88,70.31,44.94,-6.1775,5.0694,2.9633,8.5230
9,3,0,0,04.677,4677,-2.9600,8.4100,2.8100,9.3480,0.2149,0.3447,1.3657,26.56,70.44,53.31,-5.7535,5.5096,2.9431,8.4924
9,3,0,0,04.800,4800,-3.1600,7.9700,2.8900,9.0476,-0.0829,0.3425,0.8868,19.88,69.81,58.69,-5.4118,5.8338,2.9361,8.4818
9,3,0,0,04.921,4921,-0.4500,10.8000,3.5600,11.3805,0.0884,0.2203,2.7914,6.00,70.88,70.38,-4.7579,6.4882,3.0183,8.5933
9,3,0,0,05.086,5086,-1.8000,9.4300,2.6500,9.9593,-0.5792,-0.8498,-0.7232,-1.13,72.81,84.25,-4.3682,6.8759,2.9698,8.6705
9,3,0,0,05.207,5207,-2.9700,11.1400,2.4000,11.7763,0.2727,0.3163,-0.1407,3.69,74.38,80.81,-4.1839,7.4378,2.8947,9.0114
9,3,0,0,05.327,5327,-0.2300,9.8300,4.0000,10.6152,0.3632,0.5029,-1.1116,5.06,71.00,75.75,-3.6629,7.7530,3.0403,9.0978
9,3,0,0,05.449,5449,-2.8800,9.3500,3.1800,10.2873,0.1309,-0.2683,-2.6562,18.31,68.63,61.19,-3.5597,7.9634,3.0588,9.2436
9,3,0,0,05.569,5569,-6.5300,9.2700,2.4300,11.5965,0.5749,0.2662,-1.3265,31.88,64.56,48.63,-3.9511,8.1356,2.9759,9.5213
9,3,0,0,05.690,5690,-2.7600,6.9700,5.6800,9.4054,1.1246,1.0112,-1.1519,33.38,52.13,42.44,-3.7942,7.9820,3.3322,9.4452
9,3,0,0,05.811,5811,-5.2700,4.4100,5.3500,8.7088,0.7865,-0.0785,-2.6147,42.13,37.25,28.69,-3.9887,7.5113,3.5981,9.2345
9,3,0,0,05.933,5933,-7.2600,3.4300,6.5600,10.3685,1.1846,0.6600,-0.1364,45.31,23.13,23.31,-4.4197,6.9735,3.9884,9.1690
9,3,0,0,06.099,6099,-5.0500,0.3400,7.0100,8.6463,0.5640,0.0142,-1.5010,42.44,5.19,17.06,-4.5028,6.0994,4.3866,8.7590
9,3,0,0,06.221,6221,-5.5900,1.3900,6.1400,8.4190,0.3862,-1.0723,-0.9250,46.88,-3.50,11.44,-4.6461,5.4788,4.6176,8.5397
9,3,0,0,06.341,6341,-10.5000,-2.7700,4.0600,11.5934,0.4374,-0.5029,-0.0535,52.44,-17.38,5.44,-5.4175,4.3918,4.5442,8.3238
9,3,0,0,06.463,6463,-5.6400,-1.8500,5.4000,8.0245,0.4680,0.8138,0.3742,51.44,-12.00,13.19,-5.4468,3.5693,4.6569,8.0059
9,3,0,0,06.584,6584,-4.8800,-1.3800,6.0100,7.8638,-0.7287,0.3163,0.7516,47.38,-8.69,14.19,-5.3721,2.9171,4.8352,7.7941
9,3,0,0,06.705,6705,-5.3000,-0.2400,5.8500,7.8975,-1.0014,-0.9479,1.0908,50.50,4.25,18.00,-5.3626,2.5011,4.9690,7.7268
9,4,0,0,06.827,6827,-7.5100,4.4700,3.8300,9.5420,-1.2425,-1.7606,1.2119,57.38,27.56,23.13,-5.6456,2.7605,4.8189,7.9192
9,4,0,0,06.952,6952,-8.6700,3.0100,1.6400,9.3230,-0.2422,-0.6741,-0.0207,63.63,45.56,24.69,-6.0441,2.7934,4.4000,7.9809
9,4,0,0,07.115,7115,-6.8400,8.1600,1.0900,10.7032,-1.0494,-0.2760,3.1994,52.00,65.56,36.00,-6.1490,3.5006,3.9638,8.1102
9,4,0,0,07.236,7236,-5.1700,9.5300,0.0400,10.8421,-0.1134,-0.2443,0.8694,39.56,76.63,48.81,-6.0200,4.2951,3.4467,8.1589
9,4,0,0,07.356,7356,-5.8500,7.3700,1.7100,9.5637,0.3382,0.6087,0.6916,37.00,74.63,51.63,-5.9976,4.7003,3.2179,8.2716
9,4,0,0,07.477,7477,-3.7300,9.2600,3.7500,10.6641,-0.2345,0.7439,2.2613,25.25,72.75,59.00,-5.6988,5.3012,3.2880,8.4492
9,4,0,0,07.601,7601,-1.6300,11.0600,2.8600,11.5395,-0.4701,-0.2738,1.9319,9.50,77.06,73.06,-5.1626,6.0600,3.2316,8.5918
9,4,0,0,07.722,7722,-2.9200,10.6300,2.2200,11.2451,-0.6600,-0.6861,0.2629,3.69,80.81,82.56,-4.8671,6.6622,3.0983,8.8133
9,4,0,0,07.845,7845,-3.4300,11.2700,0.6600,11.7989,0.2389,-0.2716,-1.0025,7.69,82.88,81.94,-4.6777,7.2694,2.7770,9.0795
9,4,0,0,07.966,7966,-3.1600,9.0900,2.3200,9.8993,0.6032,0.6883,-1.0570,15.19,77.63,73.38,-4.4777,7.5093,2.7168,9.1554
9,4,0,0,08.128,8128,-2.6300,9.9000,2.4700,10.5370,0.4636,0.5301,-0.9010,21.31,71.69,60.50,-4.2342,7.8244,2.6843,9.2927
9,4,0,0,08.250,8250,-3.5000,8.7800,3.3700,10.0347,0.4352,0.0305,-0.8890,25.69,66.81,55.19,-4.1375,7.9503,2.7746,9.3821
9,4,0,0,08.370,8370,-6.2800,8.4500,3.6800,11.1527,0.6512,0.0371,-2.3060,35.88,61.06,45.56,-4.4198,8.0161,2.8939,9.6004
9,4,0,0,08.492,8492,-8.1500,5.8300,4.0300,10.8006,1.0068,1.0865,-2.4718,47.06,43.31,29.94,-4.9114,7.7281,3.0436,9.6492
9,4,0,0,08.618,8618,-7.2900,4.1500,4.3500,9.4493,1.7639,2.0540,-1.2894,44.13,17.13,18.94,-5.2248,7.2566,3.2158,9.5025
9,4,0,0,08.739,8739,-1.0600,-2.9600,8.0100,8.6050,0.7527,1.0265,-0.9523,32.06,-1.31,15.38,-4.6760,5.9103,3.8475,8.4617
9,4,0,0,08.859,8859,-2.0500,0.0200,5.8500,6.1988,-0.8029,-1.4432,-0.2203,34.13,-0.63,10.69,-4.3299,5.1341,4.1114,7.8747
9,5,0,0,08.980,8980,-8.0600,0.1800,6.0800,10.0976,-0.2574,-2.0006,0.2782,47.63,3.13,10.19,-4.8215,4.4813,4.3708,7.9014
9,5,0,0,09.142,9142,-8.4900,0.0700,5.3500,10.0353,-0.1789,0.0098,0.2280,55.06,8.13,11.25,-5.3049,3.9000,4.4998,7.9750
9,5,0,0,09.266,9266,-6.7100,1.7400,5.2500,8.6956,-0.4472,0.4320,1.8762,51.25,19.69,17.50,-5.4901,3.6153,4.5987,8.0224
9,5,0,0,09.387,9387,-6.4900,3.1900,5.8100,9.2764,-0.3807,0.4145,0.6730,44.69,30.06,26.00,-5.6218,3.5593,4.7583,8.1802
9,5,0,0,09.511,9511,-5.3500,4.3500,5.5000,8.8201,-1.1683,0.1058,0.9130,40.69,38.00,26.94,-5.5860,3.6635,4.8561,8.2587
9,5,0,0,09.632,9632,-3.2700,8.3300,4.4900,10.0121,-1.0287,-1.6712,1.7715,35.69,55.19,38.00,-5.2808,4.2784,4.8078,8.3251
9,5,0,0,09.752,9752,-7.0100,9.0800,1.6700,11.5920,-0.5531,-1.7301,0.2225,36.63,71.50,47.94,-5.5087,4.9111,4.3943,8.5892
9,5,0,0,09.873,9873,-7.2700,7.8800,2.2500,10.9549,0.2618,0.0120,1.3286,34.44,75.81,55.56,-5.7408,5.3024,4.1118,8.8305
9,5,0,0,09.994,9994,-2.8900,9.4400,2.3700,10.1530,-0.3065,0.3447,2.2417,20.38,77.19,66.63,-5.3651,5.8476,3.8822,8.8346
9,5,0,0,10.156,10156,-3.4300,9.5700,2.1200,10.3848,0.3698,-0.0807,0.1298,11.25,77.69,76.63,-5.1101,6.3381,3.6500,8.9223
9,5,0,0,10.279,10279,-3.0300,9.6200,2.6300,10.4232,0.3556,0.5749,0.6763,8.44,74.75,78.06,-4.8360,6.7706,3.5156,9.0326
9,5,0,0,10.404,10404,-1.1900,10.0800,3.4400,10.7171,0.4560,0.6218,0.1407,4.13,71.63,78.31,-4.3556,7.2067,3.5056,9.1212
9,5,0,0,10.525,10525,-0.9600,10.3000,4.2300,11.1761,0.0578,0.1102,-0.8814,5.31,69.00,73.31,-3.9081,7.6143,3.6011,9.2854
9,5,0,0,10.645,10645,-3.3200,9.3900,2.6900,10.3165,0.4069,-0.8018,-3.3685,20.81,67.50,58.63,-3.8306,7.8483,3.4810,9.4014
9,5,0,0,10.767,10767,-7.9800,8.6300,3.4100,12.2387,0.3458,-0.7341,-1.2130,38.69,63.13,46.13,-4.3774,7.9513,3.4717,9.7179
9,5,0,0,10.887,10887,-6.4600,7.3700,3.4700,10.3966,0.6316,0.1571,-3.0587,48.06,57.19,38.75,-4.6518,7.8747,3.4715,9.7827
9,5,0,0,11.008,11008,-8.0800,1.2300,4.2100,9.1937,0.2705,0.9850,-4.2793,62.00,12.69,10.81,-5.1036,6.9991,3.5688,9.3686
9,5,0,0,11.176,11176,-4.8000,-1.5800,4.3100,6.6417,0.7145,-0.6163,-0.9272,57.69,-20.94,355.63,-5.0636,5.8686,3.6665,8.5746
9,5,0,0,11.298,11298,-11.5700,-2.9400,2.1300,12.1262,0.4254,-0.3349,0.2236,60.38,-39.69,350.44,-5.9210,4.7078,3.4640,8.3199
9,5,0,0,11.418,11418,-6.5200,-4.3800,3.8300,8.7386,0.8498,1.7704,0.9348,58.88,-25.06,4.38,-5.9999,3.5103,3.5122,7.7882
9,5,0,0,11.539,11539,-4.3900,-2.4500,5.5300,7.4737,-0.7407,1.0854,0.3076,49.69,-15.44,8.75,-5.7877,2.7249,3.7781,7.4295
9,5,0,0,11.660,11660,-4.7700,-0.9400,5.4500,7.3034,-1.3319,-0.6250,1.4268,49.81,-1.38,11.00,-5.6536,2.2419,3.9984,7.2786
9,6,0,0,11.781,11781,-6.7400,4.7800,4.1500,9.2465,-1.1770,-1.6046,1.6624,55.56,25.06,18.38,-5.7968,2.5764,4.0184,7.5092
9,6,0,0,11.902,11902,-9.7200,5.4600,2.6900,11.4685,-0.1014,-0.4941,1.6995,55.50,47.81,28.56,-6.3138,2.9564,3.8433,7.9609
9,6,0,0,12.027,12027,-6.6200,6.1000,3.7100,9.7365,0.2051,0.8290,2.2406,43.56,54.81,41.69,-6.3541,3.3706,3.8258,8.1469
9,6,0,0,12.190,12190,-2.6700,8.7500,5.5600,10.7054,-0.6654,0.2683,2.3660,21.94,60.25,59.88,-5.8686,4.0795,4.0543,8.2171
9,6,0,0,12.311,12311,-2.3400,10.0400,3.1000,10.7651,-0.7374,-0.3414,0.9174,12.88,68.75,70.19,-5.4037,4.8649,3.9285,8.2644
9,6,0,0,12.431,12431,-1.1800,10.2300,3.5500,10.8926,0.5029,-0.2869,2.5405,3.25,69.50,82.19,-4.8471,5.5719,3.8787,8.3417
9,6,0,0,12.552,12552,2.1900,8.2500,5.4100,10.1058,-0.1014,0.0295,1.4628,-11.88,66.56,99.88,-3.9198,5.9248,4.0805,8.1926
9,6,0,0,12.673,12673,0.1000,11.8300,1.9100,11.9836,-1.2381,0.3589,-3.3205,-4.13,74.69,89.75,-3.3901,6.7030,3.7944,8.4155
9,6,0,0,12.795,12795,-5.6500,9.1800,2.1500,10.9917,0.3000,0.2694,-2.0977,15.75,75.94,68.06,-3.6879,7.0294,3.5778,8.7071
9,6,0,0,12.915,12915,-3.1400,9.6100,2.9000,10.5177,0.0469,0.4134,-0.2607,19.81,73.06,61.44,-3.6157,7.3694,3.4884,8.9191
9,6,0,0,13.036,13036,-3.8400,9.3500,2.9700,10.5351,0.1571,-0.5225,-2.1064,27.13,71.75,54.19,-3.6452,7.6304,3.4201,9.1219
9,6,0,0,13.198,13198,-7.4300,6.0900,2.2800,9.8738,-0.0600,-0.8498,-2.8253,52.38,70.25,34.94,-4.1440,7.4274,3.2699,9.1122
9,6,0,0,13.323,13323,-11.4300,5.3600,1.1600,12.6775,0.1429,0.2203,-1.9100,69.31,62.81,18.94,-5.1041,7.1550,2.9919,9.2842
9,6,0,0,13.445,13445,-7.6400,2.5200,1.9400,8.2755,0.5705,1.9886,-2.0126,69.75,18.50,8.63,-5.4383,6.5442,2.8532,8.9746
9,6,0,0,13.565,13565,-6.4900,-0.9400,4.3400,7.8638,0.1604,1.8642,-2.9878,53.44,-23.06,349.56,-5.5768,5.5580,3.0492,8.4433
9,6,0,0,13.687,13687,-4.3100,-2.8900,4.0900,6.6073,0.6207,0.1909,0.1385,43.56,-31.00,342.88,-5.4099,4.4448,3.1863,7.6926
9,6,0,0,13.807,13807,-7.0300,-3.8000,4.9500,9.4002,0.2073,-0.5214,1.8097,50.19,-28.19,353.56,-5.6234,3.3583,3.4187,7.3884
9,6,0,0,13.928,13928,-7.5400,-0.3300,4.6800,8.8805,-0.3272,0.1538,0.8061,55.31,-16.44,2.44,-5.8760,2.8723,3.5849,7.4585
9,6,0,0,14.049,14049,-6.6100,-2.4800,4.8800,8.5824,-0.6349,0.2727,-0.8858,52.00,-17.69,357.63,-5.9727,2.1670,3.7556,7.3806
9,7,0,0,14.216,14216,-6.6000,2.5100,4.8100,8.5438,-0.9185,-0.5487,2.8023,54.88,5.44,7.31,-6.0553,2.2122,3.8945,7.5318
9,7,0,0,14.337,14337,-7.3900,3.7600,4.1400,9.2676,-0.3294,-1.1519,1.0232,56.19,32.69,20.75,-6.2312,2.4162,3.9269,7.7515
9,7,0,0,14.458,14458,-9.3500,5.2000,2.8400,11.0692,-0.4625,-0.6545,1.8228,56.44,50.25,27.25,-6.6422,2.7830,3.7837,8.1351
9,7,0,0,14.579,14579,-5.8300,7.4900,3.0800,9.9787,0.1549,0.1734,3.2856,41.06,63.94,45.88,-6.5352,3.4033,3.6909,8.2410
9,7,0,0,14.701,14701,-2.2000,7.7700,3.5200,8.8093,-0.0633,0.1953,2.3791,23.06,67.06,64.69,-5.9639,3.9787,3.6684,8.0533
9,7,0,0,14.822,14822,-0.7600,9.6200,3.3100,10.2019,-0.7330,0.2771,1.2250,11.81,70.81,74.44,-5.2782,4.7221,3.6212,7.9542
9,7,0,0,14.943,14943,0.6700,10.4000,2.0100,10.6136,-0.6338,-0.0556,1.1661,4.56,76.00,80.50,-4.4943,5.4703,3.4089,7.8577
9,7,0,0,15.069,15069,1.0200,10.9700,1.9300,11.1851,-0.0840,-0.4691,1.6352,-4.06,78.06,91.44,-3.7677,6.1950,3.2140,7.9312
9,7,0,0,15.231,15231,2.1200,11.3900,2.3100,11.8137,0.3294,0.1025,1.5893,-17.25,75.94,107.50,-2.9918,6.8796,3.0949,8.1153
9,7,0,0,15.353,15353,3.2800,9.1500,2.8800,10.1378,0.6021,0.5541,0.5378,-26.31,72.44,113.25,-2.1654,7.1788,3.0666,8.1011
9,7,0,0,15.478,15478,4.2700,8.8600,2.9300,10.2624,0.4243,0.7079,-1.5043,-23.13,72.06,104.19,-1.3174,7.4003,3.0486,8.1113
9,7,0,0,15.599,15599,2.0900,8.7300,2.8600,9.4213,-0.3185,0.5781,-3.9281,-7.25,74.31,83.00,-0.8684,7.5755,3.0237,8.2028
9,7,0,0,15.721,15721,-4.7000,9.5600,1.6400,10.7784,-0.3360,0.0425,-3.3728,21.75,76.44,50.69,-1.3733,7.8370,2.8414,8.4486
9,7,0,0,15.842,15842,-4.5900,8.8500,1.6400,10.1035,-0.0698,-0.4920,-0.4112,31.88,77.69,41.19,-1.7972,7.9705,2.6831,8.5999
9,7,0,0,15.963,15963,-4.9200,9.6100,1.9400,10.9691,0.5836,-0.7658,-1.2370,36.81,78.56,41.38,-2.2087,8.1865,2.5851,8.8646
9,7,0,0,16.084,16084,-9.1700,4.6200,2.1600,10.4928,-0.1953,-0.1156,-3.8834,55.31,74.50,25.63,-3.1260,7.7166,2.5291,8.7014
9,7,0,0,16.247,16247,-11.6900,3.0200,0.4600,12.0826,0.2193,0.3153,-1.7530,79.31,37.19,356.44,-4.2545,7.0977,2.2565,8.5773
9,7,0,0,16.369,16369,-9.9500,2.1500,1.0100,10.2296,0.3600,1.0690,-1.3003,76.44,-13.63,352.19,-5.0050,6.4457,2.0922,8.4247
9,7,0,0,16.494,16494,-7.6100,-0.6700,2.8000,8.1364,0.1811,1.7028,-1.9951,61.06,-34.13,342.38,-5.3483,5.5080,2.1855,7.9824
9,7,0,0,16.615,16615,-4.3200,-2.9800,3.7800,6.4677,0.1091,1.0025,-1.1999,47.69,-38.88,334.63,-5.2128,4.3895,2.3956,7.2236
9,7,0,0,16.735,16735,-4.8900,-4.7900,4.1500,8.0049,0.1265,-0.4854,-0.2705,44.06,-43.19,331.88,-5.1703,3.1799,2.6268,6.6139
9,7,0,0,16.857,16857,-6.7900,-3.3100,3.7200,8.4201,-0.4494,-0.8978,0.6741,49.38,-44.44,332.63,-5.3837,2.3247,2.7708,6.4858
9,8,0,0,16.977,16977,-8.5200,-2.5100,3.6200,9.5914,-0.2694,-0.3469,1.6002,56.88,-38.81,337.13,-5.7970,1.6876,2.8827,6.6905
9,8,0,0,17.098,17098,-7.8000,0.9900,3.2600,8.5116,-0.0196,0.1593,5.0942,64.69,4.81,0.69,-6.0609,1.5957,2.9325,6.9196
9,8,0,0,17.261,17261,-5.3100,6.2600,4.2600,9.2483,0.0916,-0.1244,3.6696,43.81,53.13,40.31,-5.9620,2.2103,3.1074,7.0772
9,8,0,0,17.386,17386,-2.7600,10.9400,3.9200,11.9444,-0.1004,0.6687,3.2136,22.81,61.69,62.94,-5.5400,3.3607,3.2145,7.2332
9,8,0,0,17.508,17508,-0.8000,7.7300,5.7400,9.6613,0.6960,0.8639,0.2814,10.25,58.13,70.94,-4.9154,3.9364,3.5473,7.2277
9,8,0,0,17.629,17629,-0.8800,8.6300,4.2800,9.6731,-2.1686,0.0556,-0.2313,10.50,63.56,65.44,-4.3837,4.5549,3.6438,7.2967
9,8,0,0,17.750,17750,-1.4000,13.1400,1.0700,13.2576,-0.7592,-1.4944,0.7669,9.88,76.56,70.19,-3.9905,5.6862,3.3047,7.6927
9,8,0,0,17.870,17870,-2.4400,9.4200,1.8000,9.8960,0.4505,-1.2108,0.5934,7.00,77.44,83.44,-3.7862,6.1782,3.1064,7.8839
9,8,0,0,17.991,17991,-2.1500,9.9400,2.3700,10.4424,0.5421,0.7996,1.2752,1.19,74.31,90.31,-3.5706,6.6739,3.0093,8.1453
9,8,0,0,18.112,18112,0.7900,10.7100,3.0300,11.1584,-0.3185,0.7734,-0.5345,-4.06,74.00,89.25,-2.9960,7.2058,3.0121,8.3649
9,8,0,0,18.279,18279,-2.9200,10.4000,2.0500,10.9949,1.1956,-0.0753,-2.5013,12.88,71.44,70.50,-2.9859,7.6267,2.8853,8.6837
9,8,0,0,18.401,18401,-2.1900,7.9200,5.4600,9.8658,-0.1996,0.2596,-0.9218,22.38,62.94,58.50,-2.8811,7.6654,3.2246,8.8009
9,8,0,0,18.521,18521,-3.8800,8.3400,2.0200,9.4176,-0.1353,-1.6286,-3.7655,38.94,65.13,43.63,-3.0127,7.7543,3.0658,8.8659
9,8,0,0,18.642,18642,-11.3500,3.7500,2.0500,12.1280,0.1309,-1.2403,-2.9027,65.63,62.06,24.75,-4.1113,7.2266,2.9320,8.8161
9,8,0,0,18.763,18763,-10.4600,3.7300,0.6100,11.1219,-0.2171,0.3556,-2.1718,78.69,41.75,10.19,-4.9479,6.7658,2.6260,8.7838
9,8,0,0,18.885,18885,-6.8700,-1.7400,2.1200,7.3972,0.1189,1.2326,-4.4255,69.19,-45.19,348.63,-5.2012,5.6450,2.5593,8.0913
9,8,0,0,19.006,19006,-8.5300,-4.3200,2.1600,9.8025,-0.9654,1.4432,-1.2883,46.31,-53.75,327.38,-5.6399,4.3319,2.5067,7.5403
9,8,0,0,19.133,19133,-3.7100,-3.4700,3.2900,6.0522,0.9577,1.7922,1.7257,41.81,-41.81,336.75,-5.3856,3.3038,2.6099,6.8360
9,8,0,0,19.295,19295,-5.6500,-3.0200,5.0500,8.1575,-1.3068,-0.4440,0.3643,45.25,-32.13,349.88,-5.4204,2.4705,2.9315,6.6391
9,9,0,0,19.415,19415,-10.1100,-0.6000,4.5000,11.0825,-0.6174,0.3382,1.9319,49.44,-19.81,351.88,-6.0384,2.0658,3.1382,7.1118
9,9,0,0,19.536,19536,-5.4000,-1.5600,6.8200,8.8378,0.7243,1.3166,1.3134,45.00,-6.00,6.81,-5.9542,1.5881,3.6233,7.1487
9,9,0,0,19.657,19657,-4.5300,-0.7600,7.7700,9.0262,-1.0450,0.6840,1.0712,38.44,0.50,12.69,-5.7666,1.2786,4.1698,7.2302
9,9,0,0,19.778,19778,-2.6000,3.2800,5.8100,7.1606,-1.1814,-1.5501,0.4854,40.13,14.94,17.25,-5.3493,1.5424,4.3859,7.0873
9,9,0,0,19.905,19905,-5.8500,2.8000,2.1600,6.8358,-1.1716,-3.4121,0.1364,56.75,29.81,16.31,-5.4153,1.7081,4.0926,6.9994
9,9,0,0,20.026,20026,-11.6500,8.0600,-0.5500,14.1770,-0.5814,-2.1413,2.7914,60.44,79.38,29.00,-6.2369,2.5451,3.4808,7.5823
9,9,0,0,20.147,20147,-8.1600,7.7300,-1.3900,11.3257,1.1017,0.6970,1.3821,44.31,85.56,49.00,-6.4903,3.2283,2.8390,7.7850
9,9,0,0,20.310,20310,-3.8900,6.0600,3.4000,7.9634,0.2083,2.1348,1.9842,31.13,64.63,51.88,-6.1476,3.6015,2.9129,7.6973
9,9,0,0,20.430,20430,1.3100,9.5100,3.2000,10.1191,-1.4159,0.2160,3.1983,10.44,70.38,65.69,-5.1649,4.3801,2.9507,7.3870
9,9,0,0,20.553,20553,2.2200,11.2600,1.5300,11.5783,-1.1137,-1.0897,1.6330,-4.25,79.25,84.50,-4.1918,5.2867,2.7635,7.2909
9,9,0,0,20.674,20674,1.4100,11.0500,1.2000,11.2040,-0.9665,-0.9272,1.8457,-14.06,84.44,102.88,-3.4536,6.0461,2.5575,7.4178
9,9,0,0,20.798,20798,1.6900,11.9300,-0.3500,12.0542,-0.3447,-0.2814,-0.8258,-17.81,88.44,112.00,-2.7758,6.8215,2.1743,7.6789
9,9,0,0,20.920,20920,-0.2600,9.6100,1.1500,9.6821,1.4988,0.7265,-2.8067,-1.25,82.19,92.13,-2.4443,7.1889,2.0394,7.8622
9,9,0,0,21.040,21040,-1.5800,8.8000,2.7600,9.3570,-0.2945,0.5040,-0.6949,8.56,77.88,77.25,-2.3304,7.4012,2.1343,8.0476
9,9,0,0,21.161,21161,-1.0900,11.5300,1.1100,11.6345,-0.0884,-0.5618,-1.4584,14.06,80.31,71.06,-2.1669,7.9453,1.9993,8.4747
9,9,0,0,21.323,21323,-6.8000,6.9000,1.3600,9.7826,0.1200,-1.1563,-3.0172,37.88,80.25,57.13,-2.7775,7.8076,1.9151,8.5053
9,9,0,0,21.447,21447,-11.6900,6.6200,-0.3200,13.4381,-0.8149,0.8149,-3.2736,59.88,82.50,34.13,-3.9519,7.6511,1.6206,8.7626
9,9,0,0,21.568,21568,-6.5400,5.6300,-0.6100,8.6510,1.5882,3.7786,0.5192,60.25,42.88,20.19,-4.2929,7.3847,1.3266,8.6443
9,9,0,0,21.692,21692,-1.9400,1.1600,6.6900,7.0615,0.8934,1.6908,0.1418,40.44,23.50,27.25,-3.9829,6.5645,2.0334,7.9430
9,9,0,0,21.813,21813,-6.2700,3.1700,5.9600,9.2132,-0.1014,-0.7189,-1.3025,42.31,17.31,20.06,-4.2843,6.1172,2.5508,7.8919
9,9,0,0,21.933,21933,-7.0000,1.8200,6.3200,9.6049,0.4102,-1.1748,-1.8184,50.81,8.56,12.50,-4.6421,5.5509,3.0475,7.8517
9,9,0,0,22.054,22054,-9.2000,-4.8300,5.0300,11.5443,0.3294,-1.1672,-4.4408,55.19,-27.63,350.81,-5.2427,4.1830,3.3087,7.4787
9,9,0,0,22.175,22175,-9.1600,-4.7500,3.4800,10.8894,-0.6610,0.2923,-0.4145,47.63,-44.81,332.44,-5.7589,3.0058,3.3313,7.3006
9,9,0,0,22.339,22339,-5.6000,-3.5100,4.9600,8.2633,0.0873,2.5067,1.4857,38.38,-28.56,340.50,-5.7380,2.1472,3.5459,7.0788
9,9,0,0,22.464,22464,-1.5100,-3.6100,7.8900,8.8071,0.0022,0.8858,3.1689,33.13,-14.50,2.00,-5.1809,1.3886,4.1184,6.7624
9,10,0,0,22.585,22585,-4.1500,1.4000,6.7700,8.0632,-1.3854,-1.4715,1.6908,39.88,3.94,18.06,-5.0450,1.3901,4.4678,6.8808
9,10,0,0,22.705,22705,-10.5400,2.9700,5.7000,12.3451,-0.3992,-0.9098,-0.7559,48.63,12.44,17.13,-5.7691,1.5983,4.6302,7.5681
9,10,0,0,22.826,22826,-6.8700,0.1700,5.3100,8.6846,-0.0229,0.1385,0.1538,50.81,9.44,14.44,-5.9142,1.4101,4.7197,7.6969
9,10,0,0,22.948,22948,-4.4800,1.2400,4.8400,6.7107,-1.0112,-0.7363,2.1369,50.06,22.06,20.75,-5.7252,1.3876,4.7356,7.5584
9,10,0,0,23.068,23068,-3.3300,5.9500,1.9800,7.1001,-2.0126,-1.9188,2.6114,45.75,55.88,36.25,-5.4096,1.9888,4.3725,7.2345
9,10,0,0,23.189,23189,-6.3500,9.7400,-1.0700,11.6763,-1.3068,-1.8031,-0.2934,44.38,82.63,43.31,-5.5335,3.0103,3.6553,7.2830
9,10,0,0,23.357,23357,-8.0000,9.3700,-0.9300,12.3556,0.4800,-0.3567,2.4489,39.38,93.31,53.50,-5.8585,3.8483,3.0511,7.6447
9,10,0,0,23.478,23478,-3.2100,9.4800,0.3900,10.0163,1.1366,0.0109,2.9038,17.88,87.13,78.13,-5.5095,4.5904,2.7004,7.6628
9,10,0,0,23.598,23598,-0.8900,9.4700,2.5200,9.8399,0.5934,0.2727,2.1533,1.94,80.75,94.69,-4.9008,5.2334,2.6766,7.6531
9,10,0,0,23.719,23719,1.7700,9.9400,1.4100,10.1943,-0.1167,0.5989,0.9327,-8.75,80.44,102.19,-4.0217,5.8536,2.5097,7.5325
9,10,0,0,23.840,23840,1.6800,12.1700,1.4900,12.3754,0.4560,0.7396,1.0821,-14.69,80.13,103.56,-3.2704,6.6860,2.3754,7.8128
9,10,0,0,23.961,23961,3.3100,8.6600,2.4800,9.5970,0.3240,0.1178,-0.3469,-19.00,77.56,104.06,-2.4033,6.9461,2.3891,7.7286
9,10,0,0,24.082,24082,1.0800,9.3100,1.8700,9.5572,-0.4625,-0.3862,-2.3038,-7.94,78.81,94.31,-1.9443,7.2576,2.3207,7.8638
9,10,0,0,24.205,24205,-1.7300,9.7300,0.7500,9.9110,-0.3327,-0.4625,-1.5752,5.94,81.63,82.81,-1.9160,7.5834,2.1137,8.1023
9,10,0,0,24.370,24370,-2.4800,11.2500,0.9900,11.5626,-0.1920,-0.2694,-0.5585,13.38,84.31,78.19,-1.9903,8.0666,1.9657,8.5378
9,10,0,0,24.492,24492,-4.5700,10.3500,1.2800,11.3862,-0.1047,0.1778,-2.7096,24.38,84.69,67.06,-2.3303,8.3675,1.8753,8.8860
9,10,0,0,24.612,24612,-7.6200,7.7800,1.0400,10.9396,0.2127,0.4276,-3.7132,47.13,80.81,42.63,-3.0273,8.2900,1.7652,9.0003
9,10,0,0,24.733,24733,-8.6900,5.4400,1.3000,10.3344,0.4091,0.7963,-2.6802,66.38,61.75,21.13,-3.7735,7.9145,1.7039,8.9321
9,10,0,0,24.854,24854,-7.1900,2.0300,1.8400,7.6943,0.5454,0.9861,-3.1394,72.13,8.75,4.81,-4.2237,7.1391,1.7219,8.4718
9,10,0,0,24.977,24977,-10.5600,-2.1400,2.6700,11.1005,-0.1811,1.9929,-1.7486,57.81,-33.13,346.06,-5.0587,5.9163,1.8468,8.0002
9,10,0,0,25.102,25102,-4.0100,-2.8700,4.7300,6.8330,0.8301,1.5501,1.0625,46.25,-24.63,352.06,-4.9205,4.7585,2.2267,7.1981
9,10,0,0,25.224,25224,-2.7100,-1.7900,6.0400,6.8578,-0.5694,-0.4723,-0.1124,46.19,-20.50,357.75,-4.6292,3.8956,2.7292,6.6373
9,10,0,0,25.386,25386,-13.5100,-6.8100,4.0700,15.6672,-0.3720,-2.1358,-2.0519,48.94,-46.69,331.38,-5.7995,2.4849,2.9059,6.9464
9,10,0,0,25.508,25508,-7.0300,-2.9900,2.6900,8.0992,-0.1418,1.0636,-0.2422,48.69,-48.81,326.13,-5.9616,1.7634,2.8775,6.8506
9,10,0,0,25.629,25629,-2.9000,-5.3900,4.1200,7.3781,-0.2313,1.1476,0.0415,39.38,-43.81,325.69,-5.5582,0.8208,3.0412,6.3887
9,10,0,0,25.754,25754,-7.9100,-3.4900,6.3700,10.7390,-1.4312,-0.3447,2.5984,45.31,-28.19,335.75,-5.8681,0.2527,3.4798,6.8270
9,10,0,0,25.876,25876,-7.9900,-1.9200,5.4200,9.8439,0.5901,-0.9730,-2.0769,50.81,-26.69,335.50,-6.1477,-0.0336,3.7355,7.1937
9,10,0,0,25.996,25996,-5.1900,-3.1200,3.2100,6.8538,-0.5411,-0.9207,-1.7661,44.88,-47.94,316.06,-6.0215,-0.4403,3.6663,7.0636
9,10,0,0,26.117,26117,-6.2300,-2.5100,3.9100,7.7718,-0.8039,-0.3142,2.7303,51.25,-40.56,317.13,-6.0490,-0.7130,3.6984,7.1258
9,10,0,0,26.238,26238,-6.3800,-0.3500,4.3800,7.7467,-0.1854,-0.3207,2.4805,62.06,-11.19,335.69,-6.0926,-0.6652,3.7882,7.2050
9,10,0,0,26.401,26401,-9.6000,2.0300,3.4600,10.4044,-0.1265,-0.2902,1.5032,64.44,21.13,351.00,-6.5548,-0.3100,3.7449,7.5555
