participant,rep,equipment_code,exercise_code,timestamp,timestamp_ms,accelX,accelY,accelZ,accelMag,gyroX,gyroY,gyroZ,roll,pitch,yaw,filteredX,filteredY,filteredZ,filteredMag
9,1,0,0,00.000,0,-1.6400,10.0000,0.5900,10.1507,-0.1909,-0.0207,-0.0774,5.88,84.81,44.13,-1.6480,9.6203,0.8053,9.7936
9,1,0,0,00.121,121,-0.9800,9.5900,0.9200,9.6837,0.1025,0.1047,-0.0251,6.06,84.88,43.06,-1.5599,9.6163,0.8204,9.7765
9,1,0,0,00.245,245,-1.1700,9.3800,1.0600,9.5119,-0.1014,-0.0120,-0.1822,7.00,84.69,41.69,-1.5086,9.5852,0.8520,9.7405
9,1,0,0,00.366,366,-1.3900,9.8600,0.8100,9.9904,-0.0545,0.0175,-0.0589,7.75,85.44,41.00,-1.4929,9.6214,0.8465,9.7733
9,1,0,0,00.489,489,-1.2600,9.7000,0.9500,9.8275,0.0622,-0.0109,-0.0851,8.31,85.19,40.25,-1.4622,9.6317,0.8601,9.7800
9,1,0,0,00.610,610,-1.3600,9.6900,0.9700,9.8329,0.0273,-0.0578,0.0545,8.31,84.81,40.56,-1.4488,9.6394,0.8746,9.7868
9,1,0,0,00.772,772,-1.2500,10.7500,1.3000,10.9002,0.0469,0.0545,0.2291,7.25,84.56,41.81,-1.4226,9.7858,0.9306,9.9323
9,1,0,0,00.894,894,0.5700,11.5200,1.6000,11.6445,0.2182,0.2836,1.3363,1.94,83.75,45.81,-1.1600,10.0143,1.0188,10.1326
9,1,0,0,01.016,1016,2.4400,10.3600,1.7200,10.7815,0.5694,-0.1702,1.9395,-10.00,80.75,56.69,-0.6856,10.0599,1.1112,10.1442
9,1,0,0,01.141,1141,2.4100,10.1900,2.4100,10.7449,0.8378,-0.3251,1.3494,-20.00,74.69,67.50,-0.2777,10.0770,1.2824,10.1621
9,1,0,0,01.262,1262,4.4600,9.3200,2.7700,10.6971,0.8607,0.2367,2.4587,-32.81,66.63,79.31,0.3466,9.9772,1.4784,10.0921
9,1,0,0,01.383,1383,6.8000,5.6200,3.2500,9.4014,0.6807,-0.0513,2.3846,-48.19,54.56,93.44,1.1970,9.4031,1.7119,9.6323
9,1,0,0,01.503,1503,6.0000,3.3700,3.7800,7.8515,0.7036,-0.2269,1.4366,-56.25,37.56,103.88,1.8299,8.6081,1.9844,9.0214
9,1,0,0,01.624,1624,6.6000,1.6500,4.2900,8.0428,0.3294,0.0894,1.5468,-60.69,19.69,111.94,2.4585,7.6912,2.2882,8.3925
9,1,0,0,01.787,1787,7.0400,-2.3200,3.9200,8.3851,0.7996,0.0273,1.4464,-63.63,-11.75,122.44,3.0622,6.3720,2.5032,7.4997
9,1,0,0,01.913,1913,6.7900,-3.5700,3.4200,8.3991,-0.1189,-0.6174,-0.3360,-60.19,-20.94,125.19,3.5534,5.0619,2.6240,6.7183
9,1,0,0,02.034,2034,6.8200,-0.0400,5.4900,8.7552,0.0065,-0.3752,-1.5719,-58.25,-0.88,114.88,3.9839,4.3896,3.0017,6.6445
9,2,0,0,02.156,2156,6.7600,1.2800,4.8500,8.4177,-0.5912,-0.1298,-0.8585,-56.06,11.31,109.31,4.3497,3.9798,3.2453,6.7298
9,2,0,0,02.276,2276,6.7900,1.7700,5.4400,8.8787,-0.9992,0.3218,-1.2490,-54.56,26.50,103.25,4.6713,3.6886,3.5345,6.9224
9,2,0,0,02.397,2397,7.0900,5.9400,3.5400,9.9037,-0.5978,0.5029,-1.3123,-52.06,44.75,97.88,4.9900,3.9853,3.5352,7.2993
9,2,0,0,02.519,2519,6.9600,5.3100,3.4500,9.4096,-0.5443,0.2956,-1.0341,-48.75,55.00,91.50,5.2496,4.1598,3.5240,7.5684
9,2,0,0,02.645,2645,7.2900,8.7000,2.8800,11.7102,0.0796,-0.3392,-2.3257,-39.25,63.50,80.13,5.5185,4.7581,3.4391,8.0573
9,2,0,0,02.807,2807,1.3400,6.4100,4.4400,7.9118,-1.4890,-0.1865,-0.4854,-23.13,64.81,69.13,4.9679,4.9758,3.5710,7.8861
9,2,0,0,02.928,2928,2.3300,10.9000,1.5200,11.2494,-0.8825,0.9872,-1.6472,-17.50,76.38,61.69,4.6203,5.7565,3.3007,8.0857
9,2,0,0,03.050,3050,1.9700,10.1800,1.7800,10.5205,-0.1822,0.1167,-0.9436,-9.75,80.63,50.00,4.2710,6.3394,3.1003,8.2487
9,2,0,0,03.171,3171,0.2800,10.3200,1.3800,10.4156,-0.4887,-0.4941,-1.1148,-3.50,82.31,46.06,3.7451,6.8639,2.8736,8.3305
9,2,0,0,03.297,3297,-0.7000,12.2400,1.3300,12.3319,0.0393,0.0513,-1.3614,5.69,84.38,38.00,3.1594,7.5723,2.6702,8.6286
9,2,0,0,03.419,3419,-1.1700,8.9400,1.7400,9.1826,-0.2073,-0.2509,0.1680,9.56,83.50,34.63,2.5889,7.7526,2.5477,8.5612
9,2,0,0,03.539,3539,-1.2200,11.8700,0.2800,11.9358,-0.1418,-0.1385,-0.4058,9.81,85.94,35.25,2.0869,8.2951,2.2488,8.8443
9,2,0,0,03.660,3660,-2.3100,10.1500,1.5000,10.5171,0.7232,-0.0600,0.2825,11.56,83.13,34.56,1.5075,8.5396,2.1502,8.9342
9,2,0,0,03.822,3822,-0.6700,10.0200,1.8200,10.2060,0.2607,0.1036,0.8018,4.13,79.38,43.31,1.2206,8.7346,2.1066,9.0676
9,2,0,0,03.943,3943,-0.1800,10.6900,2.3000,10.9361,0.3916,0.3382,1.0090,-1.38,77.06,47.38,1.0360,8.9923,2.1321,9.2995
9,2,0,0,04.065,4065,2.0300,10.4900,2.7200,11.0254,0.6709,0.4243,2.2809,-13.25,73.81,56.50,1.1670,9.1897,2.2096,9.5234
9,2,0,0,04.186,4186,4.1800,8.2600,3.3900,9.8586,0.7156,0.2356,1.9548,-28.19,67.44,68.56,1.5640,9.0672,2.3651,9.5002
9,2,0,0,04.311,4311,4.5900,7.4600,3.4900,9.4287,0.4854,0.2542,1.7333,-40.19,60.56,78.63,1.9628,8.8554,2.5134,9.4121
9,2,0,0,04.432,4432,7.0600,5.0600,3.1200,9.2294,0.5672,0.1156,2.3606,-52.81,49.63,90.56,2.6345,8.3552,2.5933,9.1365
9,2,0,0,04.552,4552,7.5900,3.6600,3.4700,9.1129,0.7679,-0.5258,2.0060,-60.13,26.31,103.06,3.2875,7.7365,2.7088,8.8317
9,2,0,0,04.673,4673,7.5100,1.0300,3.5500,8.3704,1.4835,-0.6512,0.9054,-58.75,1.13,108.13,3.8439,6.8528,2.8197,8.3479
9,2,0,0,04.836,4836,3.3600,-4.6100,6.2900,8.4915,-0.0273,-0.6272,1.3755,-48.44,-17.38,110.56,3.7801,5.3423,3.2770,7.3190
9,2,0,0,04.956,4956,6.1900,-2.4000,3.8100,7.6546,-0.4832,1.4072,0.1276,-50.19,-22.13,119.44,4.0977,4.3220,3.3472,6.8319
9,2,0,0,05.078,5078,7.7700,-1.1300,4.9600,9.2872,-0.8181,0.7636,-1.0232,-59.31,-16.56,117.88,4.5816,3.6036,3.5597,6.8300
9,3,0,0,05.203,5203,9.0800,1.1800,4.2900,10.1115,-0.2727,0.0764,-1.1028,-62.38,-1.38,112.50,5.1744,3.2842,3.6560,7.1363
9,3,0,0,05.325,5325,7.2400,0.8400,4.8000,8.7272,-0.1505,-0.4549,-1.7486,-58.94,19.19,100.63,5.4466,2.9621,3.8067,7.2753
9,3,0,0,05.447,5447,6.6500,4.3700,4.6900,9.2366,-0.7854,-0.2727,-1.0701,-52.81,32.44,94.88,5.6052,3.1477,3.9231,7.5310
9,3,0,0,05.567,5567,6.3700,3.9000,4.7200,8.8355,-0.6185,0.3371,-0.9108,-49.06,43.75,90.31,5.7059,3.2468,4.0281,7.7023
9,3,0,0,05.688,5688,5.3300,6.3600,3.2200,8.9009,-0.9196,0.4167,-1.5632,-44.69,57.44,83.94,5.6564,3.6570,3.9216,7.7941
9,3,0,0,05.853,5853,4.7700,8.1400,3.1800,9.9561,-0.2509,-0.1593,-1.7181,-32.69,68.13,70.38,5.5396,4.2478,3.8239,7.9595
9,3,0,0,05.977,5977,3.2400,8.5000,2.6400,9.4719,-0.5345,-0.3338,-1.6832,-20.63,72.00,59.56,5.2366,4.8081,3.6679,7.9996
9,3,0,0,06.098,6098,-0.1700,11.2000,1.6400,11.3207,-0.6512,-0.3491,-1.9537,-8.06,76.94,50.31,4.5241,5.6504,3.4007,7.9975
9,3,0,0,06.219,6219,-1.4800,9.1700,2.0900,9.5209,-0.2225,-0.0240,-1.2370,2.63,78.94,40.13,3.7329,6.1142,3.2280,7.8573
9,3,0,0,06.339,6339,-0.7400,10.9700,-0.2800,10.9985,-1.5566,0.2389,-0.3862,6.75,85.81,34.44,3.1435,6.7541,2.7657,7.9466
9,3,0,0,06.460,6460,-2.7100,11.0600,-0.0200,11.3872,0.2443,0.1963,-1.1366,13.19,89.38,26.44,2.3722,7.3215,2.3986,8.0613
9,3,0,0,06.581,6581,-2.1100,9.4500,1.0600,9.7405,0.1134,-0.4527,-0.2280,17.31,87.38,23.13,1.7815,7.6020,2.2222,8.1180
9,3,0,0,06.702,6702,-2.7600,10.8400,0.3600,11.1916,-0.1953,-0.1625,-0.2945,18.63,88.75,24.25,1.1831,8.0287,1.9768,8.3527
9,3,0,0,06.869,6869,-4.5800,7.4600,1.3600,8.8588,-0.0218,0.2258,0.3807,21.44,86.44,23.31,0.4237,7.9537,1.8955,8.1874
9,3,0,0,06.990,6990,-2.1200,12.0200,-0.5000,12.2158,0.2073,0.1789,0.2738,15.69,88.38,29.00,0.0885,8.4896,1.5799,8.6358
9,3,0,0,07.111,7111,-1.9500,9.8000,1.5900,10.1178,1.0167,-0.1156,1.0930,12.50,82.50,34.00,-0.1802,8.6622,1.5812,8.8072
9,3,0,0,07.232,7232,-1.2600,9.3800,2.4200,9.7687,0.7843,-0.1724,1.6013,3.06,77.25,46.06,-0.3225,8.7568,1.6917,8.9246
9,3,0,0,07.353,7353,1.0000,11.1700,1.9100,11.3762,0.5029,-0.0425,1.1574,-6.56,73.56,56.38,-0.1482,9.0748,1.7205,9.2377
9,3,0,0,07.475,7475,0.3400,7.9300,4.1400,8.9521,1.5435,-0.2029,0.5280,-9.38,65.06,59.31,-0.0839,8.9240,2.0393,9.1544
9,3,0,0,07.596,7596,1.7800,8.7300,4.3700,9.9236,0.1942,0.1440,1.9548,-17.31,58.63,68.75,0.1618,8.8984,2.3465,9.2040
9,3,0,0,07.722,7722,3.7500,7.0900,5.1600,9.5371,0.7407,0.3927,0.9239,-25.38,54.50,74.56,0.6346,8.6601,2.7172,9.0985
9,3,0,0,07.885,7885,6.9900,7.0100,4.7000,10.9586,0.6207,-0.1134,1.7399,-39.06,44.13,89.06,1.4721,8.4427,2.9785,9.0729
9,3,0,0,08.005,8005,4.9700,4.6300,6.3300,9.2848,0.6894,-0.0327,1.5806,-43.63,32.00,96.31,1.9330,7.9402,3.4201,8.8590
9,3,0,0,08.126,8126,5.2000,0.4300,5.1300,7.3172,0.3687,0.5552,3.6685,-51.81,9.88,111.94,2.3635,6.9506,3.6454,8.1967
9,3,0,0,08.248,8248,8.8800,0.5700,3.8100,9.6796,0.0011,0.8934,0.5672,-57.19,-14.50,128.25,3.2222,6.1098,3.6671,7.8205
9,3,0,0,08.372,8372,5.7000,-4.1400,4.3900,8.3007,0.3371,-0.1276,1.7181,-58.13,-23.56,130.69,3.5487,4.7591,3.7624,7.0284
9,3,0,0,08.493,8493,8.0400,-2.6000,4.9300,9.7830,-0.5454,-0.3851,-0.1244,-51.81,-31.38,140.00,4.1406,3.7894,3.9162,6.8440
9,3,0,0,08.615,8615,5.9400,-1.6200,5.6900,8.3836,0.3752,0.0164,-1.0439,-54.00,-20.81,131.31,4.3777,3.0766,4.1500,6.7714
9,4,0,0,08.737,8737,7.6800,-1.2300,4.9200,9.2034,-0.3774,0.1604,-0.7592,-56.38,-15.94,127.38,4.8128,2.5091,4.2515,6.8945
9,4,0,0,08.899,8899,7.4400,1.2000,4.8800,8.9782,-0.0960,0.1462,-1.5173,-58.31,5.94,108.19,5.1590,2.3366,4.3343,7.1317
9,4,0,0,09.019,9019,7.7100,2.7800,4.7100,9.4529,-0.6065,0.1767,-1.0723,-57.31,22.13,99.13,5.4952,2.3950,4.3838,7.4264
9,4,0,0,09.140,9140,7.2200,3.3900,3.9400,8.8963,-0.4680,0.2465,-1.2763,-55.44,35.25,94.13,5.7225,2.5261,4.3253,7.6050
9,4,0,0,09.266,9266,6.4700,6.2500,3.7800,9.7577,-0.8061,-0.1069,-2.8231,-45.75,52.63,81.56,5.8210,3.0168,4.2535,7.8152
9,4,0,0,09.388,9388,2.8200,7.2000,3.9900,8.7013,-0.4821,-0.3905,-1.5184,-30.06,62.13,68.06,5.4255,3.5681,4.2187,7.7437
9,4,0,0,09.510,9510,3.8000,9.0600,3.0200,10.2783,-0.6960,-0.1800,-1.5272,-21.81,67.19,61.94,5.2113,4.2918,4.0608,7.8783
9,4,0,0,09.630,9630,-0.7000,10.0800,2.6800,10.4537,-0.6883,-0.2803,-2.6038,-7.06,72.44,48.81,4.4324,5.0545,3.8788,7.7614
9,4,0,0,09.751,9751,-2.0400,9.4900,1.9500,9.9007,-1.0712,0.1636,-0.7396,3.94,78.31,37.50,3.5795,5.6390,3.6247,7.5993
9,4,0,0,09.916,9916,-1.7800,12.3700,-1.2400,12.5588,-0.8912,0.4363,-0.9992,9.13,89.69,27.63,2.8732,6.5260,2.9836,7.7295
9,4,0,0,10.040,10040,-2.6400,10.6700,0.0600,10.9919,0.2934,-0.0884,-0.8508,16.75,89.69,19.13,2.1467,7.0720,2.5984,7.8341
9,4,0,0,10.162,10162,-2.9300,8.4800,1.0900,9.0379,0.3349,-0.2967,-0.2531,20.00,87.44,18.38,1.4777,7.2576,2.3996,7.7855
9,4,0,0,10.282,10282,-4.9600,8.1900,0.5200,9.5890,-0.1320,-0.2945,-0.3709,22.19,87.81,18.63,0.6294,7.3804,2.1519,7.7135
9,4,0,0,10.404,10404,-4.6500,11.0500,-0.5800,12.0026,-0.3185,0.5007,0.5094,21.63,90.44,20.06,-0.0663,7.8640,1.7919,8.0658
9,4,0,0,10.524,10524,-2.1600,9.2600,1.0200,9.5631,0.6720,0.7101,0.5476,17.88,86.38,22.13,-0.3422,8.0480,1.6902,8.2306
9,4,0,0,10.645,10645,-1.9100,9.2300,1.4000,9.5290,-0.0098,0.0578,0.7799,13.38,83.69,26.25,-0.5488,8.2037,1.6520,8.3864
9,4,0,0,10.769,10769,-2.0000,11.4000,0.8000,11.6017,0.2313,0.0295,1.2970,6.88,83.88,34.19,-0.7400,8.6249,1.5397,8.7925
9,4,0,0,10.933,10933,1.5900,9.7800,2.1000,10.1285,0.6109,0.1963,1.8850,-10.31,78.31,49.63,-0.4330,8.7771,1.6135,8.9347
9,4,0,0,11.054,11054,2.0600,9.0100,2.4500,9.5617,-0.1309,0.1811,2.0311,-22.25,75.75,60.69,-0.1045,8.8078,1.7238,8.9755
9,4,0,0,11.175,11175,6.1700,9.9200,1.0300,11.7276,0.2749,0.1102,2.2427,-37.56,75.63,75.06,0.7223,8.9544,1.6323,9.1306
9,4,0,0,11.296,11296,5.5800,6.2700,3.0000,8.9134,1.3134,-0.9108,1.1825,-46.94,62.38,84.19,1.3625,8.6006,1.8126,8.8945
9,4,0,0,11.417,11417,5.1900,4.5200,3.4900,7.7166,0.3851,-0.2269,2.1108,-52.25,45.56,92.94,1.8668,8.0629,2.0336,8.5224
9,4,0,0,11.545,11545,7.0700,3.0500,3.6000,8.4998,0.6992,0.4767,2.1675,-62.31,23.38,106.31,2.5525,7.4023,2.2400,8.1442
9,4,0,0,11.666,11666,8.6700,-1.8500,3.2100,9.4284,0.1451,1.1377,1.9624,-71.00,-12.63,116.69,3.3586,6.1831,2.3678,7.4241
9,4,0,0,11.786,11786,8.8900,-1.7100,1.5700,9.1881,-0.5378,0.2727,1.5413,-68.31,-47.88,132.06,4.0875,5.1430,2.2627,6.9482
9,4,0,0,11.948,11948,7.9900,-2.4000,2.6500,8.7534,0.1462,-0.5465,-0.2160,-66.19,-45.00,132.94,4.6018,4.1490,2.3137,6.6139
9,4,0,0,12.069,12069,8.2500,-3.5000,3.6500,9.6765,-0.5018,-0.7549,0.5072,-60.88,-43.06,135.50,5.0825,3.1411,2.4898,6.4728
9,5,0,0,12.190,12190,7.6000,-0.7500,4.2000,8.7156,-0.2814,-0.8988,-1.7671,-59.56,-24.38,130.00,5.4142,2.6283,2.7152,6.6026
9,5,0,0,12.312,12312,6.8600,-0.4000,5.7100,8.9344,0.1789,-0.5694,-0.5607,-57.13,-8.63,120.75,5.6048,2.2293,3.1098,6.7863
9,5,0,0,12.438,12438,7.4500,-0.3000,5.6500,9.3549,-0.3567,-0.1833,-0.4985,-55.19,-5.06,119.00,5.8479,1.8960,3.4446,7.0468
9,5,0,0,12.559,12559,7.6400,1.4100,4.9600,9.2173,-0.2913,-0.0142,-1.0472,-54.88,6.75,113.69,6.0841,1.8319,3.6442,7.3248
9,5,0,0,12.680,12680,6.1300,1.4700,6.0900,8.7650,-0.0480,-0.3218,-0.6196,-51.88,15.06,106.69,6.0901,1.7842,3.9665,7.4837
9,5,0,0,12.801,12801,5.5800,0.6800,5.1500,7.6237,-0.7472,0.5203,-0.8596,-51.50,22.69,101.13,6.0229,1.6387,4.1225,7.4804
9,5,0,0,12.962,12962,5.0900,8.2600,3.2100,10.2196,-0.5400,-0.3043,-2.9234,-40.13,51.25,82.06,5.9000,2.5113,4.0022,7.5587
9,5,0,0,13.083,13083,4.2800,6.2500,5.3500,9.2738,-0.1276,-0.2945,-0.4374,-31.00,54.25,73.81,5.6865,3.0039,4.1798,7.6701
9,5,0,0,13.205,13205,3.5400,7.9900,4.5700,9.8619,-1.1552,-0.1702,-1.9842,-24.38,60.56,69.25,5.4036,3.6610,4.2313,7.7785
9,5,0,0,13.331,13331,-0.3100,10.0400,2.5300,10.3585,-1.3461,0.4189,-1.1945,-13.25,71.38,57.81,4.6507,4.5016,4.0071,7.6125
9,5,0,0,13.452,13452,1.6000,9.3000,1.1000,9.5005,-0.9577,0.6043,-0.0676,-12.44,80.69,54.06,4.2487,5.1339,3.6240,7.5856
9,5,0,0,13.574,13574,0.6100,11.1800,-0.0700,11.1968,-0.4036,0.2618,-1.9384,-6.25,86.44,45.81,3.7692,5.9306,3.1372,7.6955
9,5,0,0,13.694,13694,-2.2500,10.0400,0.9600,10.3337,0.4680,-0.0425,-1.9046,7.88,85.38,31.13,2.9761,6.4721,2.8503,7.6726
9,5,0,0,13.815,13815,-2.9200,9.5200,1.6200,10.0887,-0.0393,-0.5411,-0.9174,16.75,83.88,24.50,2.1991,6.8737,2.6882,7.7013
9,5,0,0,13.981,13981,-4.4200,10.2900,0.5500,11.2126,-0.2378,-0.2945,-0.3600,23.13,88.31,22.13,1.3269,7.3239,2.4064,7.8225
9,5,0,0,14.104,14104,-3.5500,9.5800,0.7200,10.2419,0.2007,0.4931,0.1604,23.31,87.25,20.75,0.6842,7.6212,2.1842,7.9575
9,5,0,0,14.225,14225,-3.3600,9.7000,0.9100,10.3057,0.0262,0.3567,0.5083,20.63,85.06,20.69,0.1513,7.8951,2.0163,8.1499
9,5,0,0,14.346,14346,-3.1000,10.8300,0.6200,11.2820,0.1309,0.1134,1.2523,14.75,84.56,26.81,-0.2771,8.2819,1.8323,8.4867
9,5,0,0,14.467,14467,-0.4800,10.2200,1.3900,10.3253,0.5291,0.1953,2.0126,3.06,82.06,40.25,-0.3039,8.5373,1.7740,8.7249
9,5,0,0,14.588,14588,1.3500,10.1000,2.1400,10.4121,0.1789,0.1811,1.6264,-9.13,79.50,51.44,-0.0859,8.7432,1.8222,8.9315
9,5,0,0,14.709,14709,2.4200,10.0100,1.9900,10.4889,0.1407,0.3916,2.1991,-21.38,78.75,61.81,0.2443,8.9101,1.8444,9.1023
9,5,0,0,14.835,14835,5.1000,8.1000,1.6900,9.7199,0.2923,0.2694,2.6322,-38.56,76.38,76.56,0.8841,8.8034,1.8240,9.0337
9,5,0,0,14.997,14997,5.9200,5.6400,1.3800,8.2922,-0.0633,-0.0469,1.9853,-58.50,66.38,95.94,1.5477,8.3865,1.7655,8.7090
9,5,0,0,15.118,15118,9.1300,3.7700,1.1800,9.9480,0.3033,-0.0611,2.0049,-71.00,49.75,110.50,2.5469,7.7782,1.6883,8.3569
9,5,0,0,15.239,15239,9.7700,1.4400,2.1200,10.1005,0.8487,-1.3581,0.8868,-72.56,11.13,118.25,3.4987,6.9430,1.7452,7.9682
9,5,0,0,15.361,15361,5.5600,-0.2700,3.8800,6.7853,0.8858,-1.4203,-0.2793,-62.19,0.56,114.81,3.7703,5.9925,2.0265,7.3643
9,5,0,0,15.481,15481,5.1200,-1.2400,5.3700,7.5226,0.1571,0.2782,-0.7898,-57.88,0.19,110.38,3.9482,5.0394,2.4671,6.8608
9,6,0,0,15.603,15603,8.8400,2.9100,4.5200,10.3462,-0.3578,0.3512,-1.0232,-60.56,18.56,102.19,4.5928,4.7588,2.7376,7.1579
9,6,0,0,15.724,15724,8.8700,1.1300,5.5000,10.4978,0.4243,-0.3360,0.3982,-60.06,15.19,102.69,5.1564,4.2806,3.1016,7.3846
9,6,0,0,15.849,15849,6.8500,1.5700,5.0000,8.6248,-0.2858,0.5029,-0.7592,-59.94,19.25,99.94,5.3796,3.9234,3.3518,7.4544
9,6,0,0,16.012,16012,7.4600,1.9300,3.5900,8.5009,-0.2302,0.1244,-0.6370,-61.38,29.63,95.50,5.6537,3.6608,3.3832,7.5374
9,6,0,0,16.133,16133,6.6300,3.0500,3.0400,7.9058,-0.7069,0.3283,-1.7606,-57.38,45.31,85.63,5.7824,3.5803,3.3380,7.5760
9,6,0,0,16.253,16253,5.9200,7.2300,1.8100,9.5182,-0.7636,0.0556,-1.8075,-47.94,62.19,74.75,5.8005,4.0612,3.1366,7.7445
9,6,0,0,16.375,16375,5.6800,7.6100,2.6600,9.8615,-0.1909,-0.1494,-1.5250,-38.50,68.56,66.06,5.7846,4.5289,3.0738,7.9637
9,6,0,0,16.501,16501,4.5000,9.3200,2.8000,10.7216,0.0076,-1.0810,-2.8231,-23.81,70.50,54.56,5.6154,5.1602,3.0377,8.2090
9,6,0,0,16.623,16623,-2.0100,7.8500,3.8600,8.9756,-0.0764,-1.2010,-1.9002,-3.31,69.44,42.75,4.6105,5.5147,3.1461,7.8464
9,6,0,0,16.743,16743,-1.6500,9.9000,2.3500,10.3080,-1.2632,-0.0774,-0.5749,3.50,75.44,38.81,3.7856,6.0925,3.0412,7.7909
9,6,0,0,16.864,16864,-1.8900,11.2000,1.2300,11.4248,-0.8388,0.0611,-1.1716,8.94,82.38,32.19,3.0377,6.7656,2.8025,7.9281
9,6,0,0,17.026,17026,-4.5200,10.6800,0.8600,11.6289,-0.1353,-0.1004,-1.5904,22.31,86.50,18.69,2.0418,7.2814,2.5465,7.9795
9,6,0,0,17.147,17147,-4.1300,9.2600,0.9700,10.1855,0.1200,0.0600,-0.2280,28.38,85.94,12.50,1.2285,7.5421,2.3388,7.9914
9,6,0,0,17.269,17269,-3.8100,9.2000,0.7100,9.9830,0.1276,-0.2727,0.4309,26.13,85.44,15.75,0.5645,7.7606,2.1242,8.0658
9,6,0,0,17.394,17394,-4.2900,10.0300,0.5900,10.9249,0.1265,-0.2509,0.6992,22.81,85.63,21.31,-0.0752,8.0596,1.9220,8.2860
9,6,0,0,17.516,17516,-2.0500,10.2800,1.0600,10.5359,0.3327,0.2345,1.5632,13.69,84.31,32.56,-0.3354,8.3522,1.8084,8.5523
9,6,0,0,17.637,17637,-0.4200,10.0000,1.6700,10.1472,0.3414,0.2771,1.3864,3.50,81.69,43.94,-0.3466,8.5694,1.7902,8.7612
9,6,0,0,17.757,17757,-0.2000,10.6000,1.8200,10.7570,0.1484,0.2498,1.8021,-6.25,80.25,52.44,-0.3272,8.8369,1.7941,9.0232
9,6,0,0,17.878,17878,3.0200,10.0400,1.9400,10.6623,0.3523,0.4069,2.7053,-22.19,78.56,65.94,0.1138,8.9955,1.8133,9.1771
9,6,0,0,18.040,18040,5.4600,6.6700,2.5600,8.9919,0.4614,0.1724,2.3649,-44.69,71.94,84.63,0.8183,8.6890,1.9117,8.9344
9,6,0,0,18.165,18165,7.4000,5.8000,1.7900,9.5710,0.2116,0.1898,2.1980,-59.94,63.75,99.00,1.6856,8.3083,1.8957,8.6870
9,6,0,0,18.287,18287,8.7000,2.8100,2.0500,9.3696,0.9370,-0.3796,2.0202,-70.88,42.38,109.13,2.6099,7.5838,1.9160,8.2460
9,6,0,0,18.409,18409,8.7800,0.3900,2.7900,9.2209,0.7396,-0.9872,1.1530,-69.63,-2.75,117.94,3.4230,6.6358,2.0312,7.7380
9,6,0,0,18.529,18529,6.9900,-1.3300,3.6600,8.0015,0.6665,-0.9054,0.2662,-62.88,-12.50,116.88,3.8930,5.5861,2.2458,7.1697
9,6,0,0,18.650,18650,6.3700,-2.6600,3.7300,7.8464,0.0731,-0.6021,1.1159,-56.44,-21.44,120.69,4.2194,4.4995,2.4414,6.6340
9,6,0,0,18.771,18771,5.1400,-0.6600,5.4100,7.4915,0.1560,-0.1658,-2.4598,-55.13,-13.31,114.88,4.3407,3.8196,2.8326,6.4386
9,7,0,0,18.892,18892,8.3100,-1.1300,5.6000,10.0843,-0.4309,0.6654,0.9021,-58.88,-6.31,110.19,4.8638,3.1674,3.1973,6.6266
9,7,0,0,19.060,19060,6.9000,0.4700,5.0200,8.5458,0.1833,-0.1963,-1.4323,-59.56,1.63,107.81,5.1321,2.8119,3.4374,6.7869
9,7,0,0,19.181,19181,7.8300,0.3500,5.5800,9.6212,-0.3992,-0.1102,-0.0087,-58.38,8.19,101.31,5.4876,2.4875,3.7198,7.0809
9,7,0,0,19.302,19302,7.4700,1.5900,4.4200,8.8241,-0.2411,-0.0196,-0.5629,-57.75,14.31,99.75,5.7489,2.3692,3.8121,7.2934
9,7,0,0,19.422,19422,6.2000,1.4700,4.8600,8.0138,-0.3916,0.2138,-1.7519,-55.50,26.69,91.31,5.8083,2.2508,3.9501,7.3760
9,7,0,0,19.543,19543,5.6700,5.0100,3.7200,8.4313,-0.8999,0.2193,-1.8511,-48.69,47.06,79.13,5.7901,2.6143,3.9198,7.4649
9,7,0,0,19.665,19665,5.5800,7.0300,3.1300,9.5055,-0.6501,0.1113,-1.4366,-41.44,58.81,71.19,5.7624,3.1962,3.8157,7.6145
9,7,0,0,19.786,19786,5.1600,9.2400,3.2600,11.0739,-0.6130,-0.2694,-1.7879,-31.13,66.81,62.00,5.6830,3.9926,3.7425,7.8895
9,7,0,0,19.912,19912,3.4000,8.9800,3.2700,10.1436,-0.3360,-0.8268,-1.2632,-20.50,69.81,55.50,5.3822,4.6498,3.6802,8.0083
9,7,0,0,20.075,20075,-0.2900,9.9600,2.9000,10.3777,-0.7265,-0.5334,-1.6712,-5.06,74.31,47.50,4.6347,5.3496,3.5774,7.9307
9,7,0,0,20.195,20195,-1.9300,10.1700,2.1500,10.5724,-0.6316,-0.0894,-1.1694,4.75,78.81,39.31,3.7697,5.9848,3.3893,7.8432
9,7,0,0,20.317,20317,-1.3400,10.4000,1.5200,10.5956,-0.5149,-0.0578,-1.1966,12.00,82.56,31.63,3.0963,6.5666,3.1430,7.9111
9,7,0,0,20.438,20438,-4.5900,9.2700,1.0300,10.3953,-0.0273,-0.3938,-1.6133,22.75,84.38,22.25,2.0835,6.9228,2.8646,7.7764
9,7,0,0,20.558,20558,-5.1500,8.5500,1.3300,10.0695,-0.4331,0.0338,-0.1254,28.63,85.38,16.94,1.1303,7.1373,2.6623,7.7010
9,7,0,0,20.679,20679,-4.2000,9.8100,-0.0600,10.6714,-0.2694,-0.1233,-0.1364,28.25,89.06,15.88,0.4279,7.4895,2.3036,7.8474
9,7,0,0,20.804,20804,-4.6800,8.9100,0.4100,10.0727,0.3338,0.0371,-0.1429,29.69,88.38,15.00,-0.2452,7.6767,2.0541,7.9505
9,7,0,0,20.927,20927,-5.1900,7.5900,0.8000,9.2295,0.3567,-0.1702,-0.2705,31.06,85.69,18.00,-0.8968,7.6652,1.8888,7.9453
9,7,0,0,21.090,21090,-5.2600,8.3500,0.1700,9.8701,-0.2498,-0.1353,-0.0087,31.81,86.75,25.50,-1.4718,7.7555,1.6623,8.0670
9,7,0,0,21.210,21210,-5.3700,9.6800,0.3900,11.0766,0.0349,-0.0884,0.0262,32.00,88.06,27.94,-1.9854,8.0091,1.4947,8.3858
9,7,0,0,21.331,21331,-4.6400,10.3300,1.4400,11.4154,0.5007,0.1974,0.9185,29.19,86.13,33.50,-2.3352,8.3149,1.4875,8.7638
9,7,0,0,21.454,21454,-2.6900,10.2300,2.3300,10.8313,0.9174,0.2313,1.5337,19.81,80.75,44.94,-2.3820,8.5673,1.5985,9.0348
9,7,0,0,21.579,21579,-3.1000,9.5100,2.7800,10.3816,0.7985,0.3491,2.0115,7.31,74.44,57.44,-2.4766,8.6915,1.7542,9.2061
9,7,0,0,21.700,21700,0.3200,9.3700,2.4100,9.6803,0.8149,0.6894,2.5678,-9.88,69.69,71.19,-2.1081,8.7809,1.8406,9.2161
9,7,0,0,21.821,21821,2.5300,7.1300,3.4500,8.3151,1.1039,0.4352,1.7846,-24.19,62.38,81.50,-1.4969,8.5634,2.0527,8.9323
9,7,0,0,21.941,21941,4.1400,6.5200,4.4200,8.8987,0.5880,0.5192,1.0799,-33.88,55.19,87.75,-0.7541,8.2941,2.3646,8.6575
9,7,0,0,22.104,22104,6.6900,4.3300,4.0500,8.9391,0.4821,0.5236,0.9785,-44.31,49.88,92.25,0.2268,7.7717,2.5867,8.1940
9,7,0,0,22.225,22225,6.4900,4.1300,4.1900,8.7597,0.5083,0.0622,0.7538,-48.44,44.88,94.69,1.0522,7.2918,2.7980,7.8808
9,7,0,0,22.346,22346,5.9600,2.9700,4.9300,8.2854,0.2160,-0.0120,0.7090,-52.19,37.63,99.06,1.6989,6.7223,3.0789,7.5866
9,7,0,0,22.472,22472,9.4600,4.5500,4.7500,11.5220,0.1527,-0.0502,0.1702,-55.81,32.50,104.31,2.7216,6.4361,3.2991,7.7275
9,7,0,0,22.593,22593,7.4300,1.3500,5.9100,9.5893,0.2422,0.0545,1.7988,-57.88,21.94,105.00,3.3421,5.7659,3.6432,7.5952
9,7,0,0,22.713,22713,8.8300,0.6500,4.2600,9.8254,0.2225,0.2280,0.6458,-61.75,3.44,112.63,4.0652,5.0917,3.7245,7.5049
9,7,0,0,22.834,22834,7.9700,1.7400,4.3500,9.2451,-0.1756,-0.1385,-0.0196,-62.13,1.00,112.69,4.5798,4.6501,3.8069,7.5558
9,7,0,0,22.955,22955,8.1800,-0.8800,4.4500,9.3536,0.0316,0.0207,1.1105,-61.38,-5.38,116.13,5.0542,3.9213,3.8916,7.4878
9,7,0,0,23.118,23118,7.8200,-0.4500,4.3600,8.9646,-0.1429,0.0796,-0.1385,-62.31,-10.06,118.31,5.4187,3.3453,3.9534,7.4955
9,7,0,0,23.239,23239,9.1800,0.9300,3.7400,9.9561,-0.3000,-0.1614,-0.4167,-61.94,-8.06,114.69,5.9143,3.0270,3.9252,7.7168
9,7,0,0,23.365,23365,5.8300,-0.9100,3.1700,6.6982,-0.1418,-0.3327,-0.9643,-60.44,6.19,104.13,5.9032,2.5082,3.8257,7.4683
9,8,0,0,23.486,23486,7.7800,2.8400,4.6300,9.4885,-0.5727,-0.5072,-1.8686,-55.00,21.75,94.81,6.1505,2.5519,3.9317,7.7330
9,8,0,0,23.607,23607,4.3500,3.6500,6.2900,8.4740,-0.5498,-0.5061,-1.2272,-45.06,36.25,82.88,5.9132,2.6966,4.2425,7.7612
9,8,0,0,23.729,23729,7.2000,5.3200,4.2200,9.8970,-0.9021,0.2629,-0.9479,-43.63,43.75,83.50,6.0828,3.0423,4.2395,8.0143
9,8,0,0,23.849,23849,4.2900,7.9500,4.4100,10.0526,-0.5880,0.0687,-1.7682,-34.06,56.31,71.69,5.8466,3.6890,4.2620,8.1213
9,8,0,0,23.970,23970,4.4100,7.0000,4.4000,9.3706,-0.4309,-0.2356,-0.3480,-29.44,60.75,68.44,5.6573,4.1253,4.2802,8.2063
9,8,0,0,24.138,24138,2.1500,8.4700,3.2500,9.3234,-0.9665,-0.0327,-2.1337,-19.56,68.25,59.94,5.1951,4.6979,4.1444,8.1385
9,8,0,0,24.259,24259,-0.6400,11.5800,2.5100,11.8662,-0.7865,0.1385,-1.6602,-4.94,76.00,46.13,4.4262,5.6047,3.9290,8.1512
9,8,0,0,24.379,24379,0.2700,9.1600,2.0700,9.3949,-0.5051,0.8574,-0.4396,0.13,80.00,36.88,3.8785,6.0732,3.6841,8.0932
9,8,0,0,24.500,24500,-0.1200,9.2300,1.2000,9.3085,-0.6305,0.3960,-0.8901,2.94,83.69,29.44,3.3516,6.4892,3.3567,8.0381
9,8,0,0,24.621,24621,-2.8700,10.4900,0.3200,10.8802,-0.4887,-0.1680,-1.7170,12.75,87.69,18.88,2.5318,7.0164,2.9566,8.0238
9,8,0,0,24.743,24743,-4.0300,10.3500,0.0900,11.1073,0.0273,0.0229,-0.8792,21.81,89.31,10.19,1.6671,7.4557,2.5788,8.0633
9,8,0,0,24.869,24869,-2.7900,9.6200,0.4400,10.0261,0.2847,0.1484,-0.2356,24.38,87.56,7.31,1.0798,7.7409,2.2970,8.1464
9,8,0,0,24.991,24991,-3.4500,9.7100,0.3700,10.3113,0.2269,-0.1058,-0.5312,26.06,85.81,6.25,0.4828,8.0004,2.0431,8.2712
9,8,0,0,25.153,25153,-4.3000,9.2600,0.8400,10.2442,-0.0164,-0.4451,0.8967,25.69,85.38,15.19,-0.1474,8.1664,1.8845,8.3823
9,8,0,0,25.275,25275,-3.4900,10.2900,0.5400,10.8791,0.8258,-0.7134,0.7690,19.31,85.25,29.13,-0.5879,8.4462,1.7073,8.6371
9,8,0,0,25.397,25397,-3.4700,8.9300,1.6400,9.7198,-0.1080,0.3371,1.4377,13.00,82.56,39.69,-0.9677,8.5100,1.6985,8.7316
9,8,0,0,25.522,25522,-1.2300,9.4300,1.8300,9.6844,0.5880,0.4952,0.7745,4.69,81.06,44.81,-1.0022,8.6312,1.7158,8.8570
9,8,0,0,25.644,25644,-1.4600,10.9600,2.1300,11.2601,0.7669,-0.4265,0.2509,0.94,76.88,48.56,-1.0626,8.9381,1.7704,9.1735
9,8,0,0,25.765,25765,-2.7300,7.0400,4.0900,8.5874,0.9850,0.3076,1.5097,-2.94,69.50,53.81,-1.2823,8.6880,2.0761,9.0241
9,8,0,0,25.885,25885,5.5800,10.6800,2.0800,12.2280,0.1124,0.9992,1.5468,-19.13,68.81,64.75,-0.3780,8.9505,2.0766,9.1960
9,8,0,0,26.006,26006,4.1100,9.1200,3.8700,10.7258,0.5858,0.5520,0.1767,-22.94,66.81,62.19,0.2134,8.9728,2.3129,9.2686
9,8,0,0,26.174,26174,6.9500,5.6400,4.1100,9.8491,1.7181,-0.6403,1.7388,-35.56,54.25,73.75,1.1011,8.5336,2.5497,8.9742
9,8,0,0,26.296,26296,4.5200,7.2000,3.9500,9.3741,-0.0731,-0.1985,0.0829,-37.00,44.44,78.56,1.5516,8.3579,2.7342,8.9296
9,8,0,0,26.416,26416,8.9300,6.7000,4.5300,12.0481,0.5214,1.0003,0.8923,-42.63,43.38,80.56,2.5239,8.1394,2.9709,9.0248
9,8,0,0,26.537,26537,8.4700,3.7300,5.9600,11.0080,0.2574,-0.0829,0.6643,-45.81,37.38,80.50,3.3075,7.5584,3.3648,8.9101
9,8,0,0,26.658,26658,5.4800,3.6300,6.1800,9.0222,0.4931,0.0894,2.3387,-48.38,27.75,88.00,3.5937,7.0407,3.7357,8.7431
9,8,0,0,26.779,26779,10.6100,-0.5500,5.7200,12.0662,0.0687,-0.1200,0.9588,-54.44,6.69,102.25,4.5183,6.0404,3.9972,8.5370
9,8,0,0,26.901,26901,3.2600,1.5200,6.7100,7.6133,0.4549,0.3054,0.6970,-52.50,7.38,100.50,4.3525,5.4448,4.3547,8.2191
9,8,0,0,27.027,27027,9.1700,-4.1200,4.7300,11.1102,-0.3916,1.1890,2.5231,-57.94,-17.69,117.13,4.9873,4.1844,4.4041,7.8599
9,8,0,0,27.189,27189,7.1000,0.6200,4.2200,8.2827,-0.1331,-0.2760,-1.5719,-62.19,-6.50,115.63,5.2657,3.7147,4.3799,7.7917
9,9,0,0,27.310,27310,8.6000,0.6000,5.3300,10.1355,-0.4756,-0.7658,-0.6458,-58.44,5.94,109.88,5.7051,3.3042,4.5051,7.9851
9,9,0,0,27.431,27431,4.9600,3.3700,5.0800,7.8591,-0.2105,-1.0788,-1.9122,-49.19,18.88,102.63,5.6069,3.3129,4.5808,7.9622
9,9,0,0,27.554,27554,5.0600,2.5500,6.1400,8.3550,-0.5214,0.3545,-0.7581,-44.38,27.31,94.63,5.5348,3.2124,4.7863,7.9914
9,9,0,0,27.679,27679,6.0500,5.4200,4.7400,9.4046,-1.2850,0.5116,-0.9534,-44.63,39.81,92.50,5.6027,3.5033,4.7802,8.1556
9,9,0,0,27.801,27801,6.0600,7.5600,4.7500,10.7907,-0.4527,0.3763,-1.6450,-38.94,54.94,83.31,5.6630,4.0379,4.7762,8.4372
9,9,0,0,27.921,27921,4.7000,6.7800,4.0400,9.1859,-0.3262,-0.1036,-0.9043,-32.63,60.69,75.81,5.5361,4.3992,4.6792,8.4792
9,9,0,0,28.043,28043,3.5800,8.8200,4.0500,10.3446,-0.5574,-0.3327,-1.4803,-25.13,64.69,70.44,5.2783,4.9818,4.5963,8.5909
9,9,0,0,28.204,28204,1.6400,9.0700,2.9000,9.6625,-0.4560,-0.0567,-0.9610,-13.25,70.63,59.94,4.7989,5.5205,4.3728,8.5221
9,9,0,0,28.328,28328,1.6400,9.4400,2.4900,9.8997,-0.5792,-0.6207,-1.5173,-5.81,74.19,54.63,4.3826,6.0370,4.1247,8.5244
9,9,0,0,28.452,28452,-3.5800,9.2200,1.8500,10.0622,-0.7832,-0.1396,-1.2403,5.88,78.63,46.13,3.3334,6.4564,3.8249,8.2114
9,9,0,0,28.574,28574,-1.8400,10.8800,1.1700,11.0963,0.0153,-0.0524,-1.1159,11.25,82.13,39.25,2.6516,7.0393,3.4751,8.2861
9,9,0,0,28.695,28695,-3.0900,8.9900,1.6000,9.6399,-0.2618,-0.5858,-1.4672,19.88,82.81,32.13,1.8950,7.2964,3.2280,8.2005
9,9,0,0,28.815,28815,-6.0500,8.1400,0.7500,10.1698,-0.8727,-0.0589,0.0000,26.19,87.75,27.06,0.8481,7.4075,2.9014,8.0006
9,9,0,0,28.936,28936,-2.0800,11.4200,-2.1700,11.8090,-1.6024,1.1563,1.0188,20.56,95.31,25.13,0.4622,7.9363,2.2332,8.2574
9,9,0,0,29.057,29057,-5.5200,8.4100,-0.5200,10.0732,0.9850,0.1494,-0.9992,24.75,94.69,17.00,-0.3261,7.9987,1.8704,8.2209
9,9,0,0,29.219,29219,-4.9300,8.3700,0.2800,9.7180,0.6785,-0.8432,-0.0022,23.19,89.88,22.75,-0.9328,8.0476,1.6608,8.2700
9,9,0,0,29.345,29345,-2.8900,10.1600,0.2300,10.5655,-0.0862,0.2989,0.6207,19.75,89.19,27.69,-1.1907,8.3260,1.4723,8.5386
9,9,0,0,29.466,29466,-4.1400,8.9100,0.9900,9.8746,0.6894,-0.0818,-0.3578,21.63,85.50,26.13,-1.5793,8.4029,1.4087,8.6653
9,9,0,0,29.586,29586,-2.8500,11.1300,0.6700,11.5086,0.2618,0.6534,3.2550,11.13,83.50,36.56,-1.7468,8.7623,1.3114,9.0304
9,9,0,0,29.708,29708,3.9200,10.1400,1.9700,11.0484,1.2948,0.2454,0.6610,-5.50,77.94,48.63,-1.0000,8.9438,1.3982,9.1075
9,9,0,0,29.829,29829,-2.8900,8.7200,3.5800,9.8594,0.7003,-0.3905,-0.0076,-2.38,70.69,46.75,-1.2491,8.9144,1.6857,9.1579
9,9,0,0,29.950,29950,2.0100,9.8200,3.7900,10.7162,1.8315,0.2051,2.9921,-14.06,63.13,58.75,-0.8196,9.0337,1.9630,9.2808
9,9,0,0,30.072,30072,2.5200,3.0500,5.8700,7.0788,0.0993,0.2378,2.3747,-28.94,50.25,74.25,-0.3795,8.2452,2.4778,8.6178
9,9,0,0,30.237,30237,6.8300,7.6600,3.8600,10.9647,1.2457,0.0185,0.6578,-43.75,45.19,86.81,0.5705,8.1681,2.6599,8.6092
9,9,0,0,30.359,30359,4.5600,2.2200,7.3300,8.9135,0.6949,-0.4789,1.7257,-45.25,28.88,90.69,1.0962,7.3843,3.2753,8.1521
9,9,0,0,30.479,30479,8.4300,0.6900,4.1100,9.4039,-0.0491,1.0276,2.2504,-53.56,11.50,105.69,2.0626,6.5021,3.3853,7.6153
9,9,0,0,30.600,30600,6.5000,1.8800,5.7200,8.8602,0.3207,-0.1571,-0.8454,-55.94,9.50,106.06,2.6474,5.8931,3.6930,7.4414
9,9,0,0,30.721,30721,6.9500,-0.2100,5.5900,8.9216,0.3720,0.2727,1.5348,-56.56,3.19,107.63,3.2143,5.0888,3.9430,7.1955
9,9,0,0,30.843,30843,8.1200,-2.3100,4.9200,9.7712,-0.2902,0.5149,0.4614,-58.88,-10.56,116.44,3.8608,4.1139,4.0717,6.9576
9,10,0,0,30.963,30963,7.2600,0.6900,4.2900,8.4610,-0.3960,0.2727,-0.8061,-61.88,-1.13,114.25,4.3087,3.6627,4.1005,6.9853
9,10,0,0,31.088,31088,8.4500,0.3800,4.9400,9.7954,-0.3207,0.0731,-0.0993,-62.88,5.31,113.69,4.8544,3.2301,4.2111,7.1925
9,10,0,0,31.251,31251,7.3000,1.1500,4.3900,8.5956,-0.6000,0.1167,-1.5446,-61.13,24.06,108.19,5.1767,2.9560,4.2347,7.3122
9,10,0,0,31.373,31373,6.8300,4.3200,3.4800,8.7990,-0.6752,0.0720,-1.6526,-55.31,44.44,99.06,5.3946,3.1357,4.1352,7.4856
9,10,0,0,31.493,31493,6.2100,6.0400,3.6200,9.3888,-0.5269,-0.2171,-1.5523,-47.13,55.94,91.31,5.5020,3.5184,4.0673,7.6938
9,10,0,0,31.615,31615,4.1600,7.4800,3.5500,9.2660,-0.6196,-0.1429,-2.2569,-35.25,64.00,80.94,5.3252,4.0405,3.9992,7.7895
9,10,0,0,31.735,31735,1.8700,8.6900,2.6700,9.2813,-0.6087,0.0000,-2.0889,-21.06,71.44,67.44,4.8699,4.6532,3.8240,7.7454
9,10,0,0,31.857,31857,1.6000,10.9300,2.1600,11.2557,-0.5847,-0.3087,-2.0780,-8.69,76.13,56.06,4.4390,5.4803,3.6047,7.9204
9,10,0,0,31.978,31978,-3.0200,10.8600,1.5300,11.3755,0.0698,-1.1606,-3.0925,11.31,78.25,41.25,3.4561,6.1892,3.3313,7.8325
9,10,0,0,32.104,32104,-5.7400,7.3200,2.6100,9.6614,-0.1789,-0.3436,-0.6327,24.69,78.38,33.25,2.2443,6.3382,3.2363,7.4621
9,10,0,0,32.265,32265,-3.8800,10.3400,0.2200,11.0462,-0.8498,-0.0633,-0.4603,24.81,86.81,29.88,1.4372,6.8655,2.8388,7.5671
9,10,0,0,32.386,32386,-5.5600,9.6700,-0.1000,11.1549,-0.3349,0.3502,-0.8312,30.69,90.00,21.75,0.5152,7.2351,2.4516,7.6565
9,10,0,0,32.508,32508,-4.3100,8.8800,0.3600,9.8773,0.0207,0.3752,0.3807,31.75,88.88,17.94,-0.1206,7.4519,2.1759,7.7640
9,10,0,0,32.629,32629,-4.0400,8.9300,0.4200,9.8103,-0.0371,-0.0447,0.7363,26.75,88.31,22.13,-0.6371,7.6466,1.9446,7.9157
9,10,0,0,32.755,32755,-4.3900,9.9200,0.1600,10.8492,0.0218,-0.0229,0.6927,22.13,88.69,27.19,-1.1317,7.9462,1.7094,8.2064
9,10,0,0,32.877,32877,-3.6600,10.5400,0.5900,11.1730,0.0251,0.3109,1.3090,15.19,88.00,35.50,-1.4648,8.2880,1.5619,8.5602
9,10,0,0,32.997,32997,-0.4900,10.9600,0.4300,10.9794,0.1963,0.4821,2.6671,0.88,87.25,47.06,-1.3364,8.6401,1.4127,8.8562
9,10,0,0,33.118,33118,2.6400,10.8000,0.8200,11.1482,0.2094,0.3174,2.8514,-18.13,85.75,63.38,-0.8124,8.9247,1.3346,9.0605
9,10,0,0,33.280,33280,5.2800,8.9000,0.8700,10.3849,1.1846,-0.7189,2.4456,-40.88,77.25,84.38,-0.0096,8.9215,1.2734,9.0119
9,10,0,0,33.401,33401,4.7600,6.1600,2.5400,8.1887,1.6701,-1.3810,1.9591,-51.00,53.19,97.31,0.6189,8.5576,1.4403,8.7000
9,10,0,0,33.523,33523,5.1800,1.4400,4.8000,7.2074,1.3319,-0.1822,1.6679,-54.25,26.00,104.63,1.2200,7.6197,1.8830,7.9431
9,10,0,0,33.648,33648,6.2500,-0.3000,4.3700,7.6321,-0.2607,0.8192,2.6038,-59.75,2.31,116.25,1.8828,6.5761,2.2107,7.1887
9,10,0,0,33.770,33770,12.1200,0.5800,2.0500,12.3058,0.2520,0.5967,0.0862,-64.81,-25.00,131.75,3.2318,5.7859,2.1896,6.9797
9,10,0,0,33.891,33891,5.1000,-2.5200,5.2900,7.7682,1.1410,-1.1770,-1.4246,-63.88,-7.13,116.00,3.4780,4.6914,2.5981,6.3919
9,10,0,0,34.011,34011,9.7700,-0.0600,5.1800,11.0584,-0.7090,-0.7832,0.7494,-57.38,-6.44,117.00,4.3071,4.0653,2.9383,6.6115
9,10,0,0,34.133,34133,2.5900,-1.7300,7.6100,8.2227,0.4331,0.0884,-1.2523,-52.56,1.75,111.38,4.0808,3.3016,3.5540,6.3391
9,10,0,0,34.295,34295,11.4700,5.7200,3.1400,13.1962,-0.5051,0.1920,-1.3810,-60.94,22.75,107.38,5.0545,3.6203,3.4994,7.1345
9,10,0,0,34.421,34421,5.2500,0.2400,6.1600,8.0973,0.2007,-0.2422,-0.1680,-55.50,27.00,100.19,5.0803,3.1749,3.8500,7.1212
9,10,0,0,34.543,34543,6.7000,6.4600,3.8500,10.0719,-0.9403,-0.2149,-1.7322,-50.63,39.88,96.56,5.2937,3.6078,3.8500,7.4741
9,10,0,0,34.663,34663,6.1600,3.5200,4.7000,8.5103,-0.2891,0.5585,0.5956,-49.94,45.31,94.63,5.4079,3.5962,3.9620,7.6076
9,10,0,0,34.784,34784,5.8000,5.3000,2.3500,8.2008,-0.6763,-0.3098,-2.4893,-45.88,55.19,89.69,5.4596,3.8207,3.7496,7.6462
9,10,0,0,34.905,34905,2.6200,7.3400,3.3200,8.4713,-0.3894,-0.1800,-1.8784,-31.19,62.88,74.88,5.0854,4.2845,3.6930,7.6063
9,10,0,0,35.026,35026,2.4300,9.3000,2.5300,9.9396,-0.6730,-0.6785,-1.9657,-20.38,68.81,66.94,4.7355,4.9454,3.5397,7.7079
