participant,rep,equipment_code,exercise_code,quality_code,timestamp,timestamp_ms,accelX,accelY,accelZ,accelMag,gyroX,gyroY,gyroZ,roll,pitch,yaw,filteredX,filteredY,filteredZ,filteredMag
10,1,0,0,1,00.000,0,-0.6700,9.7300,0.9500,9.7992,0.0251,-0.0131,0.0262,3.94,84.63,167.25,-1.0028,9.7229,0.8354,9.8101
10,1,0,0,1,00.121,121,-0.6900,9.7200,0.9900,9.7946,-0.0142,-0.0436,0.0589,3.69,84.56,167.75,-0.9616,9.7225,0.8557,9.8073
10,1,0,0,1,00.284,284,-0.6300,9.8200,0.9200,9.8831,0.0338,-0.0316,0.0502,3.25,84.56,168.50,-0.9179,9.7353,0.8642,9.8166
10,1,0,0,1,00.409,409,-0.5900,9.7000,1.0100,9.7703,0.0393,0.0000,0.0382,2.94,84.31,168.94,-0.8747,9.7307,0.8834,9.8098
10,1,0,0,1,00.530,530,-0.5400,9.6800,1.0000,9.7465,-0.0164,0.0262,0.0229,2.75,84.25,169.00,-0.8306,9.7240,0.8988,9.8007
10,1,0,0,1,00.651,651,-0.4900,9.7800,0.9500,9.8382,-0.0251,0.0109,0.0175,2.63,84.38,169.06,-0.7857,9.7314,0.9055,9.8050
10,1,0,0,1,00.772,772,-0.6000,9.6600,0.9400,9.7242,-0.0295,0.0207,-0.0938,2.88,84.56,168.69,-0.7612,9.7220,0.9101,9.7941
10,1,0,0,1,00.893,893,-0.8100,9.8300,0.8800,9.9025,-0.0316,0.0742,0.0273,3.19,84.69,168.06,-0.7676,9.7362,0.9061,9.8084
10,1,0,0,1,01.014,1014,-1.2100,10.0500,0.7900,10.1534,-0.0567,0.1364,-0.0425,3.38,84.94,167.25,-0.8259,9.7776,0.8908,9.8527
10,1,0,0,1,01.136,1136,-2.0100,10.4200,1.2000,10.6797,-0.2073,0.0796,-0.7472,5.69,85.63,164.06,-0.9820,9.8622,0.9316,9.9547
10,1,0,0,1,01.299,1299,-4.1000,10.5400,0.6500,11.3280,-0.3938,-0.2956,-2.3049,20.13,88.44,149.75,-1.3928,9.9515,0.8945,10.0883
10,1,0,0,1,01.423,1423,-5.8400,7.8000,-1.4100,9.8455,-1.1312,-1.0057,-3.5637,41.75,98.44,128.88,-1.9789,9.6680,0.5908,9.8861
10,1,0,0,1,01.544,1544,-9.0400,5.0500,-3.3900,10.8957,-0.5978,-1.2915,-3.2703,61.06,126.69,104.94,-2.9093,9.0595,0.0662,9.5154
10,1,0,0,1,01.664,1664,-8.9200,1.9900,-3.3800,9.7443,-0.4352,-0.6294,-1.9995,65.44,165.56,86.38,-3.7014,8.1279,-0.3879,8.9394
10,1,0,0,1,01.785,1785,-7.9600,0.4700,-4.1800,9.0030,-0.4276,-0.2945,-1.5752,63.00,-167.75,70.38,-4.2626,7.1188,-0.8876,8.3447
10,1,0,0,1,01.906,1906,-6.9700,-1.8900,-4.4300,8.4722,-0.2574,-0.5171,-1.6384,56.69,-150.06,55.56,-4.6193,5.9317,-1.3544,7.6392
10,1,0,0,1,02.029,2029,-5.8300,-3.1900,-5.0400,8.3407,-0.0774,-0.8781,-1.3624,47.31,-141.88,40.44,-4.7789,4.7297,-1.8401,6.9709
10,1,0,0,1,02.150,2150,-5.0800,-5.0100,-5.9900,9.3159,0.0109,-1.2294,-1.7311,35.06,-138.69,21.50,-4.8186,3.4462,-2.3869,6.3869
10,1,0,0,1,02.315,2315,-3.9800,-6.1500,-5.8700,9.3872,-0.5345,-0.3742,-1.0112,20.00,-133.63,351.06,-4.7081,2.1817,-2.8459,5.9182
10,1,0,0,1,02.437,2437,-3.1500,-5.8700,-5.8600,8.8724,-0.2258,0.7047,-0.0327,19.44,-129.63,349.75,-4.5027,1.1207,-3.2431,5.6611
10,2,0,0,1,02.557,2557,-3.8200,-6.2200,-5.8000,9.3231,0.4680,1.0287,0.4669,24.50,-130.06,3.56,-4.4128,0.1534,-3.5800,5.6844
10,2,0,0,1,02.678,2678,-5.2300,-6.4500,-5.3200,9.8619,0.4036,1.3297,0.6578,32.88,-131.63,23.63,-4.5205,-0.7168,-3.8093,5.9548
10,2,0,0,1,02.799,2799,-6.2500,-5.5500,-4.1800,9.3454,-0.0284,1.9100,0.5160,42.63,-127.88,42.00,-4.7484,-1.3537,-3.8582,6.2662
10,2,0,0,1,02.920,2920,-6.9700,-4.4400,-3.3000,8.8986,-0.0218,1.9777,1.3068,55.06,-118.06,59.13,-5.0411,-1.7604,-3.7846,6.5449
10,2,0,0,1,03.041,3041,-7.9100,-3.2700,-1.1100,8.6309,0.1189,1.2021,1.6624,69.19,-108.31,76.19,-5.4192,-1.9593,-3.4322,6.7072
10,2,0,0,1,03.163,3163,-8.7300,-1.3400,-0.0300,8.8323,-0.1560,0.5269,1.2741,79.81,-95.63,87.19,-5.8555,-1.8777,-2.9838,6.8349
10,2,0,0,1,03.329,3329,-9.5400,0.3600,0.4600,9.5579,-0.4701,0.1451,1.0854,88.81,0.19,94.44,-6.3410,-1.5828,-2.5300,7.0082
10,2,0,0,1,03.449,3449,-9.8400,2.4500,0.3200,10.1455,-0.3556,0.3316,1.4988,80.44,73.88,100.38,-6.8021,-1.0514,-2.1545,7.2122
10,2,0,0,1,03.571,3571,-8.9800,3.9500,0.7800,9.8413,-0.0971,0.3818,1.6221,69.75,76.31,108.94,-7.0891,-0.3923,-1.7678,7.3167
10,2,0,0,1,03.691,3691,-8.0200,5.3200,1.3800,9.7225,-0.0502,0.3567,1.3897,59.63,76.38,117.44,-7.2117,0.3604,-1.3530,7.3464
10,2,0,0,1,03.812,3812,-7.4200,6.4400,1.9200,10.0108,-0.0873,0.1844,1.3810,49.81,77.13,125.88,-7.2392,1.1615,-0.9217,7.3895
10,2,0,0,1,03.933,3933,-6.4800,7.9700,1.6300,10.4004,-0.2356,0.0971,1.2621,41.38,79.44,133.13,-7.1391,2.0587,-0.5854,7.4531
10,2,0,0,1,04.054,4054,-4.7700,8.4400,1.4300,9.7996,-0.1374,0.1113,1.5479,31.88,81.44,141.56,-6.8269,2.8996,-0.3199,7.4241
10,2,0,0,1,04.179,4179,-3.2300,9.4400,1.5600,10.0985,0.0415,0.1287,1.7344,20.94,82.19,151.69,-6.3530,3.7615,-0.0721,7.3834
10,2,0,0,1,04.342,4342,-0.8400,9.6500,1.7900,9.8505,-0.0567,-0.0731,1.4083,5.63,82.00,167.19,-5.6265,4.5374,0.1732,7.2302
10,2,0,0,1,04.463,4463,0.0200,10.0100,1.3200,10.0967,-0.2323,0.0240,1.2566,-2.81,83.13,176.00,-4.8824,5.2586,0.3244,7.1830
10,2,0,0,1,04.584,4584,1.9200,10.7100,0.9300,10.9204,-0.0382,0.1462,1.0003,-10.94,84.25,183.50,-3.9860,5.9769,0.4042,7.1955
10,2,0,0,1,04.705,4705,2.1000,10.0200,1.4900,10.3456,0.2629,0.0425,-0.4058,-12.69,83.31,184.44,-3.1841,6.5097,0.5472,7.2673
10,2,0,0,1,04.826,4826,0.8800,9.8700,1.8200,10.0749,-0.0458,0.0480,-1.1541,-7.06,82.63,178.31,-2.6485,6.9525,0.7150,7.4742
10,2,0,0,1,04.947,4947,-0.9500,9.7200,1.4300,9.8705,-0.3207,-0.0556,-1.8490,2.94,84.19,168.25,-2.4247,7.3172,0.8092,7.7508
10,2,0,0,1,05.068,5068,-3.3800,9.9400,0.7800,10.5279,-0.2258,-0.0927,-2.1228,17.00,86.06,154.31,-2.5506,7.6628,0.8053,8.1162
10,2,0,0,1,05.194,5194,-4.7600,8.9300,0.7900,10.1502,0.0131,-0.0600,-1.3734,28.31,86.63,143.31,-2.8417,7.8298,0.8033,8.3682
10,2,0,0,1,05.356,5356,-6.1400,7.4600,0.9500,9.7084,0.3000,0.0153,-1.3744,40.56,84.75,132.13,-3.2764,7.7811,0.8226,8.4827
10,2,0,0,1,05.477,5477,-7.3200,6.2300,1.0500,9.6694,0.1473,0.0753,-1.2457,49.56,81.75,123.75,-3.8092,7.5767,0.8526,8.5231
10,2,0,0,1,05.599,5599,-7.9300,5.5400,0.7100,9.6995,0.0033,0.0120,-0.8094,56.06,79.81,117.25,-4.3522,7.3083,0.8338,8.5468
10,2,0,0,1,05.719,5719,-8.6600,4.8600,0.6800,9.9538,-0.0600,0.0687,-0.9152,61.50,77.88,111.44,-4.9199,6.9857,0.8135,8.5829
10,3,0,0,1,05.847,5847,-9.1700,3.6500,1.3600,9.9630,0.1385,0.7516,-1.1825,67.88,67.56,103.31,-5.4799,6.5461,0.8856,8.5829
10,3,0,0,1,05.968,5968,-8.1500,2.5200,2.3600,8.8511,-0.1822,0.7876,-0.8858,70.69,42.19,97.38,-5.8318,6.0156,1.0798,8.4477
10,3,0,0,1,06.088,6088,-7.9000,2.4000,2.6400,8.6683,-0.1353,-0.0600,-0.7156,71.50,27.06,93.50,-6.1043,5.5391,1.2854,8.3425
10,3,0,0,1,06.209,6209,-9.7200,0.9700,2.1500,10.0021,0.3589,-0.7843,-0.7047,76.44,15.81,92.81,-6.5808,4.9370,1.3994,8.3450
10,3,0,0,1,06.371,6371,-9.6100,-0.7700,1.7000,9.7895,0.0807,-0.2007,-0.7254,80.75,-20.56,90.94,-6.9799,4.1850,1.4390,8.2647
10,3,0,0,1,06.492,6492,-9.3000,-1.1000,1.3300,9.4588,0.0044,0.1582,-0.5312,78.56,-39.88,88.31,-7.2857,3.4886,1.4246,8.2025
10,3,0,0,1,06.613,6613,-8.9000,-1.7300,1.5300,9.1948,0.1385,0.1014,-0.6534,75.19,-48.75,86.56,-7.4984,2.8009,1.4385,8.1327
10,3,0,0,1,06.739,6739,-8.9900,-2.2300,1.5600,9.3929,0.1451,-0.0829,-0.7549,71.50,-59.00,83.38,-7.6950,2.1380,1.4545,8.1178
10,3,0,0,1,06.861,6861,-9.8200,-3.0400,1.3100,10.3629,0.1254,0.1484,-0.6294,67.31,-66.31,80.00,-7.9750,1.4556,1.4355,8.2328
10,3,0,0,1,06.981,6981,-9.6600,-4.0000,1.9500,10.6357,0.0131,0.8323,-0.5792,62.19,-63.94,78.06,-8.1970,0.7367,1.5033,8.3662
10,3,0,0,1,07.102,7102,-8.1700,-4.1300,2.8400,9.5850,-0.0807,1.1225,-0.5541,55.50,-56.75,76.88,-8.1935,0.0954,1.6794,8.3644
10,3,0,0,1,07.223,7223,-7.0500,-4.1800,3.8000,9.0341,0.1276,0.9959,-0.5705,48.31,-52.13,76.69,-8.0428,-0.4680,1.9589,8.2911
10,3,0,0,1,07.385,7385,-5.6100,-5.6300,4.3900,9.0797,0.2716,0.5651,-0.5781,39.88,-52.00,76.25,-7.7222,-1.1482,2.2792,8.1330
10,3,0,0,1,07.507,7507,-5.9700,-6.0500,4.6600,9.6932,0.2542,0.4985,-0.4571,35.38,-53.06,76.06,-7.4913,-1.7941,2.5929,8.1279
10,3,0,0,1,07.632,7632,-4.8900,-6.1800,4.6300,9.1401,0.1811,0.5192,-0.5127,31.06,-53.81,76.13,-7.1485,-2.3721,2.8614,8.0570
10,3,0,0,1,07.754,7754,-3.9000,-6.6400,4.5200,8.9292,0.2356,0.4309,-0.6469,25.69,-55.19,74.50,-6.7205,-2.9345,3.0799,7.9537
10,3,0,0,1,07.874,7874,-1.8200,-7.3000,4.0600,8.5490,0.2487,-0.0131,-0.2411,22.25,-57.25,73.88,-6.0747,-3.5097,3.2091,7.7148
10,3,0,0,1,07.995,7995,-2.5300,-7.5000,4.3700,9.0414,-0.0022,-0.5083,0.2007,22.69,-59.06,73.19,-5.6076,-4.0356,3.3621,7.6834
10,3,0,0,1,08.116,8116,-3.4300,-6.8300,3.6500,8.4697,-0.2203,-0.4996,0.4440,26.25,-59.13,73.13,-5.3206,-4.4038,3.4000,7.6982
10,3,0,0,1,08.237,8237,-5.1600,-6.5900,4.2300,9.3780,-0.2902,-0.3240,0.6250,30.44,-58.00,74.75,-5.2995,-4.6919,3.5094,7.9003
10,3,0,0,1,08.405,8405,-6.1500,-5.2200,4.1600,9.0761,-0.2858,-0.5203,0.8279,38.81,-54.25,79.31,-5.4116,-4.7615,3.5951,8.0549
10,3,0,0,1,08.526,8526,-7.4800,-4.6500,4.3300,9.8144,-0.2891,-0.3185,1.0417,45.88,-51.13,83.56,-5.6841,-4.7468,3.6920,8.2748
10,3,0,0,1,08.647,8647,-7.8600,-3.5000,4.3300,9.6322,-0.3829,-0.1320,1.3188,52.75,-43.50,89.88,-5.9708,-4.5825,3.7760,8.4207
10,3,0,0,1,08.768,8768,-8.4500,-1.7600,4.4800,9.7247,-0.3949,0.0371,1.3635,58.31,-30.56,97.31,-6.2975,-4.2106,3.8688,8.5062
10,3,0,0,1,08.889,8889,-8.4600,-0.2200,4.5000,9.5849,-0.3829,-0.1145,1.4966,62.00,-12.06,105.50,-6.5825,-3.6847,3.9520,8.5161
10,4,0,0,1,09.027,9027,-8.4600,1.1300,3.9700,9.4133,-0.3109,-0.5051,1.1148,64.69,9.13,113.38,-6.8299,-3.0502,3.9543,8.4610
10,4,0,0,1,09.148,9148,-8.8800,2.3400,3.5600,9.8490,-0.3567,-0.5749,0.9512,66.13,29.19,119.31,-7.1001,-2.3400,3.9024,8.4330
10,4,0,0,1,09.268,9268,-9.2900,3.8000,2.7300,10.4018,-0.2716,-0.4483,1.1345,64.31,48.06,125.38,-7.3886,-1.5309,3.7479,8.4251
10,4,0,0,1,09.430,9430,-8.4800,4.9700,2.2000,10.0723,-0.1342,-0.3109,0.9305,58.25,64.06,133.88,-7.5324,-0.6742,3.5439,8.3517
10,4,0,0,1,09.551,9551,-7.4800,5.5000,1.9000,9.4768,-0.1920,-0.2214,1.0352,53.25,70.88,139.38,-7.5255,0.1394,3.3273,8.2295
10,4,0,0,1,09.674,9674,-6.3500,6.5600,1.5500,9.2606,-0.4451,-0.0894,1.4203,45.50,77.13,146.19,-7.3706,0.9855,3.0931,8.0539
10,4,0,0,1,09.799,9799,-5.4900,8.4300,0.8300,10.0943,-0.5258,0.0349,1.8740,34.63,82.19,154.50,-7.1228,1.9665,2.7949,7.9002
10,4,0,0,1,09.920,9920,-3.1400,9.5800,0.3700,10.0883,-0.3829,-0.1484,1.5741,21.94,86.56,166.13,-6.5980,2.9697,2.4753,7.6472
10,4,0,0,1,10.041,10041,-2.1800,10.1200,0.3700,10.3587,-0.1069,-0.2247,1.3254,12.44,88.69,176.50,-6.0158,3.9120,2.1979,7.5049
10,4,0,0,1,10.162,10162,-1.3400,10.2800,0.2400,10.3697,0.0873,-0.0556,1.0417,5.00,88.88,185.00,-5.3996,4.7511,1.9399,7.4493
10,4,0,0,1,10.283,10283,-0.0400,10.2000,0.4100,10.2083,0.1385,0.1582,1.2381,-2.75,87.88,192.38,-4.6934,5.4691,1.7383,7.4136
10,4,0,0,1,10.445,10445,1.5800,10.0000,0.6100,10.1424,-0.1920,0.1156,0.2040,-9.44,88.13,197.69,-3.8667,6.0662,1.5896,7.3673
10,4,0,0,1,10.583,10583,1.2300,10.1600,0.0300,10.2342,-0.5890,-0.2323,-0.5814,-7.50,91.13,196.69,-3.1951,6.6056,1.3841,7.4672
10,4,0,0,1,10.703,10703,0.7300,10.7800,-0.5200,10.8172,-0.7167,-0.3283,-1.4028,-1.25,95.25,192.94,-2.6779,7.1557,1.1332,7.7239
10,4,0,0,1,10.824,10824,-3.2500,8.3700,-1.9200,9.1818,-1.1530,-0.0600,-4.3142,17.44,102.31,173.88,-2.7533,7.3157,0.7309,7.8508
10,4,0,0,1,10.945,10945,-9.0000,7.7500,-3.7500,12.4549,-0.4102,-0.2291,-2.4904,41.94,113.38,145.38,-3.5764,7.3730,0.1404,8.1958
10,4,0,0,1,11.066,11066,-6.9900,6.5100,-2.9700,10.0031,0.0753,0.0131,-0.6807,47.94,117.50,138.81,-4.0262,7.2592,-0.2695,8.3054
10,4,0,0,1,11.187,11187,-8.0300,6.0400,-2.9200,10.4637,0.1614,0.4898,-1.6962,56.13,120.06,129.94,-4.5538,7.0986,-0.6187,8.4564
10,5,0,0,1,11.314,11314,-8.5200,3.7800,-1.9700,9.5268,0.1124,0.6240,-1.4977,67.63,122.50,118.38,-5.0765,6.6613,-0.7968,8.4130
10,5,0,0,1,11.476,11476,-8.2500,1.1000,-1.4900,8.4553,-0.2673,0.1996,-1.6395,80.31,148.94,102.13,-5.4947,5.9284,-0.8882,8.1318
10,5,0,0,1,11.597,11597,-8.9700,-0.2800,-1.5800,9.1124,-0.2553,0.0055,-1.5512,79.94,-139.75,88.63,-5.9526,5.1103,-0.9793,7.9062
10,5,0,0,1,11.719,11719,-8.7700,-1.9600,-1.5800,9.1242,-0.0044,-0.0447,-0.9305,73.63,-118.06,79.75,-6.3239,4.1786,-1.0585,7.6533
10,5,0,0,1,11.839,11839,-8.7600,-2.7900,-1.6500,9.3405,-0.0600,-0.2334,-0.6818,68.56,-114.00,74.31,-6.6449,3.2603,-1.1364,7.4884
10,5,0,0,1,11.961,11961,-8.3300,-4.0600,-1.5900,9.4022,-0.1156,-0.2629,-0.7625,63.63,-113.06,68.19,-6.8670,2.2957,-1.1962,7.3387
10,5,0,0,1,12.082,12082,-9.0100,-4.5100,-2.0600,10.2842,-0.0873,0.0044,-0.6665,58.69,-110.44,61.56,-7.1494,1.3989,-1.3100,7.4018
10,5,0,0,1,12.207,12207,-8.4900,-5.1200,-1.5400,10.0332,-0.2793,0.3065,-0.8781,54.06,-104.94,55.19,-7.3260,0.5399,-1.3403,7.4672
10,5,0,0,1,12.328,12328,-6.1600,-6.0100,-0.3900,8.6150,-0.2629,0.2749,-0.7374,49.56,-98.88,48.19,-7.1724,-0.3232,-1.2151,7.2817
10,5,0,0,1,12.490,12490,-6.5700,-6.2200,-1.0900,9.1127,0.1691,-0.2465,-0.5563,43.50,-96.81,41.25,-7.0930,-1.1003,-1.1986,7.2772
10,5,0,0,1,12.611,12611,-5.9300,-7.5200,-1.2800,9.6620,0.4123,-0.4472,-0.5312,39.69,-100.88,37.31,-6.9397,-1.9462,-1.2093,7.3082
10,5,0,0,1,12.732,12732,-5.5600,-7.5100,-1.9200,9.5394,0.0578,-0.2607,-0.6578,34.94,-103.44,31.88,-6.7579,-2.6794,-1.3030,7.3856
10,5,0,0,1,12.855,12855,-4.6400,-7.3800,-2.4400,9.0525,-0.0469,-0.3098,-0.6796,30.31,-103.94,24.56,-6.4788,-3.2988,-1.4528,7.4141
10,5,0,0,1,12.976,12976,-3.7100,-7.7700,-2.6000,8.9943,0.3163,-0.3916,-0.6938,25.25,-105.50,16.94,-6.1140,-3.8880,-1.6040,7.4209
10,5,0,0,1,13.100,13100,-3.2600,-8.2700,-3.3600,9.5032,0.4265,-0.5105,-0.7396,19.31,-108.94,7.81,-5.7379,-4.4654,-1.8354,7.4988
10,5,0,0,1,13.221,13221,-1.7400,-8.6000,-2.4400,9.1072,0.3174,-0.4636,-0.9196,13.00,-111.94,358.25,-5.2111,-5.0103,-1.9151,7.4783
10,5,0,0,1,13.342,13342,-0.9600,-8.2700,-2.0800,8.5814,-0.1516,0.1353,-0.7461,6.75,-112.75,349.44,-4.6509,-5.4398,-1.9368,7.4144
10,5,0,0,1,13.504,13504,-3.1800,-7.7800,-4.7200,9.6395,0.1265,1.5075,2.1217,16.19,-111.06,6.56,-4.4571,-5.7482,-2.3035,7.6298
10,5,0,0,1,13.625,13625,-5.3600,-7.5900,-4.2200,10.2052,0.5574,1.6439,2.6245,35.88,-111.69,39.06,-4.5760,-5.9909,-2.5561,7.9602
10,5,0,0,1,13.750,13750,-7.1200,-5.6900,-1.8000,9.2903,0.0578,1.2501,1.9155,53.50,-110.88,64.81,-4.9113,-5.9512,-2.4565,8.0977
10,5,0,0,1,13.873,13873,-8.5700,-3.4900,-1.1700,9.3271,-0.2302,1.1661,1.5588,67.44,-101.00,80.31,-5.3934,-5.6269,-2.2869,8.1229
10,6,0,0,1,13.994,13994,-8.9900,-2.0300,0.2200,9.2190,-0.2836,1.2774,1.7072,78.00,-70.75,91.69,-5.8673,-5.1529,-1.9566,8.0503
10,6,0,0,1,14.115,14115,-9.3300,0.6300,1.5100,9.4724,-0.3240,1.6330,2.0824,76.06,5.25,103.00,-6.3236,-4.3909,-1.4998,7.8433
10,6,0,0,1,14.236,14236,-7.5400,2.7600,3.5100,8.7630,-0.2662,1.6559,2.6507,59.50,34.81,116.31,-6.4839,-3.4486,-0.8396,7.3918
10,6,0,0,1,14.357,14357,-4.8500,5.4100,5.1200,8.8885,-0.6425,1.0843,2.8187,40.19,47.13,130.94,-6.2686,-2.2813,-0.0543,6.6710
10,6,0,0,1,14.525,14525,-2.1800,8.1900,4.4600,9.5771,-0.8923,0.2094,1.9471,19.25,60.19,148.19,-5.7298,-0.9014,0.5406,5.8254
10,6,0,0,1,14.646,14646,-1.6000,9.9900,4.2700,10.9815,-0.3338,0.2094,1.6166,7.81,65.56,158.69,-5.1856,0.5338,1.0320,5.3142
10,6,0,0,1,14.766,14766,0.3300,9.5500,3.9300,10.3323,-0.3927,0.2356,1.6308,-2.81,67.88,168.75,-4.4588,1.7219,1.4139,4.9845
10,6,0,0,1,14.887,14887,2.2300,10.1600,3.5500,10.9910,-0.4036,0.0840,1.4857,-13.19,70.44,178.69,-3.5774,2.8338,1.6954,4.8685
10,6,0,0,1,15.008,15008,3.1500,9.8300,3.4500,10.8837,-0.2705,-0.1778,1.0537,-20.75,71.50,187.88,-2.6909,3.7557,1.9266,5.0058
10,6,0,0,1,15.129,15129,3.4500,9.5600,3.4400,10.7299,0.0185,-0.2618,0.0404,-23.38,71.19,192.50,-1.8817,4.5206,2.1260,5.3382
10,6,0,0,1,15.250,15250,2.7800,10.8200,3.6700,11.7588,0.1724,-0.1233,-0.5934,-20.38,70.13,190.50,-1.2674,5.3507,2.3295,5.9718
10,6,0,0,1,15.377,15377,2.1700,10.6200,3.4200,11.3662,0.5672,-0.2520,-1.8239,-12.88,68.44,183.13,-0.8144,6.0451,2.4732,6.5820
10,6,0,0,1,15.539,15539,-2.5000,8.2900,5.4600,10.2365,1.2588,-0.1036,-3.0576,11.75,58.31,158.81,-1.0365,6.3409,2.8668,7.0356
10,6,0,0,1,15.660,15660,-3.5900,6.9800,5.4500,9.5557,1.2905,0.5411,-2.3813,25.00,45.69,141.81,-1.3730,6.4251,3.2072,7.3112
10,6,0,0,1,15.782,15782,-2.9700,4.1100,7.1000,8.7248,1.0461,0.4996,-1.3308,29.44,30.63,130.06,-1.5835,6.1200,3.7201,7.3350
10,6,0,0,1,15.902,15902,-4.4200,3.4000,7.1500,9.0675,0.5825,-0.6992,-0.5345,32.88,23.25,126.50,-1.9572,5.7616,4.1721,7.3779
10,6,0,0,1,16.030,16030,-6.2400,2.2400,6.7100,9.4329,0.3043,-0.8203,-0.6229,39.38,19.31,124.88,-2.5216,5.2975,4.5065,7.3981
10,6,0,0,1,16.151,16151,-7.6000,2.1900,6.3900,10.1680,0.1713,-0.4560,-0.9577,45.69,13.13,119.44,-3.1908,4.8880,4.7547,7.5287
10,6,0,0,1,16.271,16271,-7.0600,0.4900,5.9200,9.2266,0.0774,-0.2105,-0.9338,48.75,5.06,116.06,-3.7007,4.3085,4.9083,7.5066
10,6,0,0,1,16.392,16392,-7.1500,0.2200,6.0500,9.3687,-0.0753,-0.3938,-0.4811,50.75,0.94,115.63,-4.1552,3.7697,5.0587,7.5543
10,6,0,0,1,16.554,16554,-8.4100,0.1300,5.3300,9.9576,-0.0513,-0.5847,-0.3447,55.69,-1.50,115.19,-4.7159,3.2901,5.0945,7.6823
10,6,0,0,1,16.675,16675,-8.3600,-0.4100,4.8900,9.6938,0.1713,-0.2116,-0.8912,57.88,-9.50,112.25,-5.1961,2.8025,5.0675,7.7803
10,6,0,0,1,16.797,16797,-7.7700,-1.3400,4.6700,9.1639,0.2356,-0.0556,-0.6076,57.25,-19.00,109.31,-5.5353,2.2567,5.0152,7.8028
10,6,0,0,1,16.922,16922,-7.8700,-1.8100,4.4300,9.2107,0.2902,-0.3043,-0.4232,57.31,-24.69,107.88,-5.8429,1.7208,4.9380,7.8412
10,6,0,0,1,17.044,17044,-8.7800,-2.3700,4.0300,9.9472,0.2934,-0.3665,-0.6589,57.56,-34.56,105.13,-6.2299,1.1817,4.8184,7.9640
10,6,0,0,1,17.164,17164,-9.1200,-3.5300,3.7100,10.4594,0.3643,0.0807,-0.8378,55.06,-44.00,101.13,-6.6108,0.5608,4.6723,8.1147
10,6,0,0,1,17.285,17285,-7.6200,-4.3900,3.8400,9.5959,0.4047,0.5596,-0.5836,50.06,-48.19,99.44,-6.7438,-0.0916,4.5626,8.1428
10,6,0,0,1,17.406,17406,-6.8900,-4.7300,4.1100,9.3133,0.4058,0.5978,-0.3240,45.19,-50.13,99.81,-6.7630,-0.7028,4.5030,8.1553
10,6,0,0,1,17.568,17568,-4.0700,-6.5200,2.7800,8.1734,0.3458,0.1102,-0.3774,40.94,-52.75,99.88,-6.4082,-1.4694,4.2760,7.8427
10,6,0,0,1,17.690,17690,-5.0600,-7.0300,3.4800,9.3346,-0.1833,0.0120,0.5509,40.75,-53.63,100.25,-6.2305,-2.2021,4.1711,7.8145
10,6,0,0,1,17.815,17815,-6.1800,-4.1800,4.0300,8.4797,-0.6316,-0.2083,1.3363,46.88,-46.00,106.44,-6.2239,-2.4627,4.1525,7.8768
10,6,0,0,1,17.937,17937,-7.3800,-2.7900,3.9900,8.8413,-0.8967,-0.2771,1.3134,54.56,-33.13,113.63,-6.3762,-2.5059,4.1311,8.0001
10,6,0,0,1,18.057,18057,-8.0300,-0.2600,3.8200,8.8961,-0.9665,-0.2280,1.7519,60.13,-13.50,120.25,-6.5941,-2.2099,4.0901,8.0682
10,6,0,0,1,18.178,18178,-7.5900,1.7100,3.9000,8.7030,-0.7178,-0.0633,2.0224,60.88,15.38,129.88,-6.7254,-1.6934,4.0650,8.0388
10,6,0,0,1,18.299,18299,-6.8600,4.5300,4.2100,9.2360,-0.7658,-0.3392,1.8359,55.81,39.56,140.13,-6.7431,-0.8733,4.0841,7.9317
10,6,0,0,1,18.420,18420,-6.5100,6.6100,3.0400,9.7629,-1.1301,-0.6283,2.3671,47.25,60.44,151.69,-6.7124,0.1128,3.9465,7.7874
10,6,0,0,1,18.588,18588,-4.8100,9.7000,1.2400,10.8979,-0.8170,-0.5498,2.2449,29.00,79.63,171.56,-6.4617,1.3762,3.5899,7.5190
10,6,0,0,1,18.709,18709,-2.8400,10.6100,0.7900,11.0119,-0.4232,-0.2127,1.5981,15.75,86.06,185.88,-5.9845,2.5929,3.2209,7.2740
10,6,0,0,1,18.830,18830,-1.3200,11.1800,0.1800,11.2591,-0.2400,-0.1396,1.6188,5.38,88.44,197.00,-5.3698,3.7245,2.8202,7.1176
10,6,0,0,1,18.951,18951,0.2300,10.7000,-0.0900,10.7028,-0.0949,-0.0382,1.4912,-5.06,89.44,208.00,-4.6319,4.6437,2.4367,6.9969
10,6,0,0,1,19.072,19072,1.4900,10.6200,-0.1900,10.7257,-0.1396,-0.0567,0.7919,-12.81,90.19,216.06,-3.8252,5.4312,2.0906,6.9642
10,7,0,0,1,19.193,19193,1.3600,10.9300,-0.0900,11.0147,-0.2051,-0.1178,-0.2160,-13.00,91.25,217.06,-3.1419,6.1558,1.8032,7.1426
10,7,0,0,1,19.314,19314,0.8400,11.0700,0.0000,11.1018,-0.3742,-0.0207,-0.8716,-8.63,92.81,213.63,-2.6172,6.8034,1.5656,7.4557
10,7,0,0,1,19.441,19441,0.1100,10.3500,-0.6900,10.3736,-0.9523,0.2683,-3.1023,4.06,97.31,200.00,-2.2578,7.2707,1.2684,7.7182
10,7,0,0,1,19.603,19603,-8.6500,6.5200,-3.5100,11.3865,-0.7865,-0.2956,-5.1444,48.38,116.00,148.25,-3.1001,7.1718,0.6387,7.8392
10,7,0,0,1,19.724,19724,-9.6000,3.5500,-3.2600,10.7420,0.0065,0.0251,-1.2948,64.31,137.94,126.38,-3.9567,6.6945,0.1250,7.7774
10,7,0,0,1,19.846,19846,-7.8300,2.8300,-3.4900,9.0276,-0.1298,0.3360,-1.3450,69.44,147.69,119.13,-4.4671,6.1853,-0.3514,7.6378
10,7,0,0,1,19.966,19966,-8.1100,-0.2900,-3.0700,8.6765,-0.5236,-0.1374,-2.4467,73.00,-168.19,101.63,-4.9471,5.3320,-0.7096,7.3081
10,7,0,0,1,20.104,20104,-8.1100,-1.5100,-3.2500,8.8665,-0.4625,-0.3687,-0.7843,65.50,-139.75,84.00,-5.3639,4.4304,-1.0444,7.0350
10,7,0,0,1,20.224,20224,-7.2000,-3.1400,-2.8300,8.3492,0.0316,-0.0185,-0.4920,62.19,-134.13,78.31,-5.6059,3.4328,-1.2797,6.6968
10,7,0,0,1,20.345,20345,-9.1600,-3.6200,-3.1100,10.3287,-0.0982,0.0665,-0.3294,60.25,-130.19,75.38,-6.0742,2.5034,-1.5209,6.7436
10,7,0,0,1,20.466,20466,-8.6900,-3.2100,-3.2500,9.8175,-0.2738,0.0818,-0.4778,58.81,-125.38,71.38,-6.4189,1.7506,-1.7487,6.8793
10,7,0,0,1,20.628,20628,-8.2200,-4.0100,-2.9200,9.6008,-0.1996,0.0153,-1.0527,53.56,-118.31,59.69,-6.6562,0.9915,-1.9031,6.9936
10,7,0,0,1,20.749,20749,-6.9000,-6.0700,-2.1900,9.4473,0.1713,-0.0175,-0.6065,48.81,-114.88,51.69,-6.6884,0.0609,-1.9409,6.9645
10,7,0,0,1,20.875,20875,-6.6700,-6.0100,-2.6700,9.3669,0.1985,-0.0611,-0.6403,44.94,-113.75,48.13,-6.6859,-0.7391,-2.0370,7.0283
10,7,0,0,1,20.997,20997,-6.2000,-6.6600,-3.0200,9.5873,0.0382,-0.2640,-0.6469,40.06,-113.81,41.94,-6.6219,-1.5193,-2.1665,7.1310
10,7,0,0,1,21.117,21117,-5.3400,-6.5200,-3.7800,9.2366,0.0556,-0.2574,-0.6589,35.38,-114.38,34.06,-6.4530,-2.1782,-2.3791,7.2143
10,7,0,0,1,21.238,21238,-4.8300,-7.6900,-3.3300,9.6723,0.0164,-0.2302,-0.5367,31.06,-114.69,27.00,-6.2391,-2.9046,-2.5044,7.3236
10,7,0,0,1,21.359,21359,-4.3700,-7.3200,-3.7700,9.3216,-0.1200,-0.1800,-0.4265,27.56,-114.00,19.19,-5.9928,-3.4864,-2.6712,7.4299
10,7,0,0,1,21.480,21480,-3.2700,-7.8500,-1.8000,8.6923,-0.0556,0.0938,-0.2705,25.13,-113.13,14.56,-5.6340,-4.0614,-2.5564,7.4008
10,7,0,0,1,21.648,21648,-5.4000,-7.0000,-3.9400,9.6790,0.5792,0.8738,1.2403,29.38,-112.44,23.06,-5.6032,-4.4486,-2.7387,7.6607
10,7,0,0,1,21.769,21769,-6.2400,-6.4800,-3.5700,9.6785,0.5291,1.0843,1.6919,43.63,-116.31,47.31,-5.6871,-4.7163,-2.8483,7.9183
10,7,0,0,1,21.891,21891,-7.6800,-5.2200,-2.7300,9.6790,-0.0371,1.4835,1.3210,55.81,-113.44,65.25,-5.9497,-4.7827,-2.8327,8.1423
10,7,0,0,1,22.011,22011,-8.3600,-3.6500,-0.8100,9.1580,-0.4047,1.6952,1.7551,68.44,-96.81,79.13,-6.2673,-4.6334,-2.5661,8.2057
10,7,0,0,1,22.132,22132,-8.8700,-0.2800,0.6800,8.9004,-0.4516,1.7377,2.1609,77.75,-38.88,92.81,-6.6103,-4.0598,-2.1384,8.0468
10,7,0,0,1,22.254,22254,-8.1300,2.3200,2.7400,8.8875,-0.2073,1.3374,2.0977,69.00,19.50,105.94,-6.8105,-3.2191,-1.4955,7.6800
10,7,0,0,1,22.380,22380,-7.5200,3.4500,4.3500,9.3475,-0.4156,0.9108,1.8740,56.25,37.19,117.94,-6.9040,-2.3403,-0.7252,7.3259
10,7,0,0,1,22.501,22501,-6.2500,6.6300,4.6400,10.2249,-0.8236,0.4963,1.2828,44.94,48.00,125.88,-6.8179,-1.1582,-0.0182,6.9156
10,7,0,0,1,22.664,22664,-4.9000,7.9400,3.9000,10.1125,-0.8618,-0.2585,1.1596,35.69,59.56,133.19,-6.5651,0.0407,0.4981,6.5841
10,7,0,0,1,22.786,22786,-4.5000,8.6500,3.0000,10.2016,-0.4887,-0.8170,0.7985,31.69,68.19,140.00,-6.2930,1.1752,0.8278,6.4551
10,8,0,0,1,22.907,22907,-4.6100,9.0700,1.9900,10.3671,-0.2367,-0.8618,1.2457,27.44,74.81,149.38,-6.0712,2.2155,0.9809,6.5369
10,8,0,0,1,23.032,23032,-3.5100,9.9400,1.4000,10.6341,-0.2563,-0.5563,1.4672,19.38,79.63,161.69,-5.7337,3.2334,1.0361,6.6636
10,8,0,0,1,23.154,23154,-2.2700,10.5200,1.4000,10.8528,0.0894,-0.1069,1.6177,9.00,81.25,174.38,-5.2773,4.1936,1.0841,6.8272
10,8,0,0,1,23.274,23274,0.2900,10.6600,1.9300,10.8372,0.4145,0.1309,1.2163,-0.94,79.56,184.25,-4.5437,5.0457,1.1956,6.8944
10,8,0,0,1,23.395,23395,0.9900,10.4700,2.4200,10.7915,0.3971,0.1974,-0.1996,-4.56,76.69,186.50,-3.8145,5.7605,1.3569,7.0409
10,8,0,0,1,23.516,23516,-1.0500,10.0000,2.7800,10.4322,0.1320,0.0513,-1.5141,1.63,74.94,179.13,-3.4502,6.3191,1.5444,7.3635
10,8,0,0,1,23.679,23679,-4.4800,10.6100,2.7800,11.8478,0.0698,-0.1014,-1.6864,15.06,74.50,165.88,-3.5859,6.8846,1.7073,7.9480
10,8,0,0,1,23.805,23805,-6.8100,8.0500,3.5900,11.1385,0.6730,0.5356,-3.2441,30.88,68.75,148.94,-4.0107,7.0381,1.9554,8.3334
10,8,0,0,1,23.927,23927,-7.2300,6.4500,4.5700,10.7126,0.6632,1.3243,-2.2853,45.50,49.81,126.31,-4.4350,6.9606,2.2999,8.5679
10,8,0,0,1,24.047,24047,-6.1000,5.6800,5.0000,9.7197,0.8454,0.2138,-1.1923,48.25,32.50,116.38,-4.6544,6.7919,2.6557,8.6513
10,8,0,0,1,24.168,24168,-6.6700,2.1700,4.2100,8.1806,1.0734,-0.2531,-1.3832,52.81,16.69,111.19,-4.9200,6.1828,2.8605,8.4033
10,8,0,0,1,24.289,24289,-8.0200,-0.1900,4.5300,9.2129,0.8018,0.2051,-1.1094,54.50,-1.13,105.75,-5.3285,5.3431,3.0805,8.1505
10,8,0,0,1,24.411,24411,-7.8700,-0.4000,5.5900,9.6615,0.4309,0.7156,-0.4811,50.44,-10.81,102.75,-5.6634,4.5863,3.4112,8.0464
10,8,0,0,1,24.537,24537,-5.5100,-2.0500,6.1700,8.5224,0.6349,0.5770,-0.7101,44.94,-16.94,101.00,-5.6432,3.7118,3.7747,7.7377
10,8,0,0,1,24.699,24699,-6.6400,-3.0000,6.8300,9.9869,0.4636,0.2640,-0.2313,40.44,-25.81,98.25,-5.7745,2.8273,4.1773,7.6674
10,8,0,0,1,24.819,24819,-6.7900,-2.8400,6.3900,9.7469,0.4854,0.6000,-0.2574,37.50,-28.38,98.75,-5.9083,2.0805,4.4689,7.6947
10,8,0,0,1,24.940,24940,-5.3900,-3.7700,7.2800,9.8114,0.6207,1.2970,-0.1909,30.63,-31.00,99.75,-5.8400,1.3096,4.8393,7.6968
10,8,0,0,1,25.061,25061,-2.7800,-4.6700,7.0200,8.8779,0.9272,0.7167,-0.0633,24.50,-34.00,102.56,-5.4368,0.5216,5.1267,7.4909
10,8,0,0,1,25.182,25182,-3.8200,-5.6100,8.1200,10.5830,0.4516,0.0240,0.0196,22.44,-38.63,103.81,-5.2238,-0.2864,5.5211,7.6061
10,8,0,0,1,25.303,25303,-3.3000,-5.6200,5.2400,8.3625,0.4211,-0.4069,-0.5400,23.06,-41.31,102.69,-4.9702,-0.9892,5.4841,7.4671
10,9,0,0,1,25.424,25424,-4.1500,-5.7800,5.9300,9.2626,0.3742,-0.3818,-0.4276,21.75,-46.75,97.75,-4.8622,-1.6205,5.5429,7.5492
10,9,0,0,1,25.550,25550,-3.0400,-6.8300,4.5900,8.7726,0.3360,-0.5116,-0.3065,22.94,-49.81,95.75,-4.6220,-2.3070,5.4173,7.4855
10,9,0,0,1,25.712,25712,-3.0800,-7.7100,4.4300,9.4104,-0.0524,-0.2956,-0.1516,22.00,-55.06,90.06,-4.4188,-3.0190,5.2872,7.5229
10,9,0,0,1,25.833,25833,-3.3300,-6.4700,4.7700,8.7007,-0.3949,-0.4200,0.5149,24.38,-53.81,90.00,-4.2754,-3.4737,5.2190,7.5884
10,9,0,0,1,25.955,25955,-4.2500,-6.1900,4.3600,8.6826,-0.4647,-0.8770,0.7625,30.69,-51.38,91.69,-4.2720,-3.8317,5.1058,7.6812
10,9,0,0,1,26.076,26076,-6.1000,-5.0000,4.4600,9.0610,-0.7385,-0.7538,0.8836,38.31,-48.38,92.88,-4.5129,-3.9856,5.0207,7.8396
10,9,0,0,1,26.202,26202,-7.0400,-2.9500,4.4600,8.8406,-0.9719,-0.4985,1.3035,46.44,-39.88,99.50,-4.8459,-3.8491,4.9468,7.9228
10,9,0,0,1,26.324,26324,-7.8800,-1.5400,4.5600,9.2336,-0.6960,-0.4691,1.7431,55.56,-23.06,108.75,-5.2457,-3.5449,4.8959,8.0033
10,9,0,0,1,26.444,26444,-8.7100,0.6500,4.8400,9.9856,-0.6283,-0.3578,1.1966,60.75,-4.63,115.75,-5.7022,-2.9921,4.8885,8.0849
10,9,0,0,1,26.565,26565,-8.8100,2.0300,4.2500,9.9900,-0.6076,-0.2716,1.1345,62.06,13.81,120.81,-6.1118,-2.3303,4.8044,8.1158
10,9,0,0,1,26.727,26727,-8.0800,4.3400,3.6700,9.8788,-0.4003,-0.3131,1.3352,59.56,38.31,129.69,-6.3711,-1.4513,4.6549,8.0228
10,9,0,0,1,26.848,26848,-8.1300,5.4900,3.1800,10.3126,-0.3807,-0.4014,1.3712,54.50,53.25,138.31,-6.6029,-0.5366,4.4605,7.9864
10,9,0,0,1,26.970,26970,-7.0100,5.8600,2.7100,9.5302,-0.3392,-0.4701,1.0319,49.19,64.00,145.94,-6.6565,0.3063,4.2299,7.8927
10,9,0,0,1,27.096,27096,-6.9600,7.5500,1.8200,10.4286,-0.2662,-0.4778,1.1563,43.81,72.06,153.31,-6.6965,1.2608,3.9123,7.8574
10,9,0,0,1,27.217,27217,-5.9000,8.0400,1.6000,10.1001,-0.1374,-0.3207,1.1617,36.56,77.75,162.81,-6.5916,2.1541,3.6076,7.8169
10,9,0,0,1,27.338,27338,-4.0100,7.5300,1.6000,8.6799,-0.3960,-0.1189,1.3995,28.63,81.25,171.44,-6.2514,2.8625,3.3430,7.6453
10,9,0,0,1,27.459,27459,-2.6200,11.0300,0.4200,11.3447,-0.7756,0.0938,2.6802,16.25,86.06,182.56,-5.7729,3.9388,2.9579,7.5887
10,9,0,0,1,27.581,27581,2.4600,12.4600,-0.7400,12.7221,0.3643,0.2389,3.9052,-8.31,87.88,205.25,-4.6880,5.0617,2.4706,7.3281
10,9,0,0,1,27.748,27748,3.3600,8.3000,2.4500,9.2834,1.2675,-0.3054,0.1287,-24.00,77.06,219.25,-3.6275,5.4884,2.4679,7.0265
10,9,0,0,1,27.869,27869,3.1800,9.0000,3.1000,10.0361,0.3611,0.5301,0.4461,-24.50,71.94,217.13,-2.7304,5.9511,2.5512,7.0271
10,9,0,0,1,27.991,27991,6.1800,8.0900,2.7200,10.5375,0.1822,0.5443,0.5858,-30.63,71.50,218.94,-1.5562,6.2330,2.5734,6.9206
10,10,0,0,1,28.111,28111,5.6800,7.5700,2.6800,9.8361,-0.5432,0.1134,-2.6114,-25.00,74.75,211.06,-0.6027,6.4092,2.5875,6.9380
10,10,0,0,1,28.233,28233,-0.9200,8.5400,0.9500,8.6418,-0.8705,-0.6949,-4.4713,0.94,81.06,187.88,-0.6445,6.6900,2.3717,7.1271
10,10,0,0,1,28.359,28359,-6.2000,8.7200,0.1700,10.7008,-0.4276,-1.0167,-2.8732,26.63,86.63,167.13,-1.3766,6.9575,2.0816,7.3915
10,10,0,0,1,28.481,28481,-6.2900,7.9500,-0.7300,10.1636,-0.4091,-0.7276,-1.1846,39.25,93.50,157.94,-2.0240,7.0883,1.7111,7.5676
10,10,0,0,1,28.601,28601,-6.4700,6.7700,-1.6100,9.5019,-0.3949,-0.4385,-0.8890,45.38,99.31,152.81,-2.6099,7.0463,1.2734,7.6213
10,10,0,0,1,28.763,28763,-7.6900,6.4100,-3.1200,10.4861,-0.1331,-0.8247,-0.9054,52.25,114.06,143.81,-3.2793,6.9625,0.6945,7.7274
10,10,0,0,1,28.884,28884,-8.1300,4.4400,-3.5300,9.9132,-0.1385,-0.9043,-0.6600,53.63,123.25,143.81,-3.9185,6.6301,0.1378,7.7027
10,10,0,0,1,29.005,29005,-8.6200,4.0400,-5.0100,10.7576,-0.6818,-0.9796,-1.4781,54.63,140.06,136.69,-4.5381,6.2888,-0.5405,7.7740
10,10,0,0,1,29.126,29126,-8.9300,2.8700,-5.0900,10.6719,-0.4745,-0.4767,-1.0799,54.88,158.38,124.81,-5.1168,5.8383,-1.1400,7.8464
10,10,0,0,1,29.248,29248,-8.1800,2.3800,-5.8200,10.3174,-0.2978,0.3185,-0.8301,56.56,169.00,114.25,-5.5205,5.3826,-1.7567,7.9078
10,10,0,0,1,29.373,29373,-7.7200,0.0300,-5.2000,9.3080,-0.5781,-0.0589,-1.3952,58.38,-176.56,101.94,-5.8103,4.6772,-2.2105,7.7796
10,10,0,0,1,29.494,29494,-7.5300,-2.0000,-4.6500,9.0732,-0.7985,-0.0840,-1.5512,54.63,-156.19,82.13,-6.0369,3.7973,-2.5319,7.5680
10,10,0,0,1,29.615,29615,-7.0200,-1.8100,-4.5600,8.5645,-0.4123,0.1047,-0.3163,52.06,-144.88,69.44,-6.1665,3.0584,-2.7992,7.4307
10,10,0,0,1,29.777,29777,-7.1100,-4.6300,-4.7100,9.7043,-0.1636,-0.1756,-0.7309,49.81,-140.69,64.00,-6.2908,2.0453,-3.0510,7.2846
10,10,0,0,1,29.898,29898,-7.2500,-4.0500,-4.6600,9.5226,-0.6174,0.1833,-0.4440,47.13,-134.56,55.63,-6.4172,1.2421,-3.2630,7.3055
10,10,0,0,1,30.021,30021,-7.6600,-4.3100,-4.0300,9.6692,-0.4058,0.4189,-0.8061,45.06,-126.56,48.69,-6.5810,0.5105,-3.3641,7.4086
10,10,0,0,1,30.142,30142,-6.7500,-5.5500,-3.7700,9.5172,0.0262,0.5225,-0.2487,44.63,-121.06,47.63,-6.6032,-0.2882,-3.4176,7.4408
10,10,0,0,1,30.266,30266,-5.9700,-6.8200,-2.5200,9.4076,-0.2007,0.2574,-0.5149,43.13,-116.50,46.50,-6.5198,-1.1489,-3.2993,7.3968
10,10,0,0,1,30.387,30387,-6.7400,-5.6600,-3.6100,9.5129,-0.2018,-0.1429,-0.3000,41.19,-114.00,42.50,-6.5488,-1.7433,-3.3402,7.5553
10,10,0,0,1,30.508,30508,-6.0700,-7.1600,-2.8400,9.8069,-0.0240,-0.0894,-0.3207,39.19,-113.50,39.06,-6.4857,-2.4571,-3.2743,7.6696
10,10,0,0,1,30.629,30629,-6.2100,-6.3900,-3.1500,9.4509,-0.1876,0.3436,-0.2553,37.44,-111.00,34.81,-6.4494,-2.9754,-3.2579,7.8142
10,10,0,0,1,30.791,30791,-4.1500,-6.7100,-1.1600,7.9745,-0.1844,0.3022,0.0098,36.94,-107.50,35.88,-6.1464,-3.4675,-2.9815,7.6610
10,10,0,0,1,30.913,30913,-7.1600,-4.8600,-3.0500,9.1754,0.4407,0.5007,2.0922,44.81,-107.69,44.19,-6.2800,-3.6510,-2.9905,7.8556
10,10,0,0,1,31.034,31034,-9.9400,-5.5500,-2.2200,11.5989,1.0101,1.3515,1.8719,60.31,-112.19,68.00,-6.7623,-3.9012,-2.8890,8.3243
10,10,0,0,1,31.159,31159,-9.5000,-3.9000,-0.2300,10.2719,0.1440,2.4925,1.6079,74.00,-88.00,88.06,-7.1230,-3.9011,-2.5386,8.5088
10,10,0,0,1,31.281,31281,-7.6800,-0.4100,2.3700,8.0478,-0.2203,2.0289,1.1857,71.56,-18.38,100.38,-7.1964,-3.4410,-1.8918,8.1980
10,10,0,0,1,31.401,31401,-7.4500,0.0300,3.7200,8.3272,-0.5247,0.5934,1.2686,64.13,6.69,107.13,-7.2298,-2.9836,-1.1523,7.9057
10,10,0,0,1,31.522,31522,-7.6800,2.5800,3.8100,8.9529,-0.7134,-0.1156,1.3810,60.44,26.69,113.25,-7.2892,-2.2505,-0.4984,7.6449
10,10,0,0,1,31.643,31643,-8.6100,4.9300,3.4400,10.5010,-0.2116,-0.2083,1.2370,56.63,42.81,121.00,-7.4632,-1.3043,0.0206,7.5763
10,10,0,0,1,31.805,31805,-6.8600,4.4700,4.0100,9.1171,-0.1091,0.3632,1.0777,48.94,50.69,130.19,-7.3837,-0.5434,0.5463,7.4238
10,10,0,0,1,31.932,31932,-5.2100,5.8400,4.2400,8.9010,-0.1342,0.4920,1.6122,39.94,54.19,137.38,-7.0973,0.2978,1.0330,7.1782
10,10,0,0,1,32.053,32053,-4.6500,7.9400,4.7500,10.3551,-0.3327,0.0207,1.7519,28.31,59.75,148.88,-6.7748,1.3048,1.5228,7.0654
10,10,0,0,1,32.173,32173,-4.2800,8.4800,4.0400,10.3223,-0.5705,-0.0556,1.0723,20.31,65.25,157.38,-6.4460,2.2503,1.8545,7.0749
10,10,0,0,1,32.294,32294,-2.8600,9.0000,3.3600,10.0234,-0.3131,0.0774,0.8596,14.69,69.06,162.69,-5.9735,3.1398,2.0529,7.0537
10,10,0,0,1,32.415,32415,-1.4200,9.4200,3.2400,10.0623,-0.0600,0.1833,0.8683,9.25,70.25,167.31,-5.3735,3.9673,2.2093,7.0353
10,10,0,0,1,32.536,32536,0.2400,9.0100,2.9700,9.4899,-0.1396,0.0240,0.7418,3.69,70.81,172.25,-4.6337,4.6318,2.3096,6.9469
10,10,0,0,1,32.657,32657,0.8400,9.9800,3.1900,10.5110,-0.3109,-0.1702,1.0974,-1.44,72.44,178.19,-3.9124,5.3366,2.4256,7.0477
10,10,0,0,1,32.825,32825,1.7800,9.9500,2.7900,10.4859,-0.1756,-0.5116,0.7669,-9.88,74.19,190.50,-3.1623,5.9445,2.4736,7.1733
10,10,0,0,1,32.946,32946,1.0600,9.7300,2.7300,10.1612,-0.0884,-0.4527,0.0731,-10.94,74.13,195.69,-2.6059,6.4433,2.5074,7.3888
10,10,0,0,1,33.066,33066,0.8900,10.0500,2.3500,10.3594,-0.0654,-0.1069,-0.0644,-9.19,74.75,196.06,-2.1453,6.9186,2.4867,7.6585
10,10,0,0,1,33.187,33187,0.8800,9.7900,2.5600,10.1574,-0.0349,-0.0044,-0.6392,-6.50,75.31,193.63,-1.7466,7.2970,2.4963,7.9075
10,10,0,0,1,33.308,33308,0.3800,9.8600,2.4500,10.1669,-0.0938,-0.2105,-1.0374,-0.56,75.94,188.19,-1.4664,7.6347,2.4902,8.1634
10,10,0,0,1,33.429,33429,-0.6800,9.4400,2.5100,9.7916,-0.1331,-0.3752,-1.4170,7.81,76.69,181.63,-1.3627,7.8726,2.4928,8.3695
