participant,rep,equipment_code,exercise_code,quality_code,timestamp,timestamp_ms,accelX,accelY,accelZ,accelMag,gyroX,gyroY,gyroZ,roll,pitch,yaw,filteredX,filteredY,filteredZ,filteredMag
10,1,0,0,1,00.000,0,0.3200,9.4400,2.2500,9.7097,0.0033,-0.2509,0.8476,-3.81,76.69,158.19,2.5678,9.0317,1.8379,9.5678
10,1,0,0,1,00.126,126,1.8000,9.2400,2.1500,9.6561,-0.1418,0.1822,0.4342,-8.63,77.19,163.63,2.4666,9.0592,1.8790,9.5751
10,1,0,0,1,00.248,248,1.8200,9.5400,1.8300,9.8830,-0.1254,0.1582,-0.1298,-9.50,78.50,163.44,2.3814,9.1225,1.8725,9.6124
10,1,0,0,1,00.410,410,1.4900,9.5300,1.6400,9.7842,-0.0862,-0.1396,-0.0273,-8.88,79.44,163.13,2.2639,9.1762,1.8419,9.6292
10,1,0,0,1,00.531,531,1.2500,9.7800,1.6200,9.9918,-0.1004,-0.1451,-0.1822,-8.00,79.88,163.88,2.1303,9.2558,1.8127,9.6692
10,1,0,0,1,00.653,653,1.0900,9.7000,1.5400,9.8818,-0.1222,-0.0829,-0.1996,-6.44,80.63,163.31,1.9932,9.3143,1.7767,9.6895
10,1,0,0,1,00.773,773,0.8000,9.7000,1.3500,9.8261,-0.0142,0.0349,-0.1527,-5.31,81.13,162.50,1.8360,9.3651,1.7205,9.6973
10,1,0,0,1,00.894,894,0.7600,9.5900,1.4100,9.7228,-0.0447,0.1036,-0.0589,-4.63,81.25,161.19,1.6942,9.3948,1.6796,9.6929
10,1,0,0,1,01.015,1015,0.9100,9.7500,1.2700,9.8744,-0.0807,0.1025,0.0382,-4.88,81.81,160.81,1.5909,9.4416,1.6256,9.7117
10,1,0,0,1,01.140,1140,0.9900,9.8000,1.1900,9.9215,-0.0109,0.0644,-0.0316,-5.00,82.19,160.31,1.5117,9.4888,1.5682,9.7356
10,1,0,0,1,01.261,1261,0.8700,9.6800,1.2600,9.8004,0.0153,-0.0338,-0.0273,-4.75,82.19,160.06,1.4271,9.5140,1.5276,9.7410
10,1,0,0,1,01.423,1423,0.7900,9.7200,1.1600,9.8208,-0.0295,-0.0709,-0.0327,-4.56,82.25,160.38,1.3432,9.5412,1.4792,9.7481
10,1,0,0,1,01.544,1544,0.7200,9.7100,1.2000,9.8103,-0.0120,-0.0556,-0.0665,-4.13,82.38,160.38,1.2611,9.5634,1.4424,9.7534
10,1,0,0,1,01.665,1665,0.9100,9.8400,1.2600,9.9620,0.0098,-0.0589,0.0000,-3.88,82.31,160.44,1.2148,9.5999,1.4183,9.7798
10,1,0,0,1,01.786,1786,1.4400,10.3300,1.4400,10.5288,0.0993,-0.1953,0.0240,-4.31,82.00,161.56,1.2445,9.6961,1.4212,9.8784
10,1,0,0,1,01.907,1907,1.5400,10.5200,1.8700,10.7953,0.3382,-0.3851,0.2182,-5.50,80.31,164.56,1.2834,9.8046,1.4803,9.9985
10,1,0,0,1,02.033,2033,1.3200,10.1000,2.3700,10.4580,0.6250,-0.4276,0.6883,-8.13,76.56,169.81,1.2882,9.8436,1.5976,10.0552
10,1,0,0,1,02.154,2154,1.7600,9.4700,2.8900,10.0564,0.5989,-0.3011,0.8279,-12.88,71.25,176.88,1.3504,9.7943,1.7679,10.0438
10,1,0,0,1,02.275,2275,2.5200,9.1600,3.4300,10.1005,0.5869,-0.2443,0.7996,-16.94,66.69,182.13,1.5045,9.7107,1.9869,10.0255
10,1,0,0,1,02.437,2437,3.1300,7.9400,4.2700,9.5432,0.5629,-0.1298,0.8454,-22.69,59.56,189.38,1.7187,9.4774,2.2878,9.9000
10,1,0,0,1,02.558,2558,3.8000,7.3900,4.6400,9.5174,0.5367,-0.0142,0.7134,-26.56,54.81,193.56,1.9930,9.2023,2.5977,9.7675
10,1,0,0,1,02.681,2681,4.7900,6.6800,5.4700,9.8736,0.5181,-0.2029,0.7538,-29.88,49.44,197.50,2.3616,8.8700,2.9762,9.6494
10,1,0,0,1,02.802,2802,4.9800,6.0700,6.1900,9.9981,0.5323,-0.2411,0.5421,-32.13,43.56,201.69,2.7066,8.5010,3.3997,9.5473
10,1,0,0,1,02.926,2926,4.6500,5.4100,6.9300,9.9456,0.7243,0.0153,0.4560,-33.81,36.50,204.06,2.9627,8.0937,3.8649,9.4458
10,1,0,0,1,03.048,3048,4.8600,4.3500,6.9400,9.5240,0.7898,0.3011,0.5803,-36.38,30.19,204.94,3.2127,7.6004,4.2701,9.2909
10,1,0,0,1,03.168,3168,6.1300,3.5300,7.0000,9.9518,0.8301,0.4309,0.4887,-40.38,22.88,206.25,3.5971,7.0640,4.6299,9.1801
10,1,0,0,1,03.289,3289,6.4100,2.3900,6.5100,9.4435,0.9250,0.4909,0.5934,-44.38,15.19,206.88,3.9678,6.4481,4.8776,9.0062
10,1,0,0,1,03.452,3452,6.8600,0.6200,6.0100,9.1413,1.0177,0.6643,0.6818,-50.31,0.25,205.81,4.3489,5.6801,5.0268,8.7433
10,1,0,0,1,03.577,3577,7.7000,-0.9200,5.2200,9.3480,0.8934,0.5901,0.5858,-54.25,-12.19,206.81,4.7905,4.8104,5.0523,8.4625
10,1,0,0,1,03.699,3699,7.7600,-1.5800,4.5100,9.1134,0.8236,0.2847,0.5574,-55.69,-24.94,207.94,5.1818,3.9683,4.9808,8.2102
10,1,0,0,1,03.820,3820,7.2700,-2.9900,4.2800,8.9505,0.7832,0.3349,0.5901,-55.13,-37.06,209.50,5.4570,3.0514,4.8885,7.9364
10,1,0,0,1,03.941,3941,7.6300,-3.6200,3.4000,9.1039,0.7559,0.6720,0.6425,-55.13,-49.38,211.50,5.7433,2.1722,4.6923,7.7280
10,1,0,0,1,04.062,4062,7.9500,-4.6800,2.5400,9.5685,0.7167,0.5694,0.8421,-53.13,-63.19,215.25,6.0341,1.2693,4.4087,7.5801
10,1,0,0,1,04.183,4183,6.9500,-5.4000,1.6100,8.9473,0.6425,0.2683,0.7243,-49.56,-73.19,218.63,6.1548,0.3904,4.0399,7.3726
10,1,0,0,1,04.304,4304,6.4000,-6.1300,1.0700,8.9265,0.6621,0.1494,0.7330,-45.13,-80.19,221.38,6.1871,-0.4688,3.6486,7.1981
10,1,0,0,1,04.466,4466,6.0000,-7.2400,-0.1000,9.4036,0.4920,-0.0993,0.4222,-40.13,-86.31,223.44,6.1625,-1.3611,3.1546,7.0555
10,1,0,0,1,04.592,4592,5.5500,-7.4300,-0.4100,9.2831,0.1233,-0.4254,-0.1505,-39.44,-87.31,221.31,6.0817,-2.1608,2.6849,6.9904
10,2,0,0,1,04.713,4713,5.5900,-7.1700,0.2900,9.0962,-0.2018,-0.2171,-0.3207,-40.94,-85.13,218.19,6.0169,-2.8209,2.3693,7.0551
10,2,0,0,1,04.833,4833,6.3300,-6.9300,0.6600,9.4090,-0.5596,0.0153,-0.3840,-42.75,-82.19,217.94,6.0582,-3.3624,2.1440,7.2529
10,2,0,0,1,04.954,4954,6.7000,-5.9000,1.3200,9.0245,-0.9523,-0.4789,-0.9130,-47.06,-74.69,212.06,6.1428,-3.6967,2.0355,7.4527
10,2,0,0,1,05.075,5075,6.5200,-4.5200,2.5800,8.3425,-1.1868,-0.5781,-1.0287,-51.38,-60.25,205.06,6.1925,-3.8052,2.1072,7.5675
10,2,0,0,1,05.196,5196,7.1200,-2.6700,3.5900,8.4090,-1.1606,-0.3022,-1.0079,-55.38,-43.50,201.63,6.3147,-3.6556,2.3026,7.6512
10,2,0,0,1,05.318,5318,7.9100,-1.7100,4.5800,9.2988,-1.1945,-0.7570,-1.1236,-56.69,-25.06,198.81,6.5249,-3.3993,2.6027,7.8041
10,2,0,0,1,05.485,5485,6.1700,1.3800,6.4000,8.9963,-0.9839,-0.7243,-1.0505,-51.13,2.19,193.00,6.4782,-2.7695,3.1031,7.6984
10,2,0,0,1,05.606,5606,7.1400,2.1500,7.2200,10.3793,-1.0036,-0.6600,-0.9043,-45.81,14.19,190.56,6.5654,-2.1212,3.6456,7.8035
10,2,0,0,1,05.727,5727,5.7700,4.2300,6.9500,9.9744,-0.8476,-0.8181,-0.6349,-39.06,24.19,187.94,6.4606,-1.2843,4.0810,7.7487
10,2,0,0,1,05.848,5848,4.9900,4.6700,7.0900,9.8477,-0.7952,-0.5367,-0.4647,-33.63,29.88,187.81,6.2668,-0.4997,4.4775,7.7182
10,2,0,0,1,05.969,5969,3.8900,5.5900,6.8100,9.6310,-0.8836,-0.5291,-0.4069,-28.69,36.00,187.19,5.9536,0.3028,4.7849,7.6441
10,2,0,0,1,06.090,6090,3.4500,6.4700,6.4000,9.7326,-0.6938,-0.1331,-0.3272,-25.56,41.50,187.19,5.6237,1.1155,4.9977,7.6057
10,2,0,0,1,06.211,6211,3.9600,6.9900,6.1100,10.0933,-0.6436,-0.0065,-0.2880,-23.69,46.69,186.06,5.4044,1.8896,5.1443,7.6969
10,2,0,0,1,06.336,6336,4.0400,7.6000,5.3700,10.1449,-0.6938,-0.5781,-0.3589,-20.94,51.25,185.75,5.2246,2.6421,5.1740,7.8133
10,2,0,0,1,06.499,6499,1.9500,8.1100,4.8900,9.6689,-0.5400,-0.7352,-0.2443,-14.25,55.63,187.50,4.7931,3.3626,5.1366,7.7888
10,2,0,0,1,06.620,6620,1.3000,8.6500,4.9800,10.0654,-0.5967,-0.3469,-0.2094,-10.81,58.94,188.31,4.3328,4.0594,5.1160,7.8374
10,2,0,0,1,06.742,6742,1.1300,8.6300,4.1500,9.6424,-0.6687,-0.0949,-0.0415,-9.25,63.25,188.50,3.9108,4.6616,4.9887,7.8684
10,2,0,0,1,06.863,6863,1.1100,9.6600,3.8900,10.4728,-0.5683,0.0774,-0.1516,-8.81,67.44,188.56,3.5417,5.3203,4.8439,8.0195
10,2,0,0,1,06.984,6984,0.9800,9.9800,3.5600,10.6412,-0.3360,0.3818,-0.0404,-8.31,70.75,185.94,3.2041,5.9343,4.6747,8.2058
10,2,0,0,1,07.111,7111,1.3600,9.2700,2.8500,9.7931,-0.0480,0.5607,0.1658,-9.69,72.31,183.00,2.9611,6.3739,4.4343,8.3101
10,2,0,0,1,07.232,7232,1.9100,9.2200,2.6400,9.7789,-0.0753,0.4003,-0.1854,-10.69,73.06,179.19,2.8226,6.7489,4.1978,8.4343
10,2,0,0,1,07.352,7352,1.6900,9.4800,2.0800,9.8515,-0.2825,0.2542,-0.1778,-10.00,75.06,176.50,2.6734,7.1088,3.9188,8.5463
10,2,0,0,1,07.514,7514,1.7800,10.0200,2.2000,10.4120,-0.0382,0.4331,0.0065,-9.75,77.38,173.63,2.5556,7.4924,3.6923,8.7350
10,2,0,0,1,07.635,7635,2.3000,10.2500,2.6400,10.8315,0.1265,0.6665,0.2989,-11.69,77.50,171.69,2.5220,7.8558,3.5536,8.9834
10,2,0,0,1,07.756,7756,2.9500,10.0600,2.7400,10.8358,0.4352,0.7909,0.6818,-16.06,76.63,170.88,2.5784,8.1463,3.4464,9.2134
10,2,0,0,1,07.877,7877,3.8800,9.4300,2.9500,10.6152,0.7974,0.7505,0.9436,-22.75,73.56,171.38,2.7499,8.3154,3.3810,9.3883
10,2,0,0,1,08.003,8003,5.2800,8.3600,2.9600,10.3213,0.8596,0.6829,1.1650,-31.06,69.06,173.38,3.0833,8.3213,3.3255,9.4768
10,2,0,0,1,08.125,8125,6.8500,7.0500,3.3600,10.3882,0.8934,-0.0295,1.0636,-39.50,61.56,177.56,3.5796,8.1538,3.3301,9.5072
10,2,0,0,1,08.245,8245,6.4700,6.1400,3.9700,9.7633,0.8890,-0.4200,0.7930,-43.13,51.81,181.31,3.9605,7.8884,3.4144,9.4642
10,2,0,0,1,08.366,8366,5.9000,5.1900,4.5100,9.0601,0.7941,-0.2618,0.9119,-45.38,40.50,185.25,4.2161,7.5328,3.5588,9.3372
10,2,0,0,1,08.528,8528,7.2400,3.2100,5.4300,9.6024,0.6480,-0.0894,0.8039,-48.81,26.19,189.94,4.6146,6.9632,3.8053,9.1794
10,2,0,0,1,08.649,8649,7.0600,1.8000,5.8000,9.3126,0.5018,-0.3338,0.8868,-49.50,15.88,194.06,4.9368,6.2828,4.0682,8.9664
10,2,0,0,1,08.772,8772,7.0600,1.3100,6.0700,9.4024,0.2716,-0.3611,0.6589,-48.25,7.31,198.19,5.2166,5.6275,4.3320,8.8118
10,2,0,0,1,08.896,8896,6.8100,0.3800,6.3100,9.2917,0.1963,-0.6000,0.7341,-45.44,0.94,202.19,5.4266,4.9360,4.5926,8.6547
10,2,0,0,1,09.018,9018,5.6300,-0.1000,7.0300,9.0071,0.2073,-0.4232,0.5858,-41.13,-4.94,206.50,5.4534,4.2724,4.9138,8.4934
10,2,0,0,1,09.138,9138,5.7100,-0.8300,7.3500,9.3443,0.1407,0.0480,0.8716,-39.56,-9.81,210.75,5.4872,3.6000,5.2348,8.3948
10,2,0,0,1,09.259,9259,6.4200,-2.0000,7.3900,9.9914,0.1538,-0.0087,0.8552,-38.69,-15.81,216.69,5.6101,2.8621,5.5188,8.3739
10,2,0,0,1,09.380,9380,5.2400,-2.5800,6.8700,9.0173,0.0055,-0.5421,0.5094,-35.63,-18.94,220.50,5.5613,2.1450,5.6969,8.2452
10,2,0,0,1,09.544,9544,3.4000,-2.6700,7.6100,8.7522,-0.0502,-0.0993,0.0316,-30.94,-19.75,222.44,5.2765,1.5105,5.9490,8.0941
10,3,0,0,1,09.669,9669,4.6000,-2.9500,7.7200,9.4584,-0.0175,0.4451,0.1451,-31.13,-20.19,223.56,5.1874,0.9227,6.1824,8.1229
10,3,0,0,1,09.790,9790,5.5800,-2.7600,7.2900,9.5863,-0.1963,0.1178,-0.0535,-33.38,-19.88,223.75,5.2391,0.4374,6.3283,8.2272
10,3,0,0,1,09.911,9911,4.8300,-2.3500,7.0800,8.8869,-0.2007,-0.1887,-0.3840,-33.25,-17.94,222.81,5.1852,0.0701,6.4274,8.2585
10,3,0,0,1,10.032,10032,4.5600,-1.7100,7.1900,8.6841,-0.5345,0.0589,-0.8290,-34.06,-12.06,218.06,5.1028,-0.1645,6.5279,8.2873
10,3,0,0,1,10.153,10153,5.0200,-0.7200,7.0100,8.6521,-0.6654,0.1298,-0.6796,-35.38,-5.31,214.63,5.0919,-0.2377,6.5914,8.3325
10,3,0,0,1,10.274,10274,5.0000,1.1700,6.7400,8.4733,-0.8748,0.4069,-1.0527,-37.06,4.13,210.19,5.0798,-0.0522,6.6110,8.3374
10,3,0,0,1,10.395,10395,6.1200,2.9500,6.5700,9.4510,-0.9174,0.4363,-1.2675,-38.88,16.38,204.44,5.2169,0.3434,6.6056,8.4242
10,3,0,0,1,10.562,10562,5.2800,5.5700,5.6400,9.5243,-1.0854,0.2651,-1.1137,-36.44,34.88,195.69,5.2252,1.0322,6.4783,8.3867
10,3,0,0,1,10.683,10683,5.1000,7.0200,5.3700,10.2043,-1.0374,0.4036,-1.2359,-32.81,47.75,189.44,5.2087,1.8212,6.3323,8.3991
10,3,0,0,1,10.805,10805,4.9300,8.6100,4.5800,10.9276,-0.9359,0.3883,-1.2228,-27.75,58.81,181.94,5.1720,2.7158,6.1014,8.4470
10,3,0,0,1,10.925,10925,3.6600,9.2600,3.6400,10.6015,-0.6480,0.4167,-0.7341,-23.13,66.69,175.63,4.9727,3.5782,5.7770,8.4205
10,3,0,0,1,11.046,11046,3.3500,9.8000,2.7800,10.7234,-0.4374,0.7134,-0.4003,-20.81,72.31,170.31,4.7589,4.3980,5.3821,8.4236
10,3,0,0,1,11.172,11172,3.8400,9.2700,1.8100,10.1958,-0.2367,0.7036,-0.3611,-20.13,76.38,165.19,4.6378,5.0400,4.9114,8.4281
10,3,0,0,1,11.293,11293,3.3700,9.6400,1.4800,10.3188,-0.2913,0.3883,-0.9032,-16.94,79.81,158.75,4.4707,5.6462,4.4592,8.4706
10,3,0,0,1,11.416,11416,2.1200,9.8700,1.0700,10.1517,-0.2334,0.0654,-0.6065,-11.13,82.38,151.81,4.1610,6.2028,4.0126,8.4788
10,3,0,0,1,11.577,11577,1.6600,9.5700,0.5600,9.7290,-0.2727,0.0316,-0.1462,-8.81,84.81,149.38,3.8314,6.6465,3.5576,8.4565
10,3,0,0,1,11.698,11698,1.4200,10.1300,0.2400,10.2319,-0.2509,-0.1374,-0.2782,-7.56,86.69,148.75,3.5136,7.1055,3.1205,8.5189
10,3,0,0,1,11.819,11819,0.6500,9.9200,0.1700,9.9427,-0.1669,-0.1396,-0.2760,-5.44,88.13,147.94,3.1363,7.4764,2.7317,8.5554
10,3,0,0,1,11.940,11940,0.6400,10.0500,0.2600,10.0737,0.0185,0.0731,-0.0611,-4.31,88.56,149.94,2.8073,7.8155,2.4060,8.6460
10,3,0,0,1,12.061,12061,0.7500,9.6900,0.4600,9.7299,0.0382,0.2269,0.0273,-4.25,88.31,150.50,2.5362,8.0625,2.1495,8.7211
10,3,0,0,1,12.183,12183,0.8300,9.9000,0.1900,9.9365,0.0065,0.3305,0.2978,-5.44,88.38,151.19,2.3114,8.3047,1.8913,8.8254
10,3,0,0,1,12.304,12304,1.0800,9.8000,0.1000,9.8598,0.0731,0.3796,0.2869,-7.56,88.50,152.63,2.1491,8.5017,1.6553,8.9240
10,3,0,0,1,12.429,12429,1.2500,9.6700,0.1000,9.7510,0.0884,0.4429,0.3011,-9.31,88.50,152.31,2.0307,8.6557,1.4503,9.0082
10,3,0,0,1,12.590,12590,2.0200,9.6500,-0.0700,9.8594,-0.0164,0.3240,0.1974,-11.94,89.13,152.44,2.0292,8.7867,1.2500,9.1042
10,3,0,0,1,12.711,12711,1.9100,9.6700,-0.1000,9.8573,0.0196,0.0840,0.0535,-12.44,89.44,151.63,2.0135,8.9031,1.0721,9.1907
10,3,0,0,1,12.833,12833,2.2000,9.6700,0.0500,9.9172,0.0262,-0.0044,0.2629,-13.44,89.50,153.88,2.0381,9.0042,0.9374,9.2794
10,3,0,0,1,12.953,12953,2.4700,10.1100,0.2900,10.4114,0.2171,0.2062,0.5978,-15.94,88.88,156.88,2.0950,9.1499,0.8521,9.4253
10,3,0,0,1,13.075,13075,3.7900,10.1100,1.0000,10.8433,0.5225,0.6829,1.4737,-22.63,87.31,160.31,2.3184,9.2764,0.8716,9.6014
10,3,0,0,1,13.196,13196,7.1400,8.6200,0.8700,11.2268,1.0352,0.8454,2.7096,-37.19,84.75,167.88,2.9537,9.1899,0.8714,9.6922
10,3,0,0,1,13.321,13321,9.0100,5.1500,1.3300,10.4629,1.2752,0.3458,2.7827,-56.81,77.19,179.25,3.7518,8.6575,0.9318,9.4814
10,3,0,0,1,13.442,13442,8.7900,3.3500,1.1400,9.4756,0.8661,0.5389,2.1729,-73.75,61.56,189.31,4.4157,7.9581,0.9592,9.1515
10,3,0,0,1,13.604,13604,8.6800,-0.3200,-0.3500,8.6929,0.7996,1.1356,2.6736,-82.00,-88.25,204.06,4.9776,6.8673,0.7867,8.5180
10,3,0,0,1,13.725,13725,8.1600,-3.4900,-1.6600,9.0289,0.5640,1.4399,2.4991,-63.13,-111.75,219.50,5.3970,5.5025,0.4643,7.7214
10,3,0,0,1,13.847,13847,5.8800,-5.1300,-2.7500,8.2737,0.0676,1.2261,1.9330,-46.25,-116.56,238.13,5.4606,4.1014,0.0407,6.8295
10,3,0,0,1,13.973,13973,3.5900,-5.7900,-3.5900,7.7007,0.0840,1.0614,1.3668,-33.06,-118.19,256.88,5.2141,2.7980,-0.4377,5.9336
10,3,0,0,1,14.094,14094,3.3200,-6.3100,-4.9200,8.6628,0.3403,0.8356,1.0276,-22.50,-120.88,273.06,4.9645,1.5978,-1.0284,5.3157
10,3,0,0,1,14.215,14215,1.6700,-7.5500,-5.2100,9.3239,0.5171,0.7865,0.9610,-14.19,-124.38,286.31,4.5304,0.3923,-1.5794,4.8138
10,3,0,0,1,14.336,14336,1.2700,-7.8100,-5.5800,9.6822,0.3512,0.6730,0.4036,-7.75,-127.75,298.38,4.1008,-0.6885,-2.1066,4.6613
10,4,0,0,1,14.457,14457,1.1000,-6.1100,-6.8700,9.2595,0.1069,0.2476,0.1189,-4.88,-128.81,305.63,3.7053,-1.4030,-2.7343,4.8139
10,4,0,0,1,14.625,14625,0.5400,-6.4400,-7.0400,9.5565,0.3076,0.0622,0.2498,-3.00,-132.13,308.19,3.2882,-2.0667,-3.3016,5.0975
10,4,0,0,1,14.745,14745,-0.6700,-6.9700,-6.8800,9.8165,-0.0742,0.5061,0.4680,-0.19,-132.81,314.63,2.7666,-2.7128,-3.7732,5.4084
10,4,0,0,1,14.867,14867,-0.3700,-6.2500,-6.2600,8.8536,-0.1484,0.3687,0.2814,4.94,-132.00,326.69,2.3533,-3.1789,-4.1009,5.6975
10,4,0,0,1,14.988,14988,-1.1600,-5.9600,-6.1200,8.6210,0.0600,-0.2793,-0.1604,4.94,-131.63,327.44,1.8903,-3.5454,-4.3670,5.9341
10,4,0,0,1,15.109,15109,-0.2000,-6.5000,-5.8500,8.7471,-0.1058,-0.8454,-0.7112,0.63,-131.94,316.63,1.6149,-3.9348,-4.5624,6.2374
10,4,0,0,1,15.230,15230,1.7200,-6.0100,-6.3600,8.9179,-0.1080,-1.3832,-1.7377,-10.75,-131.13,291.69,1.6287,-4.2082,-4.7993,6.5875
10,4,0,0,1,15.352,15352,3.3600,-5.7900,-5.4700,8.6449,0.1516,-1.5937,-2.0344,-27.50,-131.63,258.75,1.8569,-4.4167,-4.8876,6.8443
10,4,0,0,1,15.478,15478,5.7500,-4.1900,-5.0900,8.7480,0.1702,-1.2174,-1.9668,-43.63,-134.25,231.44,2.3699,-4.3868,-4.9143,7.0008
10,4,0,0,1,15.640,15640,7.8800,-2.1600,-3.5400,8.9046,-0.0207,-0.8039,-2.1129,-62.81,-148.94,203.88,3.0960,-4.0934,-4.7332,6.9817
10,4,0,0,1,15.761,15761,9.0900,0.4100,-2.9200,9.5563,-0.5269,-1.1214,-1.7006,-73.19,-171.69,192.81,3.8858,-3.4999,-4.4943,6.8955
10,4,0,0,1,15.882,15882,9.2300,2.2500,-1.6800,9.6477,-0.4963,-1.1890,-1.7693,-78.25,138.88,186.69,4.5901,-2.7422,-4.1234,6.7521
10,4,0,0,1,16.004,16004,8.6900,3.8200,-0.2700,9.4964,-0.5672,-0.9130,-1.8293,-70.25,98.75,179.75,5.1303,-1.8775,-3.6156,6.5512
10,4,0,0,1,16.130,16130,8.7300,6.1700,0.1700,10.6916,-0.6796,-0.9272,-1.7104,-58.75,88.88,174.50,5.6047,-0.8170,-3.1168,6.4649
10,4,0,0,1,16.252,16252,7.1300,7.2400,0.7000,10.1855,-0.5541,-0.9545,-1.2992,-47.63,84.69,171.25,5.8057,0.2447,-2.6138,6.3716
10,4,0,0,1,16.372,16372,5.9400,8.7400,0.8700,10.6032,-0.3862,-0.6709,-1.0603,-39.06,83.38,169.00,5.8234,1.3641,-2.1548,6.3573
10,4,0,0,1,16.493,16493,5.2500,8.6500,1.1100,10.1792,-0.3305,-0.3240,-0.4167,-34.06,83.81,167.75,5.7478,2.3242,-1.7245,6.4353
10,4,0,0,1,16.655,16655,4.9100,8.8900,1.0400,10.2089,0.0284,-0.2269,-0.5792,-30.19,83.50,166.81,5.6374,3.1894,-1.3602,6.6184
10,4,0,0,1,16.776,16776,3.9600,8.5500,0.7600,9.4531,-0.0644,0.0415,-0.5421,-26.25,83.56,163.19,5.4164,3.8958,-1.0809,6.7589
10,4,0,0,1,16.899,16899,4.6400,9.5200,0.7400,10.6164,-0.1527,-0.1571,-0.7232,-22.19,84.38,159.69,5.3141,4.6369,-0.8409,7.1027
10,4,0,0,1,17.024,17024,4.7300,10.3900,1.2400,11.4831,-0.0589,-0.3229,-0.1265,-18.69,84.69,158.69,5.2371,5.3950,-0.5667,7.5402
10,4,0,0,1,17.145,17145,5.0300,10.0700,1.7000,11.3840,0.3196,-0.1702,1.4028,-23.81,82.56,165.69,5.2098,6.0111,-0.2680,7.9591
10,4,0,0,1,17.266,17266,7.0100,8.6800,1.9800,11.3315,0.5432,-0.1505,2.0628,-36.06,77.63,177.50,5.4470,6.3628,0.0282,8.3759
10,4,0,0,1,17.387,17387,8.0800,7.6500,2.4300,11.3892,0.7450,-0.6338,1.8991,-47.56,67.63,189.50,5.7940,6.5324,0.3447,8.7385
10,4,0,0,1,17.508,17508,8.7500,5.7100,3.5300,11.0285,0.6207,-1.1934,2.1053,-55.50,46.69,202.63,6.1835,6.4240,0.7645,8.9492
10,5,0,0,1,17.672,17672,7.3000,2.6800,4.6600,9.0658,0.5061,-2.1926,1.7213,-50.50,10.13,220.25,6.3306,5.9307,1.2778,8.7683
10,5,0,0,1,17.797,17797,3.5700,1.4800,5.6200,6.8205,0.7276,-1.5141,0.6796,-37.19,-2.94,226.94,5.9669,5.3442,1.8500,8.2211
10,5,0,0,1,17.918,17918,3.3400,-1.7300,6.8800,7.8411,0.7941,-0.7199,0.4003,-30.44,-10.00,227.56,5.6207,4.4120,2.5128,7.5744
10,5,0,0,1,18.039,18039,2.9900,-2.8700,7.6700,8.7181,0.1538,-0.4800,0.2945,-25.94,-14.13,229.25,5.2740,3.4524,3.1924,7.0658
10,5,0,0,1,18.160,18160,3.1200,-2.4600,7.9400,8.8786,0.1385,-0.0109,0.2182,-24.44,-14.94,230.19,4.9902,2.6733,3.8180,6.8283
10,5,0,0,1,18.281,18281,3.5800,-2.1900,8.0500,9.0783,0.0927,0.2138,0.2356,-24.81,-16.50,231.63,4.8044,2.0324,4.3757,6.8088
10,5,0,0,1,18.402,18402,4.0300,-3.1700,8.2400,9.7050,0.1669,0.0676,0.3262,-25.13,-18.94,232.44,4.7023,1.3469,4.8849,6.9129
10,5,0,0,1,18.523,18523,3.6600,-2.9000,8.2600,9.4886,-0.0851,-0.0535,0.0273,-24.69,-19.38,230.31,4.5650,0.7873,5.3296,7.0614
10,5,0,0,1,18.690,18690,4.0300,-2.8600,8.5800,9.9014,0.1789,-0.0513,0.0862,-23.81,-19.75,228.56,4.4945,0.3066,5.7580,7.3108
10,5,0,0,1,18.811,18811,4.0300,-2.9000,8.3700,9.7318,0.1942,0.0742,0.2694,-23.81,-21.13,226.94,4.4333,-0.1159,6.1022,7.5435
10,5,0,0,1,18.932,18932,3.9300,-3.5600,8.1500,9.7232,0.2553,0.0142,0.3731,-23.25,-23.56,228.44,4.3670,-0.5698,6.3720,7.7458
10,5,0,0,1,19.052,19052,2.9600,-4.2500,7.6300,9.2218,0.1844,-0.0829,0.2083,-22.25,-25.75,229.50,4.1816,-1.0547,6.5378,7.8320
10,5,0,0,1,19.173,19173,2.1600,-4.6300,7.3200,8.9266,-0.1538,-0.1865,-0.0284,-21.00,-26.06,229.19,3.9152,-1.5258,6.6409,7.8586
10,5,0,0,1,19.294,19294,1.7400,-3.6900,6.9500,8.0589,-0.6447,-0.0633,-0.6152,-20.31,-23.13,227.31,3.6285,-1.8110,6.6816,7.8160
10,5,0,0,1,19.433,19433,2.7100,-1.8300,7.1100,7.8259,-1.1246,0.4985,-1.2719,-24.44,-13.25,220.56,3.5075,-1.8135,6.7380,7.8098
10,5,0,0,1,19.554,19554,3.7200,0.5100,7.0900,8.0229,-1.0592,0.8945,-1.1312,-30.31,-1.75,214.44,3.5355,-1.5073,6.7844,7.7975
10,5,0,0,1,19.717,19717,5.8400,3.8400,5.8800,9.1338,-1.1846,1.4617,-1.4661,-39.44,17.00,205.31,3.8392,-0.8027,6.6652,7.7336
10,5,0,0,1,19.843,19843,6.9200,6.2200,4.8500,10.4927,-0.8978,1.2806,-1.7628,-42.63,36.06,195.25,4.2451,0.1227,6.4260,7.7026
10,5,0,0,1,19.965,19965,5.2800,7.0300,4.1400,9.7180,-0.7210,1.1377,-1.8097,-38.94,55.19,181.13,4.3815,1.0329,6.1248,7.6012
10,5,0,0,1,20.085,20085,5.2700,9.6400,2.5600,11.2808,-0.7178,1.2119,-1.1639,-34.00,68.81,169.44,4.4986,2.1671,5.6551,7.5441
10,5,0,0,1,20.206,20206,5.4900,10.4100,1.3100,11.8416,-0.2193,1.2468,-0.7014,-30.75,77.94,159.50,4.6292,3.2533,5.0825,7.6056
10,5,0,0,1,20.327,20327,5.5700,9.6600,1.1100,11.2059,0.1047,0.8770,-1.1956,-25.88,82.31,148.00,4.7532,4.0975,4.5590,7.7568
10,5,0,0,1,20.448,20448,4.0500,9.6800,1.0300,10.5435,0.0644,0.3447,-1.2915,-17.56,83.81,135.69,4.6605,4.8332,4.0940,7.8639
10,5,0,0,1,20.570,20570,3.3100,10.1400,0.9500,10.7088,0.0273,-0.1833,-0.4429,-11.63,83.81,129.19,4.4826,5.5325,3.6797,8.0151
10,5,0,0,1,20.732,20732,3.4400,10.4200,1.3200,11.0523,0.1309,-0.4352,0.3545,-13.88,82.69,134.38,4.3452,6.1765,3.3687,8.2691
10,5,0,0,1,20.857,20857,2.8400,10.8900,1.7400,11.3879,0.2596,0.0425,1.3221,-19.38,80.81,141.25,4.1468,6.7976,3.1541,8.5646
10,5,0,0,1,20.979,20979,5.0900,9.3800,1.6400,10.7973,0.4516,0.7821,2.1915,-33.31,78.69,151.06,4.2711,7.1379,2.9546,8.8274
10,5,0,0,1,21.099,21099,6.6900,7.1800,1.5100,9.9292,0.3862,0.7265,2.5744,-50.06,77.19,162.13,4.5899,7.1435,2.7642,8.9296
10,5,0,0,1,21.220,21220,9.3900,5.3000,1.1700,10.8458,0.1571,0.2182,2.4533,-67.38,74.19,176.13,5.2224,6.9006,2.5542,9.0230
10,6,0,0,1,21.341,21341,8.5900,3.1600,1.1500,9.2248,-0.0916,-0.6774,2.3824,-79.88,35.44,192.44,5.6662,6.4076,2.3691,8.8756
10,6,0,0,1,21.462,21462,7.9100,0.9700,1.9700,8.2091,0.1047,-0.8923,2.2133,-73.06,-33.81,207.50,5.9618,5.6911,2.3165,8.5615
10,6,0,0,1,21.583,21583,7.6000,-2.0100,2.8900,8.3757,0.2062,-0.7701,1.6941,-60.88,-49.25,218.13,6.1777,4.6763,2.3921,8.1089
10,6,0,0,1,21.750,21750,5.8100,-3.9100,3.8000,7.9677,-0.1963,-1.3461,0.9447,-45.31,-49.44,226.81,6.1293,3.5448,2.5776,7.5351
10,6,0,0,1,21.871,21871,4.5000,-4.6000,5.0100,8.1554,0.2029,-0.9807,0.5716,-35.94,-46.56,228.50,5.9146,2.4716,2.8981,7.0349
10,6,0,0,1,21.992,21992,3.4600,-5.7700,5.4700,8.6710,0.2738,-0.1822,0.4451,-30.81,-48.19,229.75,5.5911,1.3855,3.2371,6.6075
10,6,0,0,1,22.113,22113,3.5800,-6.5000,4.9100,8.8980,0.0796,0.2051,0.5203,-28.81,-50.88,232.88,5.3261,0.3464,3.4575,6.3594
10,6,0,0,1,22.234,22234,3.4400,-6.4100,4.8100,8.7211,-0.3774,0.0818,-0.4025,-27.63,-51.25,235.13,5.0776,-0.5439,3.6357,6.2687
10,6,0,0,1,22.355,22355,4.1900,-4.6900,4.9900,8.0282,-0.5847,0.2138,-1.2763,-32.94,-45.69,231.25,4.9606,-1.0903,3.8142,6.3517
10,6,0,0,1,22.477,22477,6.0500,-3.0900,5.4900,8.7345,-0.7025,0.1571,-1.5359,-40.38,-36.75,225.19,5.1042,-1.3538,4.0350,6.6458
10,6,0,0,1,22.603,22603,6.2500,-1.1800,5.9800,8.7301,-0.8214,-0.1636,-1.9591,-46.00,-21.88,215.88,5.2552,-1.3309,4.2913,6.9140
10,6,0,0,1,22.765,22765,6.6100,2.2900,5.7300,9.0426,-0.8727,0.2018,-1.8828,-49.06,6.00,201.00,5.4337,-0.8537,4.4809,7.0945
10,6,0,0,1,22.886,22886,6.7600,4.5100,5.5500,9.8407,-0.9752,-0.0916,-2.0060,-46.00,25.75,191.06,5.6085,-0.1469,4.6218,7.2689
10,6,0,0,1,23.010,23010,4.7500,6.5500,5.5000,9.7834,-1.0243,-0.1494,-1.8850,-37.44,42.06,180.50,5.4953,0.7356,4.7375,7.2927
10,6,0,0,1,23.131,23131,3.6000,8.5900,5.2300,10.6818,-1.1716,0.3316,-1.2697,-30.38,54.19,172.94,5.2456,1.7706,4.8024,7.3290
10,6,0,0,1,23.255,23255,3.1900,9.7700,3.6300,10.8998,-0.9687,0.7614,-1.2948,-24.19,66.38,163.44,4.9747,2.8247,4.6479,7.3709
10,6,0,0,1,23.376,23376,3.1200,10.1600,2.1600,10.8455,-0.4396,0.9403,-0.6970,-20.56,73.88,154.56,4.7303,3.7913,4.3201,7.4440
10,6,0,0,1,23.497,23497,2.2700,9.9300,1.7000,10.3270,-0.1156,0.5203,-0.9174,-16.69,77.69,146.19,4.4061,4.6002,3.9748,7.5083
10,6,0,0,1,23.618,23618,1.5500,10.3400,1.8500,10.6179,0.0022,0.2945,-1.1956,-10.00,78.75,136.88,4.0297,5.3566,3.6948,7.6540
10,6,0,0,1,23.780,23780,1.1800,10.3000,2.1000,10.5779,0.0185,0.1396,-0.1091,-4.31,79.06,129.31,3.6542,6.0080,3.4847,7.8481
10,6,0,0,1,23.901,23901,1.1900,10.9100,2.3700,11.2277,0.0589,0.3153,0.5160,-6.06,78.94,129.63,3.3295,6.6540,3.3378,8.1548
10,6,0,0,1,24.023,24023,1.4900,10.6300,2.6600,11.0586,0.2313,0.8192,1.4355,-13.19,78.13,133.13,3.0871,7.1779,3.2485,8.4620
10,6,0,0,1,24.148,24148,3.5300,10.0300,1.9500,10.8104,0.2465,1.4726,2.1533,-26.88,78.44,139.94,3.1455,7.5537,3.0774,8.7420
10,6,0,0,1,24.270,24270,6.2400,7.4400,0.8400,9.7466,0.0884,1.5512,2.6780,-46.19,82.88,149.13,3.5532,7.5387,2.7825,8.7864
10,7,0,0,1,24.390,24390,7.4200,4.9200,-0.6300,8.9252,-0.5181,1.5086,3.0401,-65.13,100.06,163.94,4.0628,7.1937,2.3328,8.5847
10,7,0,0,1,24.511,24511,8.3300,1.0700,-2.4700,8.7541,-0.7570,1.4933,3.2659,-74.75,169.63,187.56,4.6251,6.3867,1.7000,8.0667
10,7,0,0,1,24.632,24632,7.3000,-1.8400,-3.1500,8.1608,-1.0527,1.1159,3.0641,-59.81,-139.13,218.81,4.9776,5.3026,1.0609,7.3498
10,7,0,0,1,24.795,24795,5.4800,-5.2700,-3.5500,8.3908,-0.5541,0.3502,2.7598,-35.88,-119.63,259.00,5.0438,3.9094,0.4533,6.3976
10,7,0,0,1,24.921,24921,3.8900,-7.3500,-3.1100,8.8784,-0.3971,0.2149,1.9111,-20.69,-113.56,279.44,4.8917,2.4257,-0.0163,5.4602
10,7,0,0,1,25.042,25042,1.7200,-7.5700,-3.0900,8.3553,-0.0665,0.2705,0.9098,-11.19,-110.75,292.31,4.4738,1.1086,-0.4213,4.6283
10,7,0,0,1,25.163,25163,0.8500,-7.5300,-3.5900,8.3852,0.4385,0.3982,0.6643,-5.56,-112.00,300.50,3.9963,-0.0298,-0.8389,4.0835
10,7,0,0,1,25.284,25284,1.0800,-8.4800,-4.2300,9.5378,0.3098,0.0284,-0.0458,-2.81,-114.81,305.94,3.6120,-1.1433,-1.2857,4.0008
10,7,0,0,1,25.405,25405,1.1400,-8.2500,-4.2500,9.3501,-0.0807,-0.3523,-0.3469,-5.06,-115.19,303.44,3.2862,-2.0798,-1.6764,4.2350
10,7,0,0,1,25.526,25526,1.6100,-8.2600,-4.5500,9.5667,-0.0731,-0.3589,-0.1407,-7.88,-115.00,298.50,3.0653,-2.8942,-2.0550,4.6900
10,7,0,0,1,25.647,25647,1.9900,-8.6700,-4.0700,9.7823,-0.4014,-0.4145,-0.1047,-9.69,-113.50,295.38,2.9236,-3.6553,-2.3205,5.2243
10,7,0,0,1,25.814,25814,1.5200,-7.0200,-2.2000,7.5120,-0.5007,-0.7341,-0.8083,-14.69,-107.63,287.13,2.7387,-4.0987,-2.3047,5.4416
10,7,0,0,1,25.935,25935,3.8400,-6.6300,-1.8000,7.8704,-0.4080,-1.2512,-2.1664,-25.63,-103.63,271.50,2.8838,-4.4322,-2.2382,5.7420
10,7,0,0,1,26.055,26055,6.0400,-5.2300,-0.9700,8.0483,-0.5094,-1.4235,-3.2987,-47.75,-95.63,243.94,3.2997,-4.5374,-2.0710,5.9804
10,7,0,0,1,26.176,26176,8.4400,-1.6900,0.7800,8.6428,-0.3971,-1.3374,-3.5376,-70.19,-73.13,218.69,3.9771,-4.1622,-1.6954,6.0012
10,7,0,0,1,26.297,26297,8.6800,1.8900,2.7200,9.2905,-0.5323,-1.1683,-3.1809,-75.19,14.75,197.69,4.5968,-3.3646,-1.1135,5.8044
10,7,0,0,1,26.418,26418,7.3600,6.0900,3.5100,10.1773,-0.9239,-0.9632,-2.4925,-58.81,49.25,183.75,4.9609,-2.1188,-0.5043,5.4179
10,7,0,0,1,26.540,26540,5.3900,8.4900,3.7300,10.7259,-1.0657,-0.4461,-1.8511,-44.31,61.13,174.94,5.0175,-0.7208,0.0537,5.0693
10,7,0,0,1,26.666,26666,4.6300,9.1300,2.9900,10.6646,-0.7450,0.1691,-1.3930,-34.81,70.50,167.94,4.9664,0.5773,0.4406,5.0192
10,7,0,0,1,26.828,26828,3.0800,9.9700,2.6400,10.7637,-0.0785,-0.0469,-2.0300,-19.81,76.81,152.19,4.7178,1.8150,0.7305,5.1074
10,7,0,0,1,26.949,26949,0.7800,10.4000,2.1900,10.6567,-0.2094,-0.4080,-1.5817,-6.75,78.00,141.00,4.1989,2.9463,0.9228,5.2118
10,7,0,0,1,27.071,27071,1.1500,11.0700,2.0700,11.3204,-0.1560,-0.5454,-0.3927,-0.06,79.38,137.44,3.7971,4.0168,1.0740,5.6308
10,7,0,0,1,27.191,27191,0.7300,11.7900,2.3400,12.0421,0.1516,-0.5443,0.4909,0.00,79.38,141.19,3.3930,5.0411,1.2408,6.2020
10,7,0,0,1,27.312,27312,0.8700,11.3400,2.5200,11.6492,0.8170,-0.3927,2.1675,-8.63,75.56,152.88,3.0605,5.8711,1.4094,6.7693
10,7,0,0,1,27.450,27450,2.8800,10.1200,3.4200,11.0637,0.9970,-0.4756,2.6660,-26.25,64.75,173.25,3.0367,6.4310,1.6743,7.3064
10,7,0,0,1,27.571,27571,4.9500,7.5500,4.3300,10.0127,0.9490,-0.7352,3.4448,-40.94,48.69,192.75,3.2888,6.5785,2.0243,7.6283
10,7,0,0,1,27.692,27692,7.1500,5.1200,5.1500,10.1911,1.1563,-1.1966,3.3881,-48.69,17.75,215.06,3.7976,6.3863,2.4362,7.8193
10,8,0,0,1,27.854,27854,4.7900,0.1700,6.4000,7.9958,1.3166,-1.6570,2.0169,-35.19,-16.00,232.75,3.9284,5.5671,2.9585,7.4282
10,8,0,0,1,27.981,27981,2.5800,-2.3400,6.6800,7.5336,1.4181,-0.6370,2.1042,-22.69,-30.06,243.00,3.7507,4.5252,3.4489,6.8147
10,8,0,0,1,28.102,28102,1.9500,-5.4400,5.9900,8.3232,1.3352,0.1418,1.5272,-14.25,-43.75,253.81,3.5134,3.2120,3.7837,6.0810
10,8,0,0,1,28.223,28223,1.2900,-7.3600,5.9800,9.5705,0.6916,-0.0098,1.3461,-7.38,-52.00,262.88,3.2204,1.8189,4.0732,5.5018
10,8,0,0,1,28.344,28344,-0.0200,-6.8500,5.1500,8.5700,0.3927,-0.1276,1.0210,-0.88,-55.38,270.25,2.7934,0.6766,4.2151,5.1017
10,8,0,0,1,28.465,28465,-1.4100,-7.2200,4.7900,8.7784,0.2214,-0.0938,0.4767,4.00,-57.56,275.00,2.2395,-0.3640,4.2908,4.8538
10,8,0,0,1,28.587,28587,-0.9800,-8.0000,4.8800,9.4220,-0.1713,0.2836,-0.6370,3.50,-57.81,275.00,1.8153,-1.3702,4.3685,4.9251
10,8,0,0,1,28.713,28713,1.3000,-7.6900,5.3100,9.4352,-1.1410,0.1014,-1.7726,-4.88,-53.06,267.19,1.7474,-2.2030,4.4925,5.2999
10,8,0,0,1,28.875,28875,1.9400,-3.5600,6.8200,7.9341,-1.4563,-0.3458,-2.4031,-16.88,-35.81,248.19,1.7728,-2.3818,4.7992,5.6434
10,8,0,0,1,28.996,28996,2.3300,-1.5700,7.4800,7.9903,-1.2337,0.5203,-2.3398,-25.44,-21.63,233.69,1.8462,-2.2749,5.1525,5.9272
10,8,0,0,1,29.118,29118,4.9600,1.3400,7.0600,8.7316,-1.1345,1.2130,-1.8959,-35.00,-7.13,223.19,2.2565,-1.7985,5.4038,6.1260
10,8,0,0,1,29.239,29239,5.9600,4.4800,6.1500,9.6651,-0.9992,1.3199,-2.3998,-43.00,12.69,210.56,2.7445,-0.9712,5.5022,6.2249
10,8,0,0,1,29.362,29362,4.9800,6.3200,4.8600,9.4001,-0.7069,1.3472,-1.0647,-46.31,32.69,199.19,3.0391,-0.0104,5.4175,6.2118
10,8,0,0,1,29.487,29487,7.3300,6.0900,3.8800,10.2894,-0.4756,1.5533,1.0036,-55.69,42.88,200.00,3.6045,0.7935,5.2149,6.3889
10,8,0,0,1,29.607,29607,10.0600,6.3200,1.1400,11.9351,-0.1004,1.8871,-0.4745,-65.50,58.19,201.25,4.4552,1.5218,4.6780,6.6369
10,8,0,0,1,29.728,29728,9.7700,7.6000,-0.0200,12.3779,0.7559,1.5326,-1.9220,-60.19,83.31,185.63,5.1556,2.3227,4.0589,6.9606
10,8,0,0,1,29.890,29890,7.8200,7.6800,0.6900,10.9823,0.7483,0.1887,-1.4410,-44.75,87.63,159.44,5.5067,3.0287,3.6150,7.2501
10,8,0,0,1,30.011,30011,6.0600,7.7700,1.0300,9.9074,0.2345,-0.5476,-1.2926,-35.50,83.56,149.63,5.5796,3.6535,3.2743,7.4297
10,8,0,0,1,30.134,30134,5.3400,8.8200,0.9600,10.3552,-0.2945,-0.5389,-0.4003,-28.88,82.13,146.75,5.5480,4.3343,2.9694,7.6409
10,8,0,0,1,30.255,30255,5.5600,10.0700,1.2400,11.5696,-0.0207,-0.2073,0.9272,-30.25,82.00,151.00,5.5496,5.0901,2.7415,8.0139
10,8,0,0,1,30.379,30379,6.4100,9.1400,1.6800,11.2894,0.3556,0.3120,2.5144,-43.88,79.31,163.38,5.6630,5.6238,2.6016,8.3943
10,8,0,0,1,30.500,30500,8.0600,6.3900,1.7400,10.4318,0.3360,0.6469,3.0718,-63.31,75.69,178.94,5.9788,5.7247,2.4881,8.6435
10,8,0,0,1,30.621,30621,8.4800,2.8600,0.6400,8.9722,0.0153,1.0952,3.3739,-85.88,3.94,198.63,6.3084,5.3472,2.2445,8.5690
10,8,0,0,1,30.742,30742,8.6600,-0.8100,-1.1500,8.7735,-0.0884,1.5959,3.3270,-69.63,-113.81,223.00,6.6183,4.5359,1.7972,8.2223
10,8,0,0,1,30.904,30904,6.1700,-5.2200,-2.1500,8.3630,-0.3589,1.1225,2.8143,-39.75,-112.88,260.88,6.5592,3.2503,1.2771,7.4309
10,8,0,0,1,31.028,31028,4.3500,-6.6600,-2.5100,8.3414,-0.5858,0.5880,2.3813,-21.50,-108.75,286.94,6.2681,1.9444,0.7780,6.6087
10,8,0,0,1,31.150,31150,2.2200,-7.4300,-2.7000,8.2112,-0.1854,0.0262,0.9894,-10.31,-105.81,301.31,5.7347,0.7091,0.3197,5.7872
10,8,0,0,1,31.272,31272,1.4400,-8.1700,-2.5100,8.6673,-0.1167,0.0131,0.6196,-5.81,-105.06,305.94,5.1687,-0.4610,-0.0532,5.1895
10,8,0,0,1,31.393,31393,-0.1800,-8.5100,-2.1300,8.7744,-0.0153,0.2236,0.8508,-0.75,-104.50,312.13,4.4639,-1.5216,-0.3268,4.7274
10,8,0,0,1,31.514,31514,0.8500,-8.1600,-3.3100,8.8467,0.0545,0.0796,0.3065,3.38,-104.81,317.75,3.9877,-2.3964,-0.7199,4.7077
10,9,0,0,1,31.635,31635,-0.5800,-9.2600,-2.7100,9.6658,0.0393,0.0774,0.3502,4.94,-105.69,319.81,3.3858,-3.3008,-0.9822,4.8295
10,9,0,0,1,31.756,31756,-0.3700,-8.6000,-2.4500,8.9498,-0.2094,0.0142,0.0589,6.50,-104.94,321.88,2.8909,-3.9991,-1.1756,5.0727
10,9,0,0,1,31.924,31924,0.2700,-8.5800,-2.1200,8.8422,-0.1364,-0.4331,-0.8432,3.19,-103.88,316.63,2.5455,-4.6028,-1.3000,5.4181
10,9,0,0,1,32.045,32045,1.3600,-8.6000,-1.9600,8.9248,-0.1756,-0.9087,-1.3395,-6.19,-102.75,302.19,2.3893,-5.1295,-1.3870,5.8262
10,9,0,0,1,32.166,32166,2.5300,-7.8500,-1.5000,8.3829,-0.2498,-1.0428,-1.7191,-17.50,-100.50,284.44,2.4078,-5.4880,-1.4019,6.1548
10,9,0,0,1,32.287,32287,5.0700,-6.8100,-1.1000,8.5610,-0.2443,-1.0243,-2.3409,-31.88,-96.56,264.38,2.7586,-5.6622,-1.3621,6.4441
10,9,0,0,1,32.408,32408,7.2600,-5.2200,-0.0300,8.9419,-0.4091,-1.1268,-2.5962,-49.19,-89.44,243.19,3.3518,-5.6039,-1.1866,6.6368
10,9,0,0,1,32.529,32529,8.2700,-2.7300,1.6600,8.8657,-0.9087,-1.4006,-2.8045,-65.06,-66.00,224.88,3.9999,-5.2252,-0.8115,6.6303
10,9,0,0,1,32.650,32650,7.3000,1.7300,2.8300,8.0182,-1.0439,-0.9043,-2.9202,-70.69,-5.63,209.06,4.4348,-4.3087,-0.3316,6.1921
10,9,0,0,1,32.772,32772,7.7600,4.9700,3.4700,9.8468,-0.9141,-0.4222,-2.2362,-62.19,35.81,197.06,4.8729,-3.0860,0.1693,5.7704
10,9,0,0,1,32.938,32938,5.8400,7.5000,3.9700,10.3013,-0.9305,-0.2160,-2.0257,-44.63,59.94,182.69,5.0004,-1.6910,0.6702,5.3210
10,9,0,0,1,33.059,33059,4.2600,9.6700,2.8800,10.9522,-0.6632,0.3076,-0.8825,-36.31,69.19,175.88,4.9028,-0.1939,0.9614,4.9999
10,9,0,0,1,33.181,33181,5.0500,9.1300,2.2000,10.6630,-0.2073,0.6861,-0.4931,-34.00,75.06,170.94,4.9222,1.0347,1.1246,5.1540
10,9,0,0,1,33.302,33302,4.5600,9.8300,1.5300,10.9436,0.0633,0.5411,-1.0930,-29.69,78.88,162.88,4.8745,2.1937,1.1780,5.4736
10,9,0,0,1,33.423,33423,3.9000,9.5000,1.5700,10.3887,0.2967,0.3043,-1.4584,-21.50,79.38,151.38,4.7461,3.1565,1.2297,5.8310
10,9,0,0,1,33.549,33549,3.1900,9.9500,1.8500,10.6114,-0.0109,-0.1505,-0.9163,-13.13,79.06,142.31,4.5410,4.0517,1.3114,6.2255
10,9,0,0,1,33.671,33671,2.8700,11.3100,2.1700,11.8685,-0.0338,-0.3556,0.8083,-12.63,79.31,143.88,4.3208,5.0082,1.4245,6.7661
10,9,0,0,1,33.791,33791,3.4600,11.2100,2.6200,12.0208,0.6109,-0.5705,2.2297,-22.69,75.63,157.19,4.2074,5.8254,1.5821,7.3580
10,9,0,0,1,33.953,33953,4.2500,8.9600,3.7600,10.6057,1.4432,-0.8868,2.1904,-38.81,57.38,177.38,4.2130,6.2385,1.8691,7.7564
10,9,0,0,1,34.074,34074,5.0200,6.0300,5.1800,9.4018,1.3864,-0.8999,2.2329,-45.25,34.31,190.00,4.3193,6.2110,2.3054,7.9087
10,9,0,0,1,34.202,34202,5.9900,3.5900,6.0700,9.2527,1.4846,-0.7189,1.7126,-45.56,10.63,199.81,4.5395,5.8656,2.8015,7.9285
10,9,0,0,1,34.323,34323,4.2500,0.3600,6.8200,8.0439,1.3614,-0.4800,1.3614,-40.69,-10.63,206.94,4.5013,5.1401,3.3310,7.6012
10,9,0,0,1,34.443,34443,5.0700,-1.6100,7.0700,8.8477,1.0167,-0.1833,0.9959,-36.94,-23.56,211.00,4.5763,4.2506,3.8237,7.3233
10,9,0,0,1,34.564,34564,4.7000,-2.8800,6.7900,8.7458,0.6589,-0.0633,1.1661,-32.88,-32.81,215.88,4.5926,3.3110,4.2146,7.0581
10,9,0,0,1,34.685,34685,4.0200,-4.3000,6.0700,8.4555,0.7101,0.0458,0.9905,-28.75,-40.31,221.75,4.5171,2.3081,4.4591,6.7539
10,9,0,0,1,34.806,34806,3.8100,-5.5300,6.3300,9.2285,0.4058,-0.0687,0.8574,-24.44,-46.69,226.81,4.4239,1.2752,4.7056,6.5833
10,9,0,0,1,34.968,34968,3.1800,-5.9900,6.1200,9.1349,0.1702,-0.4287,0.8858,-17.44,-49.75,232.81,4.2600,0.3178,4.8920,6.4947
10,9,0,0,1,35.094,35094,1.4800,-6.2000,6.2700,8.9411,0.1876,-0.1669,0.6490,-12.06,-51.38,236.75,3.8937,-0.5411,5.0736,6.4183
10,9,0,0,1,35.216,35216,1.1900,-6.5400,5.8000,8.8220,0.3043,0.1898,0.3665,-9.50,-53.75,240.38,3.5374,-1.3316,5.1693,6.4038
10,9,0,0,1,35.336,35336,1.2800,-7.3100,5.4500,9.2074,-0.0633,0.2443,0.0513,-9.69,-55.00,240.50,3.2399,-2.1194,5.2063,6.4880
10,9,0,0,1,35.457,35457,1.3200,-6.9200,5.4300,8.8946,-0.2760,0.1887,-0.0774,-10.13,-53.94,241.69,2.9869,-2.7520,5.2358,6.6263
10,9,0,0,1,35.578,35578,1.5900,-6.2600,5.6600,8.5879,-0.4538,0.4527,-0.5531,-13.13,-50.94,240.69,2.8029,-3.2142,5.2917,6.7963
10,9,0,0,1,35.699,35699,2.6100,-5.5000,5.5200,8.2178,-0.5531,0.7232,-0.6556,-18.56,-47.81,237.38,2.7774,-3.5154,5.3218,6.9566
10,9,0,0,1,35.820,35820,5.0600,-3.9900,5.8500,8.7032,-0.9272,0.7014,-1.4530,-26.88,-42.38,232.00,3.0782,-3.5780,5.3914,7.1655
10,9,0,0,1,35.986,35986,5.1000,-0.7500,6.5700,8.3509,-1.2915,-0.0731,-2.5242,-40.06,-21.06,214.44,3.3446,-3.2053,5.5467,7.2268
10,10,0,0,1,36.108,36108,4.6600,2.1700,6.4900,8.2792,-1.5926,0.4418,-1.5457,-43.19,1.75,204.25,3.5180,-2.4970,5.6710,7.1254
10,10,0,0,1,36.229,36229,5.5500,6.3800,5.0000,9.8238,-1.5795,1.4290,-2.3257,-46.38,26.00,195.75,3.7857,-1.3272,5.5826,6.8745
10,10,0,0,1,36.350,36350,6.3500,8.9300,2.9600,11.3503,-1.3384,1.8086,-1.8893,-45.31,55.75,181.75,4.1236,0.0244,5.2370,6.6657
10,10,0,0,1,36.471,36471,5.9800,9.3500,1.6000,11.2135,-0.6316,1.4519,-0.8890,-41.88,75.19,171.13,4.3683,1.2533,4.7577,6.5794
10,10,0,0,1,36.592,36592,5.9600,9.8000,0.8200,11.4993,-0.0578,1.1999,-0.7199,-38.56,85.06,161.56,4.5780,2.3795,4.2388,6.6774
10,10,0,0,1,36.730,36730,5.7900,9.8700,0.0600,11.4431,0.2171,0.9436,-0.9905,-31.94,90.38,147.38,4.7377,3.3666,3.6882,6.8835
10,10,0,0,1,36.851,36851,4.6700,9.3900,-0.3000,10.4915,0.2836,0.5018,-0.4560,-26.75,91.25,137.19,4.7288,4.1603,3.1626,7.0478
10,10,0,0,1,37.013,37013,5.5900,9.6200,-0.4100,11.1338,0.0011,0.0033,-0.0098,-25.13,90.25,133.06,4.8423,4.8798,2.6918,7.3828
10,10,0,0,1,37.134,37134,5.2000,9.7300,-0.4700,11.0424,-0.3894,-0.0305,1.3799,-29.44,91.56,138.44,4.8894,5.5189,2.2752,7.7163
10,10,0,0,1,37.257,37257,6.4700,8.9700,-0.8400,11.0918,-0.3643,0.3338,3.0456,-45.00,96.19,154.88,5.0977,5.9737,1.8647,8.0715
10,10,0,0,1,37.378,37378,8.8300,6.0900,-0.7100,10.7499,-0.3240,0.1178,3.7328,-67.31,108.00,178.63,5.5895,5.9890,1.5254,8.3329
10,10,0,0,1,37.503,37503,8.9900,1.9100,-1.1100,9.2574,-0.5051,0.1931,3.9739,-79.81,-139.75,210.13,6.0376,5.4515,1.1781,8.2195
10,10,0,0,1,37.623,37623,8.3500,-1.9800,-1.6700,8.7425,-0.0905,0.8672,3.3794,-56.19,-109.75,239.19,6.3423,4.4722,0.8028,7.8019
10,10,0,0,1,37.744,37744,6.7500,-5.3300,-2.2200,8.8826,0.0076,0.9545,2.2220,-36.69,-109.75,262.94,6.3961,3.1805,0.4045,7.1546
10,10,0,0,1,37.865,37865,4.8300,-6.5700,-2.5400,8.5408,-0.4800,0.3796,1.3930,-24.44,-108.19,280.50,6.1897,1.8957,0.0165,6.4735
10,10,0,0,1,38.027,38027,3.4000,-7.4100,-2.8200,8.6267,0.1309,-0.0022,1.1999,-13.00,-105.19,294.56,5.8221,0.6694,-0.3573,5.8713
10,10,0,0,1,38.149,38149,0.9700,-8.6900,-2.7200,9.1573,0.2051,0.0633,0.8847,-6.81,-106.56,300.44,5.1827,-0.5639,-0.6686,5.2560
10,10,0,0,1,38.270,38270,0.4100,-8.4300,-3.0300,8.9674,-0.1854,0.4516,1.0821,0.00,-106.50,310.63,4.5538,-1.6005,-0.9798,4.9253
10,10,0,0,1,38.395,38395,-1.0400,-8.6200,-2.7900,9.1198,-0.1342,0.2902,1.0167,7.50,-105.31,322.63,3.8167,-2.5255,-1.2183,4.7360
10,10,0,0,1,38.517,38517,-1.5800,-7.9000,-1.8400,8.2639,-0.3872,0.0927,0.2727,12.69,-103.25,329.69,3.1055,-3.2337,-1.3003,4.6682
10,10,0,0,1,38.637,38637,-1.0300,-7.6300,-2.3200,8.0412,-0.0153,-0.3796,-0.7505,10.19,-102.19,326.31,2.5606,-3.8130,-1.4346,4.8118
10,10,0,0,1,38.759,38759,1.2000,-9.3900,-1.9600,9.6671,-0.2574,-0.7690,-2.1642,-0.13,-102.31,311.81,2.3813,-4.5479,-1.5039,5.3494
10,10,0,0,1,38.880,38880,3.8700,-8.1700,-1.8100,9.2196,-0.6512,-1.5904,-2.9398,-19.25,-97.69,285.19,2.5775,-5.0252,-1.5442,5.8550
10,10,0,0,1,39.047,39047,6.5700,-5.2300,0.4700,8.4106,-0.4036,-1.4497,-2.9485,-45.50,-84.13,249.00,3.1036,-5.0522,-1.2788,6.0657
10,10,0,0,1,39.169,39169,8.0100,-2.5700,2.3100,8.7236,-0.3709,-0.8094,-2.6878,-63.38,-62.38,226.19,3.7501,-4.7251,-0.8059,6.0860
10,10,0,0,1,39.290,39290,8.4400,0.6600,3.2600,9.0718,-0.4647,-0.5552,-2.1086,-71.69,-23.56,211.50,4.3681,-4.0155,-0.2701,5.9395
10,10,0,0,1,39.410,39410,7.8200,3.0100,3.5300,9.0925,-0.5443,-0.1276,-1.8261,-69.56,18.63,200.75,4.8230,-3.0897,0.2307,5.7324
10,10,0,0,1,39.531,39531,8.0200,4.2900,3.0400,9.5899,-0.6556,0.6043,-0.3098,-67.13,41.94,195.56,5.2443,-2.1173,0.6009,5.6874
10,10,0,0,1,39.652,39652,9.5000,4.6600,2.2100,10.8097,-0.3272,0.7025,-0.3153,-69.63,55.69,196.56,5.8051,-1.2242,0.8129,5.9882
10,10,0,0,1,39.773,39773,8.8000,5.4200,1.4900,10.4421,0.0447,0.3774,-1.3068,-65.63,71.19,190.13,6.1997,-0.3487,0.9021,6.2747
10,10,0,0,1,39.894,39894,7.3900,6.3500,1.4000,9.8435,0.1571,0.0633,-1.0745,-57.94,76.94,180.63,6.3566,0.5341,0.9677,6.4520
10,10,0,0,1,40.061,40061,6.4000,7.2600,1.2900,9.7638,-0.0338,-0.0055,-1.0570,-48.81,78.94,170.75,6.3623,1.4204,1.0102,6.5967
10,10,0,0,1,40.182,40182,5.9000,8.7200,1.0500,10.5807,0.0524,-0.1254,-1.6210,-39.81,80.19,162.06,6.3014,2.3823,1.0154,6.8128
10,10,0,0,1,40.302,40302,4.3200,9.3300,1.5200,10.3933,0.2105,-0.1505,-1.3123,-29.44,79.75,152.00,6.0403,3.2978,1.0819,6.9664
10,10,0,0,1,40.423,40423,3.4000,9.3000,2.0100,10.1040,0.2509,-0.1167,-0.5312,-23.63,78.19,146.31,5.6924,4.0887,1.2042,7.1113
10,10,0,0,1,40.544,40544,2.9700,9.0800,2.0900,9.7793,0.0633,-0.0240,-0.1265,-21.13,77.06,144.00,5.3336,4.7465,1.3209,7.2609
10,10,0,0,1,40.665,40665,2.9200,9.1800,1.9200,9.8227,-0.1004,0.1004,0.0425,-20.31,77.44,144.13,5.0156,5.3307,1.3999,7.4520
10,10,0,0,1,40.786,40786,3.3500,9.5300,1.6800,10.2404,-0.0840,0.1473,0.2694,-20.88,78.56,146.69,4.7961,5.8841,1.4368,7.7259
10,10,0,0,1,40.907,40907,4.1500,9.4700,1.7800,10.4915,0.0502,0.2007,0.8814,-24.63,78.94,150.94,4.7110,6.3566,1.4820,8.0496
10,10,0,0,1,41.074,41074,6.1800,8.6500,1.8500,10.7906,0.1254,0.5923,1.6864,-37.13,78.81,161.13,4.9045,6.6588,1.5305,8.4105
10,10,0,0,1,41.195,41195,7.7200,7.4400,1.3200,10.8025,0.2334,0.8672,2.1184,-51.69,80.38,170.88,5.2755,6.7617,1.5028,8.7069
10,10,0,0,1,41.317,41317,8.8500,4.8800,0.8900,10.1454,0.3436,0.7898,2.5744,-67.63,84.38,181.81,5.7466,6.5138,1.4220,8.8020
10,10,0,0,1,41.437,41437,8.9300,1.0900,0.4800,9.0091,-0.1985,0.7778,3.2409,-86.63,177.69,200.00,6.1661,5.7991,1.2979,8.5635
10,10,0,0,1,41.558,41558,9.0300,-1.1700,-1.3800,9.2095,-0.3447,1.0548,2.8951,-69.56,-114.19,224.56,6.5435,4.8807,0.9450,8.2177
10,10,0,0,1,41.679,41679,7.2900,-4.2800,-2.0100,8.6892,-0.0589,0.9654,2.4402,-50.81,-112.00,247.19,6.6418,3.6736,0.5556,7.6104
10,10,0,0,1,41.800,41800,5.9200,-6.1400,-2.7500,8.9615,-0.1909,1.0319,2.2166,-33.94,-111.44,269.75,6.5467,2.3804,0.1200,6.9671
10,10,0,0,1,41.927,41927,3.4300,-7.2400,-3.3400,8.6798,-0.1756,1.0374,1.9242,-18.56,-110.81,293.00,6.1360,1.1127,-0.3359,6.2451
10,10,0,0,1,42.089,42089,0.4600,-8.0800,-3.1400,8.6809,0.0360,0.5814,1.4923,-1.00,-110.81,320.38,5.3881,-0.0987,-0.7054,5.4349
