participant,rep,equipment_code,exercise_code,quality_code,timestamp,timestamp_ms,accelX,accelY,accelZ,accelMag,gyroX,gyroY,gyroZ,roll,pitch,yaw,filteredX,filteredY,filteredZ,filteredMag
11,1,0,0,1,00.000,0,-4.7200,8.5800,1.3500,9.8852,-0.2651,0.9010,0.0185,31.44,78.25,326.13,-4.5742,8.4800,1.4170,9.7386
11,1,0,0,1,00.121,121,-4.0900,8.2200,1.9300,9.3820,-0.0491,0.5454,0.4331,27.75,76.56,324.75,-4.5104,8.4457,1.4846,9.6891
11,1,0,0,1,00.242,242,-4.9000,8.8300,1.8700,10.2701,-0.1527,-0.0545,0.0131,26.25,77.00,324.38,-4.5617,8.4963,1.5354,9.7650
11,1,0,0,1,00.364,364,-5.8000,8.4400,2.5100,10.5439,0.2367,-0.3785,-0.3752,27.81,77.25,324.56,-4.7249,8.4889,1.6638,9.8567
11,1,0,0,1,00.486,486,-6.9500,7.9500,2.5000,10.8515,0.3011,-0.1342,-1.3712,34.75,75.13,320.25,-5.0181,8.4179,1.7740,9.9594
11,1,0,0,1,00.651,651,-6.7000,6.3900,2.5300,9.5981,0.0796,0.5454,-1.3243,47.19,66.81,305.94,-5.2398,8.1507,1.8736,9.8691
11,1,0,0,1,00.772,772,-8.3500,5.2700,2.7100,10.2391,0.3436,-0.0262,-2.6987,56.19,56.56,293.88,-5.6496,7.7711,1.9838,9.8104
11,1,0,0,1,00.893,893,-9.2000,3.6100,3.0800,10.3517,0.4603,0.3480,-0.6174,62.81,42.88,286.50,-6.1175,7.2228,2.1283,9.7016
11,1,0,0,1,01.014,1014,-9.3400,1.0800,3.1900,9.9287,0.6076,0.3578,-2.0780,66.44,12.81,276.56,-6.5421,6.4133,2.2682,9.4379
11,1,0,0,1,01.136,1136,-9.0200,0.0900,4.4900,10.0761,0.0491,0.8890,0.1134,62.31,-2.88,271.94,-6.8686,5.5800,2.5610,9.2127
11,1,0,0,1,01.262,1262,-12.6500,-1.7900,4.9200,13.6906,0.0098,0.5825,-1.2817,55.63,-19.81,262.31,-7.6305,4.6089,2.8718,9.3655
11,1,0,0,1,01.384,1384,-8.0100,-1.9800,5.4600,9.8940,0.4734,0.2520,-2.0911,50.44,-24.81,261.13,-7.6805,3.7406,3.2129,9.1271
11,1,0,0,1,01.504,1504,-10.5100,-2.8100,6.2600,12.5516,0.4014,0.0524,-0.7178,48.00,-31.13,257.75,-8.0533,2.8774,3.6144,9.2844
11,1,0,0,1,01.666,1666,-9.1800,-4.0900,5.6200,11.5146,-0.3436,0.2978,1.4246,38.44,-41.56,248.75,-8.2018,1.9593,3.8787,9.2818
11,1,0,0,1,01.788,1788,-5.7300,-6.0800,5.7300,10.1308,0.6807,-0.0764,-2.5885,35.88,-44.50,248.44,-7.8761,0.8999,4.1227,8.9353
11,1,0,0,1,01.914,1914,-4.3400,-5.6700,4.8800,8.6486,0.3862,0.2193,-1.2261,28.50,-51.50,239.56,-7.4101,0.0342,4.2225,8.5288
11,1,0,0,1,02.035,2035,-0.5500,-6.1100,4.3500,7.5204,0.2727,-0.0065,-1.3548,19.94,-56.00,231.00,-6.5061,-0.7755,4.2393,7.8040
11,1,0,0,1,02.156,2156,0.6500,-6.2500,4.2400,7.5804,0.2225,-0.0884,-1.0352,21.88,-56.50,232.13,-5.5631,-1.4969,4.2394,7.1527
11,1,0,0,1,02.277,2277,-2.9300,-4.5300,4.7000,7.1551,0.0545,-0.3131,1.9144,26.69,-55.50,235.44,-5.2162,-1.8966,4.3001,7.0211
11,2,0,0,1,02.398,2398,-6.7100,-6.2100,4.3100,10.1076,0.2094,-0.5258,1.9035,35.19,-56.00,243.25,-5.4130,-2.4650,4.3014,7.3402
11,2,0,0,1,02.519,2519,-7.6600,-4.0100,3.0000,9.1518,0.0109,-0.0633,1.6941,48.06,-49.56,257.00,-5.7091,-2.6686,4.1299,7.5347
11,2,0,0,1,02.682,2682,-6.6700,-1.6700,3.3400,7.6442,-0.3272,-0.3283,2.2809,60.94,-27.94,275.50,-5.8357,-2.5370,4.0258,7.5299
11,2,0,0,1,02.807,2807,-10.1900,1.2000,3.1900,10.7449,-0.7461,-0.5738,2.2929,67.25,2.19,286.44,-6.4095,-2.0445,3.9157,7.7842
11,2,0,0,1,02.928,2928,-11.1700,4.4000,2.8800,12.3460,-0.8018,-0.1724,1.6690,63.56,42.38,298.25,-7.0368,-1.1953,3.7792,8.0764
11,2,0,0,1,03.049,3049,-8.6500,5.7200,2.9300,10.7762,-0.6141,0.0316,1.0767,53.81,60.75,308.44,-7.2494,-0.2841,3.6673,8.1292
11,2,0,0,1,03.170,3170,-8.3000,6.2300,2.3000,10.6298,-0.9185,-0.4691,1.0603,50.00,70.00,310.88,-7.3878,0.5743,3.4871,8.1896
11,2,0,0,1,03.292,3292,-7.4300,8.6400,1.2000,11.4584,-0.6032,-0.0589,1.1312,41.56,80.38,318.06,-7.3934,1.6372,3.1857,8.2153
11,2,0,0,1,03.418,3418,-5.9600,7.1500,1.9100,9.5022,0.0513,0.6916,0.3567,37.19,79.88,319.50,-7.2045,2.3636,3.0176,8.1607
11,2,0,0,1,03.540,3540,-4.9000,7.6300,2.1100,9.3102,-0.3534,0.0513,-0.8879,36.06,78.94,317.13,-6.9008,3.0576,2.8980,8.0851
11,2,0,0,1,03.701,3701,-7.7600,7.0800,1.3400,10.5896,0.4342,0.1276,1.0276,45.06,76.94,309.25,-7.0140,3.5877,2.6927,8.3258
11,2,0,0,1,03.822,3822,-6.7400,6.4000,1.8600,9.4788,0.4265,-0.0251,-1.8435,45.38,73.00,308.50,-6.9779,3.9582,2.5830,8.4280
11,2,0,0,1,03.943,3943,-8.6400,5.6100,1.9800,10.4901,0.3796,-0.0687,-0.4222,53.63,67.50,300.56,-7.1970,4.1759,2.5035,8.6892
11,2,0,0,1,04.066,4066,-9.4500,4.3100,2.9200,10.7891,0.2825,0.2411,-0.9447,58.69,60.63,296.38,-7.4938,4.1936,2.5584,8.9604
11,2,0,0,1,04.187,4187,-8.6300,4.1700,3.1900,10.1016,0.2476,0.6120,-1.3941,62.00,47.38,289.69,-7.6436,4.1905,2.6416,9.1084
11,2,0,0,1,04.311,4311,-7.9100,2.8200,3.0300,8.9276,0.3862,0.4800,-0.6043,64.38,27.25,282.31,-7.6787,4.0099,2.6928,9.0715
11,2,0,0,1,04.432,4432,-11.1200,0.5400,3.1000,11.5566,0.7669,-0.6283,-1.8686,67.19,1.06,274.00,-8.1322,3.5526,2.7465,9.2896
11,2,0,0,1,04.553,4553,-8.9900,-1.4900,3.7000,9.8352,0.7396,0.3218,-1.3854,67.06,-16.19,272.81,-8.2452,2.8881,2.8721,9.1964
11,2,0,0,1,04.715,4715,-8.5300,-2.3800,3.6100,9.5633,0.1069,0.4952,-1.2414,59.88,-35.63,264.69,-8.2827,2.1939,2.9694,9.0683
11,2,0,0,1,04.836,4836,-6.7900,-2.9900,4.0600,8.4574,0.0993,0.6240,-0.8574,52.56,-40.19,259.75,-8.0860,1.5108,3.1131,8.7953
11,2,0,0,1,04.961,4961,-5.7100,-3.8000,4.3800,8.1381,0.0982,0.2967,-0.1985,46.81,-43.38,256.69,-7.7729,0.8110,3.2800,8.4755
11,2,0,0,1,05.084,5084,-6.4600,-4.8500,4.5000,9.2468,-0.2258,0.2465,0.5694,39.94,-48.13,250.44,-7.5999,0.0650,3.4408,8.3428
11,2,0,0,1,05.204,5204,-5.8400,-6.3700,5.1400,10.0550,-0.0164,0.3436,-0.9447,31.31,-51.31,243.44,-7.3680,-0.7830,3.6647,8.2662
11,2,0,0,1,05.325,5325,-6.1000,-6.8700,5.6500,10.7856,0.0371,0.1080,-1.2141,23.25,-53.94,235.25,-7.2009,-1.5851,3.9263,8.3535
11,2,0,0,1,05.447,5447,1.0000,-6.4400,4.5900,7.9713,0.5585,0.1462,-2.5744,18.25,-56.38,230.25,-6.1202,-2.2248,4.0138,7.6497
11,2,0,0,1,05.567,5567,1.0000,-5.7400,4.0300,7.0844,0.0164,-0.0425,0.3109,16.94,-57.13,227.94,-5.1820,-2.6880,4.0159,7.0856
11,2,0,0,1,05.735,5735,-2.1700,-5.9400,5.0600,8.0991,0.0873,-0.2694,1.9090,22.13,-56.06,233.44,-4.7851,-3.1166,4.1535,7.0613
11,3,0,0,1,05.856,5856,-4.9700,-5.8300,4.6400,8.9565,-0.1909,-0.3196,1.5643,31.81,-54.06,241.69,-4.8094,-3.4741,4.2176,7.2793
11,3,0,0,1,05.977,5977,-6.7600,-3.9900,3.7500,8.6994,-0.3556,0.1734,2.6911,43.63,-44.44,255.81,-5.0665,-3.5421,4.1560,7.4490
11,3,0,0,1,06.098,6098,-7.0000,-2.4900,4.4800,8.6759,-0.5258,-0.2563,1.7486,51.81,-29.19,268.38,-5.3213,-3.4035,4.1987,7.5847
11,3,0,0,1,06.219,6219,-9.8200,0.2800,4.3400,10.7399,-0.5683,-0.5127,1.7781,58.38,-10.88,277.44,-5.9141,-2.9181,4.2173,7.8280
11,3,0,0,1,06.340,6340,-9.2300,2.0700,3.9400,10.2470,-0.3916,-0.8552,1.6472,62.94,14.06,287.75,-6.3510,-2.2608,4.1808,7.9326
11,3,0,0,1,06.465,6465,-9.6100,3.6900,3.4000,10.8410,-0.4287,-0.7963,1.9908,63.31,41.56,297.94,-6.7805,-1.4766,4.0779,8.0489
11,3,0,0,1,06.588,6588,-8.0700,4.2900,3.2200,9.6901,-0.8421,-0.4112,1.6930,53.56,65.81,311.31,-6.9504,-0.7167,3.9648,8.0338
11,3,0,0,1,06.750,6750,-6.2300,8.2500,1.4100,10.4338,-1.0156,0.2443,1.3439,41.50,79.38,317.56,-6.8555,0.4649,3.6282,7.7703
11,3,0,0,1,06.871,6871,-5.1400,8.7000,0.7100,10.1298,-0.7123,0.1298,2.0889,31.44,85.44,324.69,-6.6294,1.5500,3.2436,7.5414
11,3,0,0,1,06.992,6992,-8.4300,8.0900,1.0200,11.7283,-0.0982,0.0218,-0.2585,30.50,87.38,324.19,-6.8667,2.4118,2.9506,7.8533
11,3,0,0,1,07.115,7115,-5.9300,9.2300,1.2100,11.0373,0.5509,-0.1734,-1.8348,32.13,86.50,322.81,-6.7433,3.3103,2.7212,7.9897
11,3,0,0,1,07.240,7240,-6.6300,7.3800,1.9100,10.1029,1.2763,0.0295,-0.8574,41.50,78.44,318.38,-6.7283,3.8466,2.6143,8.1793
11,3,0,0,1,07.360,7360,-8.5100,5.1200,2.3000,10.1943,0.8323,0.0338,-1.9177,54.06,66.31,309.31,-6.9631,4.0144,2.5729,8.4392
11,3,0,0,1,07.482,7482,-9.2100,3.1700,2.6500,10.0943,0.7058,0.1385,-1.7671,64.00,49.56,300.56,-7.2592,3.9031,2.5831,8.6373
11,3,0,0,1,07.602,7602,-10.1200,1.8200,3.0900,10.7366,0.3218,0.2487,-1.9264,68.94,28.13,293.06,-7.6362,3.6286,2.6499,8.8600
11,3,0,0,1,07.770,7770,-8.6200,0.5900,3.5900,9.3563,0.1898,0.6283,-1.6832,66.31,-9.19,280.75,-7.7658,3.2282,2.7738,8.8557
11,3,0,0,1,07.892,7892,-9.0600,-0.4600,2.8100,9.4969,0.5454,-0.2825,-1.3134,66.00,-17.63,279.00,-7.9364,2.7422,2.7785,8.8445
11,3,0,0,1,08.012,8012,-11.0100,-2.7700,4.3700,12.1651,0.2967,0.3949,-1.3984,60.94,-37.88,271.69,-8.3414,2.0158,2.9883,9.0869
11,3,0,0,1,08.133,8133,-8.6100,-2.8800,3.7800,9.8344,0.2793,0.4047,-2.9583,54.31,-43.94,266.69,-8.3768,1.3707,3.0926,9.0340
11,3,0,0,1,08.254,8254,-5.1900,-3.7500,3.3200,7.2126,0.5389,0.0971,-1.4628,53.06,-44.13,267.00,-7.9568,0.6959,3.1226,8.5759
11,3,0,0,1,08.375,8375,-2.3000,-4.6600,3.2300,6.1187,0.1767,-0.1920,-0.7363,46.13,-54.69,258.81,-7.2114,-0.0099,3.1367,7.8641
11,3,0,0,1,08.496,8496,-5.7200,-5.5300,3.4000,8.6521,0.1004,0.0349,1.2097,41.88,-58.69,253.81,-7.0149,-0.7373,3.1714,7.7337
11,3,0,0,1,08.618,8618,-7.0600,-8.5000,4.6100,11.9727,0.0033,0.0676,-1.0439,32.06,-64.50,245.13,-7.0208,-1.7602,3.3610,7.9804
11,3,0,0,1,08.784,8784,-2.5700,-7.6000,3.5300,8.7650,0.2433,0.3371,-1.6439,19.38,-67.38,234.00,-6.4343,-2.5297,3.3832,7.6972
11,3,0,0,1,08.904,8904,-1.2000,-7.8600,2.9700,8.4877,0.2149,0.0840,-0.8105,16.06,-68.31,231.75,-5.7446,-3.2321,3.3288,7.3843
11,3,0,0,1,09.025,9025,-2.4300,-7.2800,3.2800,8.3464,-0.3316,-0.1145,0.5596,12.50,-68.56,227.69,-5.3078,-3.7655,3.3224,7.3069
11,3,0,0,1,09.146,9146,0.1200,-7.8100,3.8000,8.6862,0.3382,0.0676,0.3589,19.81,-66.88,234.94,-4.5926,-4.2985,3.3853,7.1435
11,4,0,0,1,09.267,9267,-4.0900,-5.7200,3.1300,7.6970,-0.2073,-0.2749,2.3933,25.50,-66.88,238.75,-4.5263,-4.4858,3.3517,7.2003
11,4,0,0,1,09.394,9394,-6.6500,-5.8600,3.2100,9.4269,-0.2214,0.3698,2.9027,39.94,-60.75,255.56,-4.8062,-4.6669,3.3330,7.4825
11,4,0,0,1,09.516,9516,-7.1900,-2.6900,3.2200,8.3247,-0.7734,-0.0480,2.0606,55.81,-40.75,274.44,-5.1203,-4.4064,3.3181,7.5262
11,4,0,0,1,09.636,9636,-10.2300,0.0600,3.9300,10.9591,-0.8628,-0.2356,2.1446,63.44,-14.63,285.50,-5.7936,-3.8178,3.3987,7.7262
11,4,0,0,1,09.798,9798,-9.3100,3.6100,3.3600,10.5355,-0.9665,-0.3894,1.6002,65.06,30.88,297.81,-6.2570,-2.8390,3.3936,7.6633
11,4,0,0,1,09.919,9919,-9.5000,5.2000,3.2600,11.3101,-0.7058,0.0000,1.8021,57.81,53.94,306.75,-6.6843,-1.7797,3.3760,7.6971
11,4,0,0,1,10.046,10046,-7.9000,5.8200,2.7700,10.1958,-1.4912,0.1582,2.2722,46.31,67.94,315.06,-6.8445,-0.7783,3.2962,7.6366
11,4,0,0,1,10.168,10168,-6.5500,9.7300,0.8100,11.7572,-0.9163,-0.0556,0.0240,37.63,81.25,317.88,-6.8057,0.6065,2.9686,7.4497
11,4,0,0,1,10.288,10288,-7.2700,8.0900,2.5200,11.1647,0.7832,-0.0415,0.7483,35.88,80.50,320.31,-6.8669,1.5926,2.9094,7.6260
11,4,0,0,1,10.409,10409,-7.3100,6.2600,2.9200,10.0573,0.7439,-0.3403,-2.3202,41.50,75.44,318.75,-6.9253,2.2077,2.9108,7.8298
11,4,0,0,1,10.530,10530,-7.6100,6.6500,2.3600,10.3781,0.5029,0.2149,0.0524,49.63,68.75,313.13,-7.0155,2.7930,2.8382,8.0669
11,4,0,0,1,10.652,10652,-9.3000,5.0700,2.8900,10.9794,0.5651,0.2051,-2.1631,56.25,58.19,306.25,-7.3166,3.0931,2.8451,8.4376
11,4,0,0,1,10.814,10814,-8.6300,2.3200,3.5600,9.6194,0.2683,0.2705,-1.4890,64.38,35.75,296.44,-7.4896,2.9912,2.9393,8.5838
11,4,0,0,1,10.939,10939,-9.3100,2.4500,2.9500,10.0688,0.2247,0.2411,-1.9253,67.13,13.25,285.63,-7.7295,2.9199,2.9407,8.7703
11,4,0,0,1,11.060,11060,-7.6600,1.3100,4.9100,9.1924,0.2345,0.5934,1.3461,63.06,5.50,285.69,-7.7204,2.7078,3.2002,8.7850
11,4,0,0,1,11.181,11181,-10.6000,-1.1900,4.2400,11.4784,0.6392,0.0753,-1.1192,61.63,-16.13,278.56,-8.0998,2.1941,3.3372,9.0310
11,4,0,0,1,11.302,11302,-7.7800,-1.8200,3.9100,8.8954,0.6763,-0.1604,-1.7661,60.13,-27.63,276.69,-8.0577,1.6652,3.4127,8.9076
11,4,0,0,1,11.423,11423,-7.5200,-2.2300,3.7700,8.7027,-0.1505,0.0971,1.0472,56.81,-37.56,272.50,-7.9868,1.1519,3.4598,8.7799
11,4,0,0,1,11.546,11546,-12.5000,-4.5600,4.5300,14.0558,0.1309,-0.0873,-0.9730,50.88,-49.00,265.00,-8.5815,0.3992,3.6008,9.3149
11,4,0,0,1,11.667,11667,-9.3100,-5.4900,4.5200,11.7152,0.3545,-0.0524,-1.9820,48.50,-52.56,263.00,-8.6775,-0.3768,3.7219,9.4496
11,4,0,0,1,11.832,11832,-6.4900,-6.2500,3.9700,9.8460,0.4920,-0.0578,-1.7061,39.56,-62.69,252.31,-8.3893,-1.1508,3.7546,9.2629
11,4,0,0,1,11.953,11953,-2.8800,-5.9200,2.8100,7.1580,0.0185,0.3938,-1.0679,31.81,-65.50,245.63,-7.6633,-1.7792,3.6301,8.6643
11,4,0,0,1,12.073,12073,-1.7900,-6.9000,2.7500,7.6405,0.0796,0.0665,-0.0807,29.44,-64.88,245.00,-6.8893,-2.4540,3.5142,8.1139
11,4,0,0,1,12.194,12194,-3.4700,-7.4800,2.9400,8.7541,0.2422,-0.4211,0.8007,26.38,-68.19,240.56,-6.4388,-3.1163,3.4385,7.9368
11,5,0,0,1,12.315,12315,-6.4100,-8.2000,2.6000,10.7279,0.2520,-0.3382,0.3447,22.56,-73.13,234.00,-6.4350,-3.7862,3.3280,8.1743
11,5,0,0,1,12.436,12436,-3.4300,-8.0800,3.1600,9.3294,-0.3207,0.5323,-1.2272,18.94,-74.63,231.19,-6.0390,-4.3520,3.3059,8.1448
11,5,0,0,1,12.557,12557,-3.8800,-5.7600,3.4300,7.7458,-0.5476,0.6534,2.6933,29.19,-64.81,245.38,-5.7545,-4.5376,3.3222,8.0462
11,5,0,0,1,12.683,12683,-5.5900,-6.3000,3.7300,9.2115,-0.0840,-0.3153,1.4563,36.94,-60.25,254.56,-5.7328,-4.7698,3.3760,8.1862
11,5,0,0,1,12.845,12845,-7.6600,-4.4400,3.2100,9.4177,-0.3196,0.1691,1.6973,48.31,-54.00,265.50,-5.9868,-4.7263,3.3541,8.3324
11,5,0,0,1,12.966,12966,-7.6800,-2.4200,3.8900,8.9426,-0.8923,0.6392,2.2427,56.06,-34.19,278.00,-6.2099,-4.4224,3.4247,8.3576
11,5,0,0,1,13.087,13087,-8.2300,0.3400,4.8400,9.5537,-1.2075,0.3992,2.1075,57.44,-5.19,288.44,-6.4761,-3.7949,3.6112,8.3296
11,5,0,0,1,13.208,13208,-7.7400,4.3000,4.0200,9.7241,-1.5206,-0.2149,1.4672,55.44,24.63,296.94,-6.6426,-2.7282,3.6651,8.0623
11,5,0,0,1,13.329,13329,-8.3300,5.6500,4.0900,10.8646,-1.0930,-0.7232,1.9482,51.31,46.81,304.13,-6.8650,-1.6241,3.7211,7.9757
11,5,0,0,1,13.456,13456,-5.0000,6.6000,3.2400,8.8914,-1.0068,-0.6687,0.6883,45.25,63.50,311.81,-6.6192,-0.5404,3.6577,7.5819
11,5,0,0,1,13.578,13578,-7.5000,9.0500,1.2700,11.8222,-0.5061,-0.5640,1.4399,40.38,77.50,319.69,-6.7353,0.7234,3.3430,7.5540
11,5,0,0,1,13.698,13698,-7.7700,7.6400,2.8600,11.2660,0.1156,-0.2760,0.5531,36.44,79.50,325.06,-6.8716,1.6348,3.2794,7.7876
11,5,0,0,1,13.860,13860,-7.9400,8.3100,1.7000,11.6185,0.5596,-0.1407,-1.3483,37.81,80.81,327.00,-7.0124,2.5144,3.0713,8.0579
11,5,0,0,1,13.983,13983,-4.7100,6.5900,2.0000,8.3434,0.6905,0.3807,-0.7985,43.00,72.88,323.06,-6.7090,3.0515,2.9301,7.9315
11,5,0,0,1,14.108,14108,-9.9400,6.0200,1.9800,11.7883,0.2542,-0.0982,-0.0960,50.63,68.19,317.19,-7.1348,3.4427,2.8049,8.4038
11,5,0,0,1,14.229,14229,-7.6200,5.0600,2.8900,9.5927,0.5378,0.1789,-2.3147,54.94,58.50,311.56,-7.1987,3.6558,2.8161,8.5508
11,5,0,0,1,14.349,14349,-7.5900,4.9700,3.8100,9.8400,0.2694,0.2094,0.1200,56.75,50.38,308.56,-7.2503,3.8290,2.9471,8.7128
11,5,0,0,1,14.470,14470,-8.1600,1.6200,3.0300,8.8539,0.6807,-0.1953,-2.2777,65.19,32.94,299.94,-7.3702,3.5379,2.9580,8.6940
11,5,0,0,1,14.591,14591,-10.4400,2.4200,2.9600,11.1181,-0.4854,1.5086,0.6447,63.94,17.56,293.69,-7.7747,3.3906,2.9583,8.9829
11,5,0,0,1,14.712,14712,-6.3700,1.6700,6.3500,9.1481,-0.4560,1.2326,-0.2411,51.75,11.44,288.25,-7.5896,3.1638,3.4052,8.8998
11,5,0,0,1,14.874,14874,-8.5400,1.3900,5.2700,10.1310,0.9883,-0.8138,-1.7541,54.06,7.69,286.81,-7.7148,2.9301,3.6509,9.0240
11,5,0,0,1,15.000,15000,-9.7800,-1.0400,4.4700,10.8033,0.6643,-0.0982,-1.8021,57.50,-17.69,278.38,-7.9870,2.4069,3.7589,9.1495
11,5,0,0,1,15.121,15121,-4.4800,-1.0700,4.8600,6.6959,0.1614,0.5727,-1.6177,53.63,-17.31,278.31,-7.5248,1.9488,3.9040,8.6984
11,5,0,0,1,15.242,15242,-6.9100,-1.8700,5.6400,9.1134,-0.3131,0.5923,1.2948,47.06,-25.50,271.56,-7.4438,1.4455,4.1327,8.6359
11,5,0,0,1,15.362,15362,-7.6000,-3.8500,6.0900,10.4724,0.5727,0.1462,-1.9253,38.88,-36.06,262.63,-7.4644,0.7477,4.3907,8.6922
11,5,0,0,1,15.483,15483,-5.0700,-4.7800,6.0100,9.2018,0.3643,0.3185,-0.9534,32.00,-44.06,256.50,-7.1489,0.0193,4.6040,8.5032
11,5,0,0,1,15.605,15605,-2.6600,-5.0000,5.5900,7.9576,0.2814,0.1025,-1.2948,27.63,-47.13,252.13,-6.5574,-0.6421,4.7340,8.1131
11,6,0,0,1,15.726,15726,-5.9600,-6.4400,6.1000,10.6867,-0.2225,0.0556,1.4355,28.56,-46.81,253.81,-6.4786,-1.4061,4.9140,8.2521
11,6,0,0,1,15.892,15892,-5.1800,-5.0900,5.5300,9.1281,-0.4832,0.0720,1.2381,24.94,-45.69,250.00,-6.3075,-1.8916,4.9952,8.2652
11,6,0,0,1,16.014,16014,-4.7400,-4.4800,5.9200,8.8082,0.1113,-0.7658,0.1516,32.69,-41.38,258.44,-6.1010,-2.2326,5.1170,8.2698
11,6,0,0,1,16.134,16134,-7.3600,-2.9700,5.0300,9.3964,-0.5334,-1.0341,3.0521,44.81,-36.75,266.69,-6.2669,-2.3298,5.1056,8.4124
11,6,0,0,1,16.255,16255,-8.6200,-1.6000,4.2200,9.7300,-0.3011,-0.4222,0.4112,54.56,-26.13,275.94,-6.5769,-2.2336,4.9889,8.5519
11,6,0,0,1,16.376,16376,-8.2900,0.9900,3.7100,9.1361,-1.0417,-0.2891,2.1882,60.44,-6.63,284.19,-6.8027,-1.8088,4.8203,8.5314
11,6,0,0,1,16.497,16497,-8.5700,3.7500,3.4800,9.9809,-1.0090,-0.0709,0.8236,60.31,17.25,289.88,-7.0356,-1.0763,4.6437,8.4983
11,6,0,0,1,16.619,16619,-8.0700,5.6400,3.4800,10.4425,-0.4320,-0.8149,1.7922,57.75,39.44,298.19,-7.1719,-0.1913,4.4904,8.4638
11,6,0,0,1,16.745,16745,-9.8000,5.7500,2.4000,11.6130,-0.1244,-1.3123,0.1658,57.25,57.50,307.19,-7.5182,0.5916,4.2149,8.6394
11,6,0,0,1,16.907,16907,-8.7200,6.5800,1.6600,11.0495,0.2160,0.0404,0.8018,56.75,70.31,314.69,-7.6766,1.3807,3.8782,8.7107
11,6,0,0,1,17.028,17028,-7.6500,6.2300,2.6300,10.2104,-0.1309,0.5029,1.3788,47.31,69.75,321.25,-7.6731,2.0197,3.7138,8.7606
11,6,0,0,1,17.149,17149,-7.5500,7.5300,2.1400,10.8758,-0.5629,-0.0894,0.5072,41.44,73.56,323.63,-7.6568,2.7459,3.5064,8.8579
11,6,0,0,1,17.270,17270,-6.3600,7.9200,2.0000,10.3526,0.4058,-0.3567,-0.7178,40.13,76.19,326.19,-7.4860,3.4277,3.3079,8.8730
11,6,0,0,1,17.396,17396,-9.3100,5.0200,2.3500,10.8351,0.8716,-0.3676,-2.1555,54.25,69.44,316.94,-7.7263,3.6375,3.1816,9.1132
11,6,0,0,1,17.518,17518,-8.0600,6.5500,2.2300,10.6226,-0.0131,0.3240,0.3447,53.38,67.31,319.69,-7.7703,4.0213,3.0562,9.2676
11,6,0,0,1,17.639,17639,-9.4600,3.3900,2.6300,10.3875,0.2716,0.5563,-1.4639,61.38,54.13,308.50,-7.9930,3.9381,3.0001,9.4019
11,6,0,0,1,17.759,17759,-5.6900,5.1000,2.8900,8.1693,-0.1582,0.2291,-0.1789,57.75,50.88,308.69,-7.6895,4.0912,2.9856,9.2076
11,6,0,0,1,17.921,17921,-10.3900,2.8000,2.6500,11.0822,0.2171,0.4636,0.9065,66.75,23.44,295.13,-8.0453,3.9211,2.9414,9.4209
11,6,0,0,1,18.042,18042,-9.1700,0.7300,3.4400,9.8212,0.5585,-0.5716,-2.4718,67.88,8.63,291.75,-8.1935,3.5006,3.0071,9.4037
11,6,0,0,1,18.169,18169,-9.3500,-0.1900,3.3900,9.9474,0.4811,-0.1756,-0.5171,71.25,-12.13,288.06,-8.3459,3.0142,3.0575,9.3856
11,6,0,0,1,18.290,18290,-11.2500,-2.2600,3.2300,11.9207,-0.4832,0.7516,-0.7330,65.38,-35.31,279.00,-8.7286,2.3192,3.0803,9.5423
11,6,0,0,1,18.411,18411,-5.2300,-0.5500,4.0700,6.6498,0.1996,0.7079,-1.2654,60.56,-17.75,282.19,-8.2676,1.9411,3.2107,9.0791
11,6,0,0,1,18.532,18532,-8.0500,-1.0900,4.8000,9.4356,0.0033,0.5116,0.6392,55.44,-24.19,278.25,-8.2389,1.5417,3.4201,9.0528
11,6,0,0,1,18.653,18653,-9.0000,-3.9400,4.7000,10.8910,0.6458,-0.0349,-2.3082,48.63,-39.88,268.88,-8.3392,0.8194,3.5888,9.1155
11,6,0,0,1,18.774,18774,-6.7800,-4.3600,5.0200,9.4962,0.3927,0.3916,-1.6722,46.88,-42.50,268.69,-8.1337,0.1369,3.7774,8.9691
11,6,0,0,1,18.936,18936,-4.7200,-3.7500,4.5800,7.5708,-0.1713,0.6207,-1.0690,28.69,-50.38,251.44,-7.6839,-0.3753,3.8831,8.6175
11,6,0,0,1,19.061,19061,-4.5400,-7.6000,6.1200,10.7622,0.4483,-0.2094,-1.3494,19.38,-54.56,242.06,-7.2696,-1.3274,4.1779,8.4890
11,6,0,0,1,19.183,19183,-0.7100,-6.9800,4.2800,8.2184,0.6229,-0.1222,-2.1108,11.19,-60.69,230.69,-6.4052,-2.0722,4.1913,7.9302
11,6,0,0,1,19.303,19303,-2.9600,-8.0600,5.2200,10.0486,-0.1789,-0.0120,2.0639,10.75,-61.31,230.13,-5.9512,-2.8613,4.3269,7.8947
11,6,0,0,1,19.424,19424,-1.8100,-9.1000,5.2900,10.6804,0.1963,-0.0578,-0.1113,13.13,-61.94,233.25,-5.4055,-3.6834,4.4538,7.9135
11,6,0,0,1,19.545,19545,-3.5300,-5.4800,4.6900,8.0304,-0.3818,0.1113,2.1795,22.31,-58.31,242.81,-5.1584,-3.9201,4.4849,7.8798
11,7,0,0,1,19.667,19667,-5.5300,-5.1300,4.5200,8.7936,-0.5432,0.3120,2.5896,35.13,-48.19,259.69,-5.2073,-4.0796,4.4896,7.9947
11,7,0,0,1,19.788,19788,-7.3000,-2.7200,5.4500,9.5074,-0.7679,0.3523,2.8383,45.50,-30.13,276.88,-5.4831,-3.9004,4.6161,8.1600
11,7,0,0,1,19.954,19954,-6.8100,0.9300,5.7100,8.9356,-0.5683,-0.3785,1.0210,50.00,-5.38,290.63,-5.6580,-3.2639,4.7603,8.0824
11,7,0,0,1,20.075,20075,-6.8400,2.5300,5.0000,8.8423,-0.7549,-0.9741,1.6646,54.44,14.00,299.88,-5.8137,-2.5004,4.7919,7.9381
11,7,0,0,1,20.196,20196,-9.3600,4.9500,3.8700,11.2734,-0.7734,-0.7385,1.7061,55.81,35.69,307.94,-6.2810,-1.5186,4.6704,7.9731
11,7,0,0,1,20.317,20317,-8.6300,6.3700,3.7700,11.3696,-0.6305,-0.2640,1.7497,49.50,54.44,318.50,-6.5906,-0.4791,4.5517,8.0239
11,7,0,0,1,20.438,20438,-6.8100,7.2800,3.6700,10.6228,-0.5792,-0.1484,1.7508,39.75,65.56,328.75,-6.6195,0.5434,4.4355,7.9867
11,7,0,0,1,20.559,20559,-7.0100,7.9900,3.4400,11.1720,-0.1102,-0.0709,0.8149,33.88,70.19,334.75,-6.6709,1.5246,4.3044,8.0841
11,7,0,0,1,20.681,20681,-6.5100,7.9800,3.8300,10.9877,0.2913,0.0567,-0.5836,31.81,69.75,337.31,-6.6497,2.3753,4.2418,8.2374
11,7,0,0,1,20.806,20806,-7.3400,7.0600,4.0800,10.9711,0.6360,0.3163,-1.6788,39.94,62.88,328.69,-6.7407,2.9926,4.2205,8.4974
11,7,0,0,1,20.968,20968,-8.0800,4.8800,4.0200,10.2597,0.4058,0.0207,-2.2242,53.88,43.25,311.75,-6.9172,3.2413,4.1941,8.7146
11,7,0,0,1,21.089,21089,-11.1300,2.1200,3.8600,11.9696,0.4189,0.2542,-2.3377,62.56,13.06,295.06,-7.4723,3.0936,4.1501,9.0900
11,7,0,0,1,21.210,21210,-7.0400,0.5300,4.7200,8.4924,0.2880,0.6305,-2.1238,59.13,-4.31,287.94,-7.4154,2.7557,4.2252,8.9685
11,7,0,0,1,21.331,21331,-7.8100,-1.1200,4.5000,9.0830,0.2880,0.3011,-0.6741,53.56,-24.56,276.06,-7.4674,2.2450,4.2614,8.8860
11,7,0,0,1,21.452,21452,-5.8600,-3.0000,5.2800,8.4391,0.0273,0.1080,-1.6657,48.81,-30.19,271.44,-7.2555,1.5539,4.3956,8.6243
11,7,0,0,1,21.579,21579,-5.5100,-2.2600,5.2300,7.9259,-0.0709,0.3000,0.7396,44.25,-33.31,266.44,-7.0255,1.0513,4.5056,8.4121
11,7,0,0,1,21.700,21700,-7.5400,-5.0200,5.3200,10.5050,0.8748,-0.7276,-1.7704,42.31,-43.50,260.25,-7.0933,0.2513,4.6129,8.4651
11,7,0,0,1,21.820,21820,-8.6200,-6.7600,5.3800,12.2044,-0.0305,0.4821,-0.4789,36.50,-51.94,252.81,-7.2945,-0.6727,4.7140,8.7111
11,7,0,0,1,21.982,21982,-4.4500,-6.7500,5.9200,10.0205,-0.7898,0.7974,0.2651,18.31,-50.94,238.50,-6.9197,-1.4735,4.8729,8.5906
11,7,0,0,1,22.107,22107,-2.0100,-5.6100,6.1700,8.5779,0.2313,0.3360,-1.4955,15.38,-48.00,239.13,-6.2727,-2.0186,5.0438,8.2983
11,7,0,0,1,22.231,22231,-1.2000,-6.1100,5.5300,8.3278,0.4625,-0.3087,0.0753,11.50,-51.94,233.50,-5.6042,-2.5577,5.1079,8.0025
11,7,0,0,1,22.352,22352,-2.1900,-7.3200,5.7300,9.5505,0.2978,-0.2018,-0.7014,17.31,-53.06,237.56,-5.1543,-3.1853,5.1899,7.9780
11,7,0,0,1,22.472,22472,-2.6500,-5.6500,4.7300,7.8306,-0.5225,-0.2203,2.7216,21.44,-52.25,240.19,-4.8243,-3.5101,5.1293,7.8679
11,8,0,0,1,22.593,22593,-4.7800,-4.5500,4.9100,8.2255,-1.1290,0.1920,2.6551,34.38,-40.31,256.31,-4.8185,-3.6471,5.1004,7.9078
11,8,0,0,1,22.714,22714,-5.4500,-1.8800,6.0200,8.3353,-1.2359,-0.2476,3.1230,42.75,-20.00,271.25,-4.9017,-3.4142,5.2216,7.9340
11,8,0,0,1,22.836,22836,-7.0400,0.7500,5.8500,9.1840,-0.9959,-1.1901,1.5806,50.31,0.50,281.88,-5.1835,-2.8655,5.3044,7.9508
11,8,0,0,1,22.998,22998,-9.3900,4.7000,4.2400,11.3243,-0.7156,-0.9872,1.6832,55.56,32.75,294.19,-5.7378,-1.8686,5.1641,7.9424
11,8,0,0,1,23.123,23123,-8.4800,6.2700,3.6500,11.1600,-0.6349,-0.7309,1.7835,50.81,54.50,305.63,-6.0991,-0.7961,4.9646,7.9045
11,8,0,0,1,23.244,23244,-6.3800,7.4200,2.6400,10.1356,-0.5181,-1.1596,0.7189,44.00,70.81,317.31,-6.1362,0.2866,4.6583,7.7093
11,8,0,0,1,23.365,23365,-9.8500,7.4400,0.4800,12.3534,-0.1931,-1.3984,0.9348,44.13,83.38,324.00,-6.6255,1.2292,4.1077,7.8919
11,8,0,0,1,23.486,23486,-6.2800,7.3700,1.2600,9.7644,0.3763,0.2574,-0.7243,40.00,85.19,330.56,-6.5800,2.0384,3.7324,7.8347
11,8,0,0,1,23.607,23607,-8.8400,5.7600,1.9200,10.7243,0.3982,0.1909,-0.8225,48.50,79.38,322.50,-6.8778,2.5288,3.4936,8.1182
11,8,0,0,1,23.730,23730,-5.7100,6.7900,1.6900,9.0313,0.1080,0.6578,0.1331,45.81,75.25,323.25,-6.7239,3.0903,3.2559,8.0847
11,8,0,0,1,23.851,23851,-11.6100,4.1700,2.0800,12.5103,0.1702,0.5192,-2.4162,61.69,60.56,303.06,-7.3678,3.2326,3.1010,8.6226
11,8,0,0,1,24.016,24016,-7.2700,4.8300,3.4800,9.3964,0.2869,0.3371,-2.5885,56.88,52.88,304.75,-7.3549,3.4431,3.1509,8.7108
11,8,0,0,1,24.137,24137,-8.1100,3.1300,3.5500,9.3900,0.2411,0.3065,0.5651,61.69,41.94,298.69,-7.4544,3.4018,3.2035,8.7979
11,8,0,0,1,24.257,24257,-10.8900,1.1400,4.1100,11.6955,-0.0207,0.7669,-1.6417,63.50,21.13,288.44,-7.9071,3.1038,3.3230,9.1213
11,8,0,0,1,24.378,24378,-9.0800,2.1700,5.4800,10.8252,0.0153,0.6730,-0.3491,58.63,18.06,286.75,-8.0617,2.9807,3.6072,9.3213
11,8,0,0,1,24.499,24499,-7.1800,-0.3200,4.9100,8.7042,0.0709,0.9588,-1.5195,55.31,-0.38,277.00,-7.9455,2.5458,3.7789,9.1593
11,8,0,0,1,24.620,24620,-5.9800,1.8800,6.2800,8.8732,-0.1069,0.3763,-0.2913,50.25,2.88,276.94,-7.6865,2.4581,4.1085,9.0556
11,8,0,0,1,24.742,24742,-9.2000,-1.5300,5.9400,11.0573,0.4800,0.2651,-0.9632,47.31,-15.69,265.44,-7.8859,1.9325,4.3498,9.2111
11,8,0,0,1,24.868,24868,-8.9700,-1.2600,6.3700,11.0736,0.3752,0.1909,-1.6286,45.19,-19.31,264.63,-8.0288,1.5118,4.6160,9.3838
11,8,0,0,1,25.030,25030,-4.0000,-3.4100,5.7300,7.7757,0.9643,-0.0491,-2.1195,40.63,-30.94,258.00,-7.4979,0.8633,4.7628,8.9246
11,8,0,0,1,25.152,25152,-10.3000,-5.7200,7.6600,14.0529,-0.5640,0.5203,2.3671,32.31,-40.00,249.19,-7.8671,-0.0042,5.1446,9.3999
11,8,0,0,1,25.278,25278,-5.9300,-4.9500,6.4900,10.0890,0.8247,0.0142,-3.2518,31.38,-37.88,250.63,-7.6119,-0.6560,5.3219,9.3109
11,8,0,0,1,25.400,25400,-3.7300,-4.7900,5.2200,8.0066,0.9370,0.0404,-1.0908,25.63,-48.06,242.69,-7.1003,-1.2007,5.3085,8.9463
11,8,0,0,1,25.520,25520,-2.1900,-6.9700,5.0800,8.8985,0.1985,-0.0175,-0.1124,20.06,-53.31,236.50,-6.4533,-1.9610,5.2784,8.5645
11,8,0,0,1,25.641,25641,-3.6600,-6.3900,4.9000,8.8452,-0.1691,-0.0927,0.4429,21.69,-52.75,237.69,-6.0852,-2.5446,5.2285,8.4168
11,8,0,0,1,25.763,25763,-3.7800,-5.7400,5.5300,8.8214,-0.4222,-0.0665,1.7322,28.50,-48.44,245.44,-5.7814,-2.9657,5.2682,8.3651
11,8,0,0,1,25.886,25886,-5.3300,-4.1300,5.5600,8.7395,-0.5956,-0.0796,2.0671,37.31,-39.44,256.25,-5.7219,-3.1191,5.3067,8.4042
11,8,0,0,1,26.049,26049,-7.5300,-0.4500,5.0000,9.0500,-0.9174,-0.2673,2.4140,48.31,-16.38,273.44,-5.9602,-2.7674,5.2663,8.4212
11,8,0,0,1,26.172,26172,-7.3600,1.7300,5.1900,9.1705,-0.8759,-0.6240,1.8206,52.31,10.06,286.63,-6.1447,-2.1747,5.2562,8.3734
11,8,0,0,1,26.292,26292,-8.3400,4.8000,4.4800,10.6144,-0.6360,-1.1105,1.9482,53.69,33.44,296.88,-6.4340,-1.2557,5.1539,8.3388
11,9,0,0,1,26.413,26413,-8.7200,6.1100,3.7900,11.3020,-0.4658,-1.0865,1.5566,50.81,55.06,309.00,-6.7352,-0.2850,4.9742,8.3778
11,9,0,0,1,26.534,26534,-8.5000,7.0800,3.2500,11.5299,-0.2858,-0.4581,1.3548,44.88,67.31,319.25,-6.9678,0.6855,4.7470,8.4589
11,9,0,0,1,26.656,26656,-7.3600,7.4000,2.7000,10.7805,-0.1189,-0.3349,0.3632,40.56,72.44,325.44,-7.0194,1.5703,4.4773,8.4725
11,9,0,0,1,26.782,26782,-6.7900,7.6300,1.9900,10.4058,0.2193,-0.2291,0.8988,37.50,74.88,330.69,-6.9892,2.3688,4.1495,8.4663
11,9,0,0,1,26.904,26904,-10.3000,5.7500,2.2700,12.0127,0.1145,-0.1538,-2.9038,46.69,72.25,322.94,-7.4255,2.8144,3.9018,8.8477
11,9,0,0,1,27.066,27066,-5.5600,5.7200,2.8400,8.4674,0.2149,0.4712,-0.9436,48.25,66.69,319.56,-7.1797,3.1972,3.7619,8.7133
11,9,0,0,1,27.194,27194,-7.9100,5.7200,2.5300,10.0840,0.2083,0.2618,-0.3272,54.31,58.81,309.94,-7.2759,3.5297,3.5996,8.8518
11,9,0,0,1,27.315,27315,-8.3800,3.8000,3.3700,9.7990,0.3829,-0.2531,-1.7802,58.19,52.31,306.31,-7.4214,3.5653,3.5693,8.9738
11,9,0,0,1,27.435,27435,-9.9400,2.1300,3.2000,10.6574,0.5149,-0.2105,-1.3712,67.00,38.94,298.44,-7.7533,3.3762,3.5207,9.1601
11,9,0,0,1,27.556,27556,-10.1100,0.5500,3.2900,10.6461,0.3033,0.0469,-1.5501,71.44,13.50,291.06,-8.0638,3.0037,3.4903,9.2860
11,9,0,0,1,27.677,27677,-9.0200,-0.9500,2.9000,9.5222,0.0698,0.3043,-1.7039,69.94,-17.56,281.19,-8.1898,2.4827,3.4125,9.2132
11,9,0,0,1,27.799,27799,-9.9000,-2.3600,3.4500,10.7463,-0.2847,0.6654,-0.5618,59.94,-39.75,267.75,-8.4152,1.8446,3.4174,9.2680
11,9,0,0,1,27.919,27919,-7.1500,-2.9500,4.4500,8.9234,0.0175,0.5171,-1.7759,55.06,-35.94,265.81,-8.2485,1.2128,3.5535,9.0629
11,9,0,0,1,28.086,28086,-5.4300,-3.7700,4.5000,7.9967,0.4451,0.1582,-0.8149,46.69,-46.81,256.88,-7.8771,0.5562,3.6782,8.7113
11,9,0,0,1,28.207,28207,-7.8800,-6.4800,4.6700,11.2202,0.0033,0.4451,-0.3458,37.44,-53.50,247.94,-7.8775,-0.3710,3.8089,8.7578
11,9,0,0,1,28.327,28327,-6.0600,-6.7000,5.9100,10.7954,-0.5749,1.0439,-0.1811,34.44,-46.00,251.31,-7.6380,-1.2050,4.0858,8.7455
11,9,0,0,1,28.448,28448,-3.9900,-4.8800,6.0700,8.7510,0.0938,0.6752,-1.2239,26.44,-43.81,246.81,-7.1573,-1.6893,4.3472,8.5427
11,9,0,0,1,28.569,28569,-2.1300,-5.5700,5.4000,8.0450,0.9447,-0.1091,-1.1399,17.63,-49.88,239.19,-6.4948,-2.2007,4.4860,8.1945
11,9,0,0,1,28.690,28690,-2.7400,-8.3100,4.8900,10.0238,1.0799,-0.9054,-0.8399,17.31,-58.50,234.25,-6.0000,-3.0057,4.5392,8.1018
11,9,0,0,1,28.812,28812,-2.0400,-8.6300,4.1800,9.8036,0.1091,-0.1287,-0.3120,12.56,-65.25,225.56,-5.4782,-3.7468,4.4919,8.0141
11,9,0,0,1,28.938,28938,-1.7100,-6.6800,3.9100,7.9268,-0.9621,0.7810,0.5596,12.00,-61.19,227.38,-4.9816,-4.1334,4.4152,7.8355
11,9,0,0,1,29.100,29100,-2.9700,-5.1700,5.6000,8.1798,-0.7952,-0.0785,2.1838,23.81,-48.31,245.88,-4.7165,-4.2700,4.5713,7.8342
11,10,0,0,1,29.221,29221,-6.0000,-3.1000,4.8500,8.3146,-1.0297,-0.4156,2.8329,36.44,-36.38,259.44,-4.8857,-4.1158,4.6080,7.8768
11,10,0,0,1,29.342,29342,-6.9800,-1.0900,5.6900,9.0711,-0.7472,-0.1058,2.6704,46.00,-16.75,275.13,-5.1617,-3.7171,4.7506,7.9390
11,10,0,0,1,29.464,29464,-6.8100,1.5300,5.9100,9.1458,-1.0243,-0.6403,2.3584,50.06,8.38,289.69,-5.3789,-3.0256,4.9034,7.8823
11,10,0,0,1,29.590,29590,-8.4300,5.2500,4.8000,11.0303,-1.0265,-1.1443,1.7835,51.13,33.50,300.50,-5.7809,-1.9351,4.8898,7.8150
11,10,0,0,1,29.711,29711,-8.6000,6.5700,3.9200,11.5105,-0.4145,-0.8901,1.3101,49.06,53.75,310.88,-6.1524,-0.8144,4.7620,7.8225
11,10,0,0,1,29.832,29832,-8.7700,7.1500,3.5100,11.8472,-0.2542,-0.4276,1.3057,44.88,64.38,319.19,-6.4973,0.2351,4.5970,7.9626
11,10,0,0,1,29.952,29952,-7.3800,7.4500,2.8100,10.8565,-0.2683,-0.2793,0.1124,40.00,70.38,325.69,-6.6137,1.1859,4.3615,8.0106
11,10,0,0,1,30.114,30114,-7.2200,5.8300,2.6000,9.6373,0.5400,-0.1844,-0.7636,46.56,69.38,321.31,-6.6936,1.7978,4.1294,8.0677
11,10,0,0,1,30.235,30235,-6.7700,5.5000,2.8500,9.1763,0.0196,0.1440,-0.6829,47.31,66.63,321.50,-6.7036,2.2857,3.9608,8.1149
11,10,0,0,1,30.356,30356,-10.9400,4.8800,2.5300,12.2433,0.0709,0.2705,-0.8508,57.50,58.75,308.81,-7.2619,2.6276,3.7723,8.5947
11,10,0,0,1,30.481,30481,-7.9900,3.5600,3.0800,9.2736,0.3338,0.0196,-2.2558,61.63,48.63,303.00,-7.3578,2.7504,3.6810,8.6748
11,10,0,0,1,30.603,30603,-10.0500,2.3100,2.8600,10.7013,0.3371,0.2040,-1.1748,69.44,22.25,291.38,-7.7126,2.6924,3.5728,8.9162
11,10,0,0,1,30.724,30724,-9.7200,-0.2300,3.6500,10.3853,0.0665,0.5814,-1.7453,67.56,-11.13,280.31,-7.9771,2.3073,3.5830,9.0441
11,10,0,0,1,30.845,30845,-8.3600,-0.9100,4.0400,9.3295,-0.0884,0.5989,-1.4464,60.25,-26.69,270.56,-8.0276,1.8833,3.6432,9.0145
11,10,0,0,1,30.966,30966,-7.5700,-2.4100,4.1500,8.9630,0.2596,0.2073,-1.7246,52.06,-39.38,260.06,-7.9673,1.3176,3.7100,8.8869
11,10,0,0,1,31.130,31130,-7.8400,-5.3000,4.5600,10.5047,0.2793,0.0044,-0.9545,43.56,-51.88,250.44,-7.9505,0.4456,3.8220,8.8327
11,10,0,0,1,31.255,31255,-6.4800,-5.6600,3.8500,9.4259,0.1789,0.1931,-1.9090,37.94,-55.81,244.63,-7.7567,-0.3590,3.8257,8.6563
11,10,0,0,1,31.375,31375,-4.0200,-6.4800,3.7800,8.5111,0.2563,0.2465,-1.6461,28.81,-59.88,235.50,-7.2643,-1.1656,3.8197,8.2897
11,10,0,0,1,31.496,31496,-3.4800,-7.2300,3.9900,8.9612,-0.0098,0.1276,-0.4287,19.94,-62.31,226.88,-6.7656,-1.9647,3.8421,8.0247
11,10,0,0,1,31.617,31617,-3.9500,-8.2700,4.4900,10.2057,0.2563,0.0949,-0.8519,17.19,-63.13,223.75,-6.3946,-2.7956,3.9275,8.0082
11,10,0,0,1,31.738,31738,-1.0200,-7.6900,4.0800,8.7649,0.3043,0.1658,-1.2741,8.44,-66.25,215.00,-5.6864,-3.4406,3.9476,7.7302
11,10,0,0,1,31.861,31861,-2.4600,-8.2000,3.7700,9.3544,-0.1822,0.0753,0.4156,7.13,-66.06,213.50,-5.2612,-4.0677,3.9242,7.7218
11,10,0,0,1,31.984,31984,-3.1600,-8.7400,4.1000,10.1579,-0.8628,0.3371,1.6570,7.63,-63.56,214.50,-4.9843,-4.6834,3.9474,7.8968
11,10,0,0,1,32.147,32147,-3.9900,-7.4300,5.7500,10.2072,-0.5585,-0.3643,1.2959,22.69,-53.38,233.69,-4.8533,-5.0453,4.1849,8.1562
11,10,0,0,1,32.268,32268,-5.3500,-2.5300,4.5000,7.4346,-0.4036,-0.2563,2.0813,39.13,-41.44,250.88,-4.9188,-4.7139,4.2264,8.0173
11,10,0,0,1,32.389,32389,-7.2800,-2.8500,5.1500,9.3618,-0.0262,-0.3752,2.1675,47.31,-33.81,261.25,-5.2299,-4.4683,4.3481,8.1378
11,10,0,0,1,32.510,32510,-8.4000,-1.1600,4.7400,9.7146,-0.5596,-0.6381,1.5501,56.75,-18.88,272.25,-5.6476,-4.0323,4.3998,8.2167
11,10,0,0,1,32.631,32631,-7.8400,0.9900,3.9700,8.8434,-0.6741,-0.3862,1.8141,62.00,2.88,280.19,-5.9365,-3.3705,4.3431,8.0911
11,10,0,0,1,32.754,32754,-9.0700,4.3900,3.1300,10.5515,-0.8727,-0.4276,2.1380,60.75,31.69,290.31,-6.3495,-2.3479,4.1833,7.9579
