participant,rep,equipment_code,exercise_code,quality_code,timestamp,timestamp_ms,accelX,accelY,accelZ,accelMag,gyroX,gyroY,gyroZ,roll,pitch,yaw,filteredX,filteredY,filteredZ,filteredMag
11,1,0,0,1,00.000,0,2.6900,9.1000,1.9700,9.6916,0.0109,-0.0305,0.1102,-16.38,78.25,345.69,2.6237,9.0842,1.9254,9.6496
11,1,0,0,1,00.121,121,2.9400,9.1500,2.0700,9.8311,0.0960,0.0949,0.1713,-17.19,77.94,346.13,2.6654,9.0929,1.9445,9.6730
11,1,0,0,1,00.243,243,3.7500,9.3500,2.0700,10.2844,0.1614,-0.0327,0.3894,-18.81,77.19,347.19,2.8083,9.1268,1.9610,9.7484
11,1,0,0,1,00.365,365,4.2900,8.6200,2.4600,9.9378,0.4527,-0.6512,0.5640,-21.63,73.94,351.69,3.0036,9.0600,2.0268,9.7577
11,1,0,0,1,00.490,490,3.5800,8.2700,2.9200,9.4729,0.0698,-0.3403,0.8258,-23.50,70.13,356.88,3.0795,8.9559,2.1445,9.7103
11,1,0,0,1,00.652,652,4.1800,8.0700,4.0500,9.9499,0.4429,-0.5301,0.5781,-25.88,65.00,1.94,3.2245,8.8392,2.3956,9.7091
11,1,0,0,1,00.773,773,4.5100,6.7900,4.4600,9.2917,0.4898,-1.2992,0.4821,-26.63,58.19,8.94,3.3939,8.5691,2.6676,9.5951
11,1,0,0,1,00.894,894,2.9000,7.0100,5.3600,9.2887,0.0862,-0.5192,0.6076,-24.00,53.31,13.63,3.3288,8.3637,3.0224,9.4956
11,1,0,0,1,01.016,1016,4.0700,6.8700,5.3200,9.5950,0.2683,-0.7101,0.8061,-25.38,50.75,18.31,3.4265,8.1669,3.3252,9.4602
11,1,0,0,1,01.142,1142,2.5200,5.8500,5.5900,8.4747,-0.0065,0.1680,0.1538,-26.31,47.44,22.44,3.3071,7.8616,3.6236,9.2667
11,1,0,0,1,01.264,1264,4.3000,6.5100,4.8900,9.2077,-0.1494,0.9632,-0.4571,-28.75,50.19,19.25,3.4379,7.6835,3.7905,9.2316
11,1,0,0,1,01.384,1384,6.4400,7.6000,5.3100,11.2885,-0.2083,0.4102,-0.3502,-29.31,54.81,14.69,3.8335,7.6725,3.9907,9.4598
11,1,0,0,1,01.505,1505,6.9800,7.0600,5.7000,11.4479,-0.0491,-0.1102,0.6949,-31.00,55.75,16.00,4.2481,7.5917,4.2160,9.6672
11,1,0,0,1,01.667,1667,5.5300,7.0300,5.8100,10.6657,0.3982,0.0022,0.9021,-35.31,50.19,22.75,4.4170,7.5177,4.4260,9.7783
11,1,0,0,1,01.788,1788,6.6900,5.3000,5.9100,10.3814,0.6545,0.1047,1.2337,-41.50,42.81,28.94,4.7166,7.2255,4.6216,9.7884
11,1,0,0,1,01.909,1909,6.5300,4.0100,5.8500,9.6407,0.7854,-0.3872,1.2588,-45.44,30.75,36.38,4.9555,6.8018,4.7834,9.6800
11,1,0,0,1,02.033,2033,6.5000,2.2100,5.9000,9.0523,0.6687,-0.2476,1.4159,-47.00,16.13,44.31,5.1591,6.1967,4.9306,9.4512
11,1,0,0,1,02.156,2156,6.8700,0.4700,6.1000,9.1993,0.5105,-0.2782,1.3330,-47.00,1.44,52.94,5.3845,5.4421,5.0847,9.1904
11,1,0,0,1,02.277,2277,5.6800,-1.2100,6.3700,8.6199,0.1844,-0.5411,0.8956,-43.56,-7.81,60.06,5.4234,4.5655,5.2540,8.8240
11,1,0,0,1,02.399,2399,6.1700,0.1400,7.9200,10.0407,0.0578,-0.2454,-0.5127,-40.44,-7.81,60.19,5.5218,3.9823,5.6054,8.8187
11,1,0,0,1,02.520,2520,6.4700,-1.5400,7.3600,9.9198,0.1036,-0.3000,0.4494,-39.19,-11.06,61.69,5.6468,3.2546,5.8366,8.7489
11,1,0,0,1,02.687,2687,4.3100,-1.5400,6.7000,8.1140,-0.6294,-0.2596,-0.7679,-38.13,-9.56,60.31,5.4706,2.6228,5.9503,8.4978
11,1,0,0,1,02.823,2823,5.2400,0.3500,6.8900,8.6633,-0.5367,0.4571,-1.4355,-38.31,2.25,53.94,5.4402,2.3233,6.0742,8.4788
11,2,0,0,1,02.948,2948,6.0300,2.4800,6.1200,8.9424,-1.0254,0.7363,-1.9973,-41.63,17.06,46.06,5.5179,2.3440,6.0802,8.5388
11,2,0,0,1,03.069,3069,6.9500,5.1800,6.4300,10.7926,-0.7712,-0.0087,-1.9406,-37.56,34.13,33.88,5.7067,2.7177,6.1263,8.8025
11,2,0,0,1,03.189,3189,3.6700,6.4900,6.5700,9.9375,-1.0396,-0.6207,-1.3286,-28.75,43.88,27.06,5.4383,3.2148,6.1848,8.8409
11,2,0,0,1,03.310,3310,2.7500,7.0300,5.9200,9.5932,-0.9152,0.5411,-1.1377,-23.38,52.19,22.25,5.0840,3.7175,6.1499,8.8027
11,2,0,0,1,03.431,3431,3.1900,8.6000,4.0600,10.0309,-0.9905,1.2926,-1.4334,-19.63,63.00,10.88,4.8344,4.3609,5.8745,8.7692
11,2,0,0,1,03.552,3552,3.3700,10.0400,2.7600,10.9442,-0.8203,1.0319,-0.6981,-17.00,72.88,1.06,4.6415,5.1093,5.4641,8.8036
11,2,0,0,1,03.715,3715,2.3200,10.1200,1.3400,10.4686,-0.2836,1.3494,-0.8356,-14.19,79.75,347.81,4.3356,5.7696,4.9206,8.7348
11,2,0,0,1,03.840,3840,2.5400,9.3700,1.2800,9.7922,0.0360,1.3199,-0.5531,-9.56,82.00,333.56,4.0989,6.2440,4.4409,8.6897
11,2,0,0,1,03.961,3961,3.7900,10.5700,1.0200,11.2752,-0.0218,-0.7014,-0.4712,-6.75,83.19,328.63,4.0582,6.8141,3.9901,8.8782
11,2,0,0,1,04.083,4083,0.9100,9.1500,2.1200,9.4364,0.3142,-1.5730,0.1353,-5.44,80.25,336.56,3.6434,7.1219,3.7437,8.8323
11,2,0,0,1,04.210,4210,0.9000,11.5000,2.1500,11.7338,0.2007,-0.7418,0.8912,-6.69,78.63,345.31,3.2819,7.6988,3.5337,9.0845
11,2,0,0,1,04.332,4332,3.2400,7.7100,3.4700,9.0544,0.8432,-0.5214,1.4061,-15.94,72.25,356.69,3.2764,7.7003,3.5253,9.0805
11,2,0,0,1,04.453,4453,2.6600,8.8700,3.8700,10.0364,0.2291,-0.3305,1.0832,-22.06,66.69,6.44,3.1951,7.8544,3.5707,9.2006
11,2,0,0,1,04.573,4573,6.5300,7.5800,3.1200,10.4801,0.6109,0.7767,1.4704,-32.13,63.81,13.31,3.6346,7.8183,3.5113,9.3094
11,2,0,0,1,04.735,4735,4.8300,6.7100,4.5300,9.4273,0.7505,-2.5318,0.5629,-33.50,51.06,21.19,3.7921,7.6722,3.6455,9.3023
11,2,0,0,1,04.863,4863,1.8200,7.0200,7.1200,10.1630,0.2640,-0.1593,1.4203,-29.81,41.63,29.44,3.5322,7.5863,4.1034,9.3202
11,2,0,0,1,04.984,4984,7.2300,3.3100,6.8900,10.5215,1.0723,0.5923,1.2632,-40.25,31.19,37.50,4.0195,7.0228,4.4706,9.2446
11,2,0,0,1,05.104,5104,7.5100,3.6000,6.2900,10.4367,1.0603,-1.1541,1.0712,-42.19,17.00,43.94,4.4795,6.5717,4.7103,9.2434
11,2,0,0,1,05.225,5225,1.8000,1.6000,7.3300,7.7155,0.7789,0.6589,0.5454,-38.13,4.69,46.94,4.1264,5.9166,5.0556,8.8086
11,2,0,0,1,05.346,5346,8.2000,-0.1800,6.6100,10.5340,0.8072,0.1167,0.5596,-43.50,-4.44,49.25,4.6632,5.1132,5.2604,8.6926
11,2,0,0,1,05.468,5468,5.4800,-2.1200,7.5900,9.5986,0.6927,-0.5280,0.7952,-40.19,-13.44,51.88,4.7708,4.1601,5.5674,8.4299
11,2,0,0,1,05.594,5594,3.8700,-3.4000,6.4900,8.2860,0.6425,-0.1145,1.0068,-35.88,-22.63,58.06,4.6521,3.1638,5.6889,8.0010
11,2,0,0,1,05.756,5756,4.9900,-2.1500,6.5600,8.5180,-0.3120,0.2825,-1.1421,-37.13,-22.50,58.50,4.6966,2.4636,5.8037,7.8620
11,2,0,0,1,05.877,5877,5.1700,-1.8300,6.5700,8.5582,-0.5138,0.6501,-0.9687,-42.44,-15.31,53.00,4.7590,1.8978,5.9047,7.8176
11,3,0,0,1,05.998,5998,7.1200,0.6800,5.3800,8.9499,-0.9032,0.4374,-1.7431,-48.06,0.69,44.50,5.0701,1.7373,5.8356,7.9233
11,3,0,0,1,06.120,6120,7.4100,1.7200,6.2000,9.8136,-0.4603,-0.4178,-1.5555,-46.06,17.44,35.56,5.3785,1.7351,5.8836,8.1581
11,3,0,0,1,06.245,6245,3.9500,4.4600,6.8000,9.0407,-1.0679,-1.0330,-1.3548,-36.50,30.25,28.50,5.1902,2.0941,6.0043,8.2083
11,3,0,0,1,06.367,6367,1.8100,5.8400,7.4400,9.6299,-1.1890,0.9752,-2.0224,-27.75,44.56,17.75,4.7448,2.5877,6.1935,8.2201
11,3,0,0,1,06.489,6489,8.2100,9.0400,3.5600,12.7200,-0.7549,1.2959,-1.1017,-29.00,58.56,8.00,5.2014,3.4380,5.8465,8.5473
11,3,0,0,1,06.609,6609,3.6100,7.0900,4.6200,9.2003,-0.2280,-1.0559,-1.1541,-20.81,62.63,0.63,4.9917,3.9192,5.6849,8.5203
11,3,0,0,1,06.772,6772,1.3600,9.8700,2.8800,10.3712,-1.2817,1.0374,-0.4069,-11.81,71.31,353.88,4.5131,4.7034,5.3153,8.4109
11,3,0,0,1,06.898,6898,2.4500,9.8800,1.8600,10.3478,-0.5738,1.0472,-0.8847,-9.94,79.31,344.75,4.2413,5.3855,4.8599,8.4031
11,3,0,0,1,07.019,7019,2.6600,10.0400,1.7400,10.5311,-0.2051,-0.1058,-0.7636,-4.69,82.63,336.50,4.0329,5.9989,4.4488,8.4878
11,3,0,0,1,07.139,7139,0.8600,10.1900,1.7300,10.3715,-0.1113,-0.4232,0.3327,-3.13,83.69,338.06,3.6148,6.5512,4.0905,8.5274
11,3,0,0,1,07.260,7260,0.4500,9.8700,1.7000,10.0254,0.0524,-0.0055,0.0578,-4.31,83.00,340.38,3.1978,6.9885,3.7755,8.5627
11,3,0,0,1,07.381,7381,1.4600,9.7500,1.5100,9.9737,0.2923,0.2651,0.5672,-7.63,81.94,342.38,2.9688,7.3524,3.4770,8.6580
11,3,0,0,1,07.504,7504,3.1500,9.5800,1.8300,10.2493,0.2902,0.2563,0.9665,-13.06,79.75,345.25,2.9926,7.6459,3.2600,8.8342
11,3,0,0,1,07.625,7625,3.6800,8.1400,2.8800,9.3860,0.5967,0.1102,0.9708,-19.88,76.56,350.31,3.0832,7.7110,3.2099,8.9034
11,3,0,0,1,07.787,7787,6.0700,8.6400,2.6500,10.8866,0.3785,0.2825,1.5239,-31.00,72.44,358.94,3.4768,7.8335,3.1361,9.1261
11,3,0,0,1,07.911,7911,6.6100,6.7100,2.9100,9.8582,0.3458,-0.0087,1.5577,-40.63,67.50,6.94,3.8897,7.6854,3.1063,9.1567
11,3,0,0,1,08.032,8032,7.3900,6.2600,3.2900,10.2286,0.1876,-0.6469,1.8697,-47.69,59.94,16.31,4.3509,7.4976,3.1305,9.2165
11,3,0,0,1,08.152,8152,5.1800,5.4300,3.9100,8.4620,0.5203,0.0098,0.4549,-51.50,49.63,23.81,4.4602,7.2251,3.2332,9.0857
11,3,0,0,1,08.273,8273,9.8700,4.1800,3.6900,11.3360,0.1996,-1.0319,0.9512,-56.06,39.69,29.88,5.1731,6.8239,3.2934,9.1745
11,3,0,0,1,08.394,8394,6.4800,2.0500,6.2000,9.1996,0.3262,-1.3723,0.7156,-49.06,26.06,34.38,5.3453,6.1948,3.6764,8.9701
11,3,0,0,1,08.516,8516,4.1500,2.5100,7.2700,8.7393,0.3611,-1.4399,-0.1069,-40.69,17.88,38.94,5.1878,5.7092,4.1500,8.7596
11,3,0,0,1,08.637,8637,8.7600,2.1600,5.8900,10.7748,0.1887,0.6523,1.0788,-41.56,13.50,41.69,5.6585,5.2415,4.3793,8.8696
11,3,0,0,1,08.803,8803,6.6400,-0.1700,7.6200,10.1086,0.4320,-0.1985,1.1541,-41.06,0.44,48.25,5.7878,4.5284,4.8063,8.7810
11,3,0,0,1,08.924,8924,7.9100,-1.7500,6.9700,10.6870,0.8029,0.3305,1.6504,-42.06,-9.38,53.00,6.0675,3.7011,5.0914,8.7427
11,3,0,0,1,09.045,9045,6.9600,-2.4100,7.2700,10.3490,0.1145,-0.8705,1.2032,-39.38,-15.88,56.50,6.1851,2.8958,5.3785,8.6931
11,3,0,0,1,09.166,9166,4.1600,-2.4400,8.5700,9.8338,-0.2858,-1.2185,0.0065,-30.56,-15.88,59.31,5.9182,2.1927,5.7991,8.5710
11,3,0,0,1,09.287,9287,2.1400,-3.2100,8.0100,8.8907,0.4636,0.1789,1.1116,-26.75,-17.88,61.13,5.4204,1.4807,6.0904,8.2865
11,4,0,0,1,09.410,9410,5.4500,-1.8000,7.9800,9.8297,0.0022,1.3668,-0.4952,-32.94,-19.19,60.19,5.4243,1.0484,6.3394,8.4089
11,4,0,0,1,09.531,9531,7.3000,-4.3300,6.7900,10.8694,0.0153,0.7679,-0.3480,-39.38,-22.63,62.06,5.6714,0.3397,6.3988,8.5572
11,4,0,0,1,09.655,9655,7.7200,-2.2100,7.3300,10.8725,-0.1985,-0.6207,0.0698,-41.31,-15.38,56.63,5.9414,0.0037,6.5215,8.8221
11,4,0,0,1,09.818,9818,2.3900,0.8300,6.9500,7.3962,-1.2119,0.2258,-1.1672,-35.63,-1.56,51.63,5.4734,0.1126,6.5780,8.5581
11,4,0,0,1,09.939,9939,6.6900,2.4300,6.8600,9.8854,-1.1170,0.8203,-1.6482,-39.94,12.38,46.13,5.6337,0.4180,6.6151,8.6990
11,4,0,0,1,10.063,10063,7.0300,4.2400,7.0300,10.8083,-1.0756,0.4102,-1.3799,-39.81,29.06,37.94,5.8177,0.9216,6.6698,8.8984
11,4,0,0,1,10.184,10184,5.3500,6.5700,6.2000,10.4989,-0.8748,0.5629,-1.2894,-36.44,43.75,29.69,5.7561,1.6659,6.6079,8.9203
11,4,0,0,1,10.307,10307,5.3200,7.4500,4.5500,10.2229,-0.6305,0.8050,-1.0516,-33.63,56.00,20.88,5.6986,2.4281,6.3367,8.8614
11,4,0,0,1,10.428,10428,5.4600,8.0000,4.3300,10.6095,-0.4571,0.2989,-1.0276,-29.50,63.63,13.38,5.6672,3.1623,6.0723,8.8876
11,4,0,0,1,10.550,10550,4.2600,8.2900,3.5300,9.9666,-0.4734,0.2760,-0.7832,-24.44,68.69,7.06,5.4817,3.8380,5.7373,8.8146
11,4,0,0,1,10.670,10670,4.0000,9.3500,3.1700,10.6523,-0.3011,0.0840,-0.8563,-19.50,72.69,1.25,5.2865,4.5644,5.3990,8.8278
11,4,0,0,1,10.833,10833,2.8200,9.1600,3.1300,10.0824,-0.1331,0.0982,-0.1778,-16.63,74.13,358.56,4.9615,5.1700,5.1000,8.7951
11,4,0,0,1,10.958,10958,3.4300,9.5100,2.9200,10.5229,0.1004,0.4036,0.1898,-17.31,74.75,357.19,4.7597,5.7419,4.8127,8.8761
11,4,0,0,1,11.080,11080,4.2200,8.4600,3.0900,9.9463,0.3185,-0.0796,0.8039,-21.75,72.88,359.75,4.6885,6.1000,4.5857,8.9567
11,4,0,0,1,11.200,11200,3.6300,8.4600,3.2400,9.7594,0.3163,-0.3054,0.3763,-24.50,69.56,3.81,4.5491,6.4110,4.4084,9.0127
11,4,0,0,1,11.321,11321,5.6700,8.0400,3.7000,10.5110,0.2465,-0.0971,1.1846,-29.88,66.00,10.50,4.6968,6.6257,4.3150,9.1967
11,4,0,0,1,11.442,11442,5.6900,7.1200,4.4100,10.1251,0.5760,-0.1702,0.9283,-35.00,60.88,15.94,4.8277,6.6908,4.3275,9.3167
11,4,0,0,1,11.563,11563,7.2600,6.1400,4.8000,10.6512,0.4298,-0.3349,0.8836,-40.56,53.31,23.19,5.1482,6.6182,4.3898,9.4644
11,4,0,0,1,11.684,11684,5.1200,4.3700,5.2500,8.5366,0.6490,-0.1702,1.7911,-44.06,43.88,29.50,5.1445,6.3220,4.5032,9.3119
11,4,0,0,1,11.846,11846,6.4200,2.7500,4.6700,8.4017,0.7396,0.5498,1.8686,-51.69,34.50,35.81,5.3125,5.8513,4.5251,9.1070
11,4,0,0,1,11.971,11971,5.9000,3.5800,4.8500,8.4350,0.2749,-0.1549,0.1593,-54.81,26.25,39.88,5.3900,5.5520,4.5679,8.9857
11,4,0,0,1,12.092,12092,5.9200,2.7600,5.1900,8.3427,0.2400,-0.4102,0.5040,-54.38,14.63,46.63,5.4598,5.1841,4.6499,8.8491
11,4,0,0,1,12.213,12213,5.4200,1.8300,6.1500,8.3993,0.0807,-0.7243,-0.9425,-51.19,5.25,51.63,5.4546,4.7421,4.8476,8.7028
11,4,0,0,1,12.334,12334,7.8500,-0.9300,6.6200,10.3108,0.5051,0.0829,0.3349,-48.75,-2.00,55.25,5.7702,3.9947,5.0811,8.6643
11,4,0,0,1,12.455,12455,6.7400,-0.9900,6.7900,9.6183,0.1473,-1.7966,-0.1004,-43.13,-3.25,54.31,5.8980,3.3378,5.3063,8.6072
11,4,0,0,1,12.583,12583,1.8000,-0.9000,6.8900,7.1779,0.0862,-0.4014,0.8476,-33.19,-1.88,54.44,5.3580,2.7794,5.5150,8.1761
11,5,0,0,1,12.704,12704,4.5900,1.1700,7.7100,9.0488,0.5683,1.3712,0.4887,-37.81,-2.69,54.44,5.2568,2.5673,5.8043,8.2410
11,5,0,0,1,12.866,12866,7.2700,-0.4800,7.1300,10.1941,0.2465,0.0676,0.4789,-43.63,-12.63,57.50,5.5221,2.1657,5.9790,8.4221
11,5,0,0,1,12.987,12987,6.3000,-0.9800,8.1100,10.3161,0.0349,-0.5301,-1.1432,-41.63,-14.69,56.81,5.6246,1.7512,6.2598,8.5958
11,5,0,0,1,13.112,13112,6.8100,-5.3100,5.9200,10.4699,0.8203,0.7483,1.6199,-41.44,-21.75,60.00,5.7808,0.8207,6.2150,8.5275
11,5,0,0,1,13.235,13235,5.8400,-1.0200,5.2700,7.9321,0.2662,0.2923,0.9599,-44.94,-23.00,60.19,5.7886,0.5782,6.0905,8.4224
11,5,0,0,1,13.356,13356,3.5300,-1.6500,5.0800,6.4023,-0.7603,-0.3272,-2.0595,-45.00,-19.19,57.94,5.4910,0.2845,5.9573,8.1069
11,5,0,0,1,13.477,13477,7.2800,-0.6500,6.8000,9.9830,-0.9807,0.1473,-1.3984,-46.38,-4.44,50.75,5.7267,0.1614,6.0684,8.3454
11,5,0,0,1,13.598,13598,6.2200,3.0500,6.2500,9.3302,-0.7483,0.3458,-1.9919,-46.69,15.94,40.56,5.7917,0.5420,6.0923,8.4234
11,5,0,0,1,13.719,13719,7.1400,3.4000,5.9600,9.9026,-0.7145,0.6250,-1.3254,-45.69,32.19,31.63,5.9694,0.9186,6.0749,8.5663
11,5,0,0,1,13.886,13886,6.0600,5.9600,5.4800,10.1131,-0.5138,0.4102,-1.3079,-38.44,50.31,18.50,5.9813,1.5830,5.9965,8.6163
11,5,0,0,1,14.007,14007,5.1900,7.0900,4.3700,9.8133,-0.4516,0.1451,-0.8279,-32.88,59.19,11.38,5.8771,2.3087,5.7821,8.5617
11,5,0,0,1,14.128,14128,4.7600,9.0700,4.0100,11.0001,-0.8116,0.6709,-1.1410,-26.88,66.56,2.81,5.7299,3.1996,5.5486,8.5940
11,5,0,0,1,14.249,14249,7.2200,7.7000,2.8400,10.9309,0.0971,0.0251,0.4963,-28.94,71.19,3.13,5.9262,3.7927,5.1917,8.7440
11,5,0,0,1,14.370,14370,1.0800,7.4600,4.1500,8.6047,-0.3447,-0.1549,-0.5869,-21.88,70.25,356.69,5.2876,4.2759,5.0544,8.4729
11,5,0,0,1,14.492,14492,3.6700,9.3800,2.0700,10.2829,-0.2018,0.4200,-0.8443,-23.19,74.25,357.94,5.0745,4.9485,4.6612,8.4832
11,5,0,0,1,14.618,14618,4.4700,9.4700,2.2700,10.7152,-0.0545,0.4560,-0.2160,-20.88,76.06,352.06,4.9948,5.5443,4.3461,8.6357
11,5,0,0,1,14.739,14739,4.2700,8.8600,2.8500,10.2399,0.1102,0.0436,0.2771,-19.88,76.06,349.06,4.8993,5.9812,4.1489,8.7745
11,5,0,0,1,14.901,14901,5.8100,7.4500,2.5200,9.7780,0.1080,-0.2051,0.3316,-27.94,74.19,358.63,5.0193,6.1748,3.9343,8.8769
11,5,0,0,1,15.022,15022,3.9900,8.5900,2.8800,9.8996,0.1069,-0.5072,1.3232,-28.88,71.75,1.13,4.8837,6.4931,3.7953,8.9674
11,5,0,0,1,15.144,15144,5.0000,8.3400,2.6300,10.0734,0.0175,-1.0865,-1.2075,-32.56,67.25,11.31,4.8990,6.7364,3.6418,9.0908
11,5,0,0,1,15.269,15269,6.9200,7.5100,3.3300,10.7413,0.1058,-0.7418,0.6720,-32.94,62.94,17.00,5.1653,6.8384,3.6007,9.2956
11,5,0,0,1,15.391,15391,2.2600,7.6100,4.0800,8.9256,0.1385,-1.5293,0.3731,-28.88,57.75,20.88,4.7825,6.9401,3.6639,9.1902
11,5,0,0,1,15.511,15511,5.0300,6.9800,5.2700,10.0893,-0.1124,1.0090,1.1268,-31.75,55.38,24.88,4.8151,6.9453,3.8755,9.2974
11,5,0,0,1,15.632,15632,7.1100,6.1300,5.2500,10.7560,1.0450,-0.0960,0.1364,-38.00,52.94,27.06,5.1175,6.8379,4.0566,9.4552
11,5,0,0,1,15.753,15753,7.0300,4.2100,5.5200,9.8801,0.4014,1.0821,1.6864,-43.38,45.44,29.63,5.3695,6.4916,4.2495,9.4356
11,5,0,0,1,15.915,15915,4.5700,3.4900,6.9900,9.0512,1.1345,-1.7933,0.9927,-42.88,31.38,34.88,5.2642,6.0961,4.6106,9.2807
11,5,0,0,1,16.042,16042,4.3400,4.7600,5.7800,8.6546,0.3272,0.8258,1.3777,-43.69,21.31,41.63,5.1424,5.9200,4.7647,9.1757
11,5,0,0,1,16.162,16162,9.0200,1.1400,5.2000,10.4738,0.7385,-0.7887,0.5051,-50.50,6.81,48.31,5.6533,5.2901,4.8221,9.1213
11,5,0,0,1,16.283,16283,4.2700,0.0400,8.0600,9.1213,0.2313,-0.7909,1.3450,-42.44,-2.00,50.94,5.4711,4.5983,5.2487,8.8671
11,5,0,0,1,16.404,16404,6.0200,-3.5100,5.6200,8.9524,0.4734,0.2258,0.7243,-41.31,-14.69,60.81,5.5434,3.5298,5.2977,8.4412
11,5,0,0,1,16.525,16525,7.2100,-1.1500,6.1500,9.5462,0.0665,0.2662,0.7330,-42.94,-12.50,57.69,5.7630,2.9131,5.4100,8.4242
11,6,0,0,1,16.663,16663,4.2700,-1.8000,9.1500,10.2565,0.0545,-1.0963,-0.5018,-38.31,-10.25,55.50,5.5663,2.2921,5.9028,8.4309
11,6,0,0,1,16.784,16784,5.5200,-1.9600,7.5300,9.5401,-0.2542,-0.2487,0.0993,-34.75,-11.88,59.69,5.5602,1.7318,6.1172,8.4460
11,6,0,0,1,16.946,16946,6.8800,-1.6400,7.2300,10.1142,-0.4036,0.6469,-0.7887,-37.56,-7.69,55.00,5.7341,1.2874,6.2639,8.5891
11,6,0,0,1,17.067,17067,7.2900,0.5400,6.4800,9.7686,-0.3742,-0.0022,0.6741,-41.81,1.25,49.00,5.9391,1.1889,6.2924,8.7339
11,6,0,0,1,17.195,17195,1.4100,0.1200,7.0600,7.2004,-0.5890,-0.2803,-1.8599,-37.69,2.31,51.94,5.3423,1.0481,6.3935,8.3974
11,6,0,0,1,17.315,17315,7.2300,3.3700,5.8700,9.9039,-0.8225,1.8893,-1.3832,-43.69,18.25,41.06,5.5910,1.3541,6.3245,8.5494
11,6,0,0,1,17.436,17436,8.8300,4.6600,5.4400,11.3701,-0.5803,1.1519,-1.0047,-47.69,38.69,30.25,6.0179,1.7897,6.2080,8.8293
11,6,0,0,1,17.557,17557,8.4900,6.5200,4.7900,11.7275,-0.5280,0.1734,-1.6417,-43.19,53.13,20.25,6.3436,2.4130,6.0211,9.0729
11,6,0,0,1,17.678,17678,5.4700,6.8100,4.3000,9.7359,-0.5716,-0.4571,-1.3406,-34.13,60.06,12.69,6.2285,2.9924,5.7943,9.0179
11,6,0,0,1,17.799,17799,3.0000,9.1400,3.4200,10.2096,-0.3382,0.3840,-2.1948,-24.00,65.75,3.94,5.8031,3.8025,5.4814,8.8420
11,6,0,0,1,17.961,17961,4.6100,10.0400,2.1800,11.2608,-0.2705,0.2858,-1.6253,-18.81,72.88,354.94,5.6459,4.6245,5.0464,8.8729
11,6,0,0,1,18.087,18087,3.7900,9.3300,3.0500,10.5221,-0.4985,-0.3872,0.1342,-13.75,74.63,349.81,5.4013,5.2445,4.7833,8.9196
11,6,0,0,1,18.208,18208,0.8300,9.0500,2.7400,9.4920,-0.5258,-0.0076,0.1244,-10.19,77.25,347.50,4.7989,5.7460,4.5141,8.7420
11,6,0,0,1,18.328,18328,1.1100,9.3400,2.0100,9.6181,-0.3600,0.7669,-0.5389,-8.38,80.56,342.56,4.3128,6.2196,4.1841,8.6481
11,6,0,0,1,18.449,18449,2.0200,10.1300,1.3700,10.4199,0.1124,0.3218,-0.6316,-7.13,82.75,338.19,4.0107,6.7349,3.8133,8.7170
11,6,0,0,1,18.570,18570,1.3500,9.1000,2.2400,9.4684,-0.2258,-0.2869,1.1737,-6.50,82.38,337.31,3.6601,7.0466,3.6060,8.7208
11,6,0,0,1,18.692,18692,0.9000,9.9600,1.4100,10.0995,0.7570,-0.1364,-1.0712,-7.81,81.38,340.56,3.2964,7.4305,3.3166,8.7794
11,6,0,0,1,18.813,18813,4.6500,8.8200,1.6500,10.1063,-0.3229,-0.3785,1.6810,-14.50,79.25,349.38,3.4747,7.6136,3.0970,8.9236
11,6,0,0,1,18.979,18979,5.3900,8.7800,2.7900,10.6735,0.5018,-0.3163,2.0606,-21.75,76.38,358.13,3.7271,7.7673,3.0565,9.1414
11,6,0,0,1,19.100,19100,4.2000,8.8200,3.1500,10.2643,0.5443,-0.7112,1.4148,-28.63,69.56,7.94,3.7894,7.9060,3.0688,9.2888
11,6,0,0,1,19.221,19221,5.8500,7.3100,3.6800,10.0599,0.2760,-0.4287,1.4955,-37.25,61.50,20.63,4.0610,7.8275,3.1494,9.3637
11,6,0,0,1,19.342,19342,5.8100,6.1100,4.0900,9.3710,0.6796,-0.2869,1.0886,-42.19,54.13,27.50,4.2914,7.6011,3.2733,9.3225
11,6,0,0,1,19.463,19463,7.0200,4.5500,4.5300,9.5133,0.0535,-0.2225,1.3297,-47.63,44.81,35.44,4.6510,7.1991,3.4389,9.2350
11,6,0,0,1,19.584,19584,8.2200,4.5900,4.3300,10.3627,0.2771,-0.7887,0.4123,-50.13,36.31,43.50,5.1213,6.8553,3.5563,9.2666
11,6,0,0,1,19.705,19705,3.4300,2.3500,6.6700,7.8598,0.3262,-0.3185,0.7330,-45.44,28.63,44.38,4.8984,6.2616,3.9666,8.8846
11,6,0,0,1,19.831,19831,3.0300,5.2700,3.7500,7.1426,-0.2411,-1.0690,-0.7854,-42.81,29.69,44.81,4.6522,6.1309,3.9381,8.6452
11,6,0,0,1,19.993,19993,3.3300,5.1900,5.8300,8.4861,-0.9130,0.5476,-1.0537,-38.25,34.44,42.00,4.4780,6.0069,4.1874,8.5831
11,6,0,0,1,20.114,20114,4.7800,4.6300,5.4900,8.6270,-0.1058,1.7191,-0.8454,-43.25,42.31,41.38,4.5178,5.8255,4.3590,8.5643
11,7,0,0,1,20.235,20235,9.6700,6.6800,3.1900,12.1782,-0.1145,1.2152,-0.6840,-47.31,57.38,31.88,5.1967,5.9381,4.2050,8.9414
11,7,0,0,1,20.356,20356,5.2300,6.2100,4.3100,9.1920,-0.0218,-0.1374,-1.5315,-41.44,61.88,23.88,5.2011,5.9739,4.2188,8.9743
11,7,0,0,1,20.477,20477,4.9300,7.2700,2.6100,9.1635,-0.4014,1.2632,-0.5716,-36.56,69.00,15.38,5.1654,6.1447,4.0068,8.9718
11,7,0,0,1,20.603,20603,5.9200,8.5300,1.6600,10.5149,-0.0175,0.3054,-1.3439,-33.63,76.19,7.69,5.2648,6.4590,3.6976,9.1164
11,7,0,0,1,20.725,20725,5.0800,7.7000,2.1900,9.4812,-0.6490,0.4767,-0.7636,-26.56,79.13,359.38,5.2405,6.6226,3.4989,9.1413
11,7,0,0,1,20.845,20845,3.9000,10.1600,0.8000,10.9122,0.0851,0.0065,-0.6207,-21.19,83.44,353.69,5.0638,7.0887,3.1433,9.2613
11,7,0,0,1,21.007,21007,3.8800,7.7800,2.3700,9.0111,-0.6076,-0.0164,-0.2825,-14.81,81.81,346.63,4.9078,7.1798,3.0414,9.2134
11,7,0,0,1,21.128,21128,2.5400,9.4200,1.8000,9.9211,0.2607,-0.2956,-0.0818,-11.38,83.63,345.25,4.5958,7.4750,2.8778,9.2347
11,7,0,0,1,21.255,21255,1.2100,8.5000,2.0800,8.8341,-0.2280,0.3643,0.9479,-12.88,83.06,347.63,4.1496,7.6101,2.7727,9.1006
11,7,0,0,1,21.376,21376,3.6400,9.7800,1.0700,10.4901,0.5127,0.3109,0.9305,-17.88,84.38,349.31,4.0825,7.8960,2.5483,9.2470
11,7,0,0,1,21.497,21497,1.8400,7.7900,2.8900,8.5101,0.8399,-0.7210,0.3054,-19.56,78.38,352.00,3.7870,7.8820,2.5933,9.1210
11,7,0,0,1,21.618,21618,2.2200,9.5100,2.2100,10.0126,0.1418,-0.3022,0.8890,-23.94,75.13,359.75,3.5805,8.0966,2.5428,9.2109
11,7,0,0,1,21.739,21739,6.2800,7.5700,2.1700,10.0723,0.3076,0.5291,1.2828,-34.69,72.69,8.50,3.9362,8.0272,2.4937,9.2816
11,7,0,0,1,21.860,21860,6.5300,6.8600,3.0000,9.9348,0.6523,-0.0295,0.8454,-40.06,68.75,10.81,4.2780,7.8734,2.5604,9.3192
11,7,0,0,1,22.022,22022,7.4700,5.6500,3.2300,9.9074,0.1571,-0.1364,1.3701,-48.88,60.81,20.50,4.6986,7.5804,2.6486,9.3035
11,7,0,0,1,22.147,22147,7.5200,5.0900,3.4100,9.6998,0.1996,-0.1233,1.1148,-53.81,54.13,26.44,5.0704,7.2522,2.7490,9.2661
11,7,0,0,1,22.268,22268,8.0700,3.6800,4.0900,9.7671,0.1658,-0.1811,1.1606,-59.19,43.50,34.31,5.4657,6.7815,2.9257,9.1881
11,7,0,0,1,22.389,22389,9.1400,2.9100,4.3400,10.5282,0.1974,-0.5072,1.0679,-62.00,29.94,41.94,5.9499,6.2713,3.1121,9.1878
11,7,0,0,1,22.510,22510,7.7000,1.2900,4.4400,8.9815,0.2553,-0.6076,0.9828,-60.63,14.06,48.31,6.1805,5.6149,3.2870,8.9739
11,7,0,0,1,22.631,22631,7.0400,1.0600,4.9600,8.6768,0.3687,-0.0993,0.7799,-58.56,4.56,52.06,6.2938,5.0147,3.5075,8.7784
11,7,0,0,1,22.753,22753,8.2800,-0.8900,5.0700,9.7496,0.3480,0.2073,0.5312,-59.69,-6.31,56.31,6.5555,4.2366,3.7134,8.6436
11,7,0,0,1,22.874,22874,7.9800,-1.2100,5.3600,9.6889,0.2094,-0.2313,0.4189,-59.00,-11.88,57.81,6.7432,3.5189,3.9304,8.5616
11,7,0,0,1,23.040,23040,7.9200,-1.2600,5.4300,9.6850,0.0316,-0.2956,0.5291,-55.13,-16.81,61.44,6.8983,2.8891,4.1280,8.5425
11,7,0,0,1,23.161,23161,7.7000,-1.8200,5.4300,9.5962,0.3403,0.3611,0.8628,-54.19,-23.31,64.56,7.0039,2.2686,4.2996,8.5257
11,7,0,0,1,23.281,23281,7.8900,-3.2500,4.8100,9.7954,0.2825,-0.3425,0.8301,-51.31,-34.50,71.38,7.1207,1.5414,4.3668,8.4941
11,7,0,0,1,23.402,23402,6.8200,-3.6200,6.1400,9.8649,0.0175,-0.7352,0.3480,-45.63,-35.13,73.81,7.0811,0.8613,4.6005,8.4881
11,7,0,0,1,23.523,23523,6.4300,-5.4300,5.8100,10.2267,0.2553,-0.1734,0.6938,-40.81,-39.13,77.69,6.9953,0.0322,4.7599,8.4612
11,7,0,0,1,23.644,23644,5.8900,-3.7800,5.8100,9.0960,0.0764,-0.0829,1.0668,-39.69,-38.75,78.31,6.8496,-0.4701,4.8982,8.4339
11,7,0,0,1,23.766,23766,5.3600,-5.3100,6.1000,9.7024,0.0687,-0.3414,0.0338,-36.19,-41.75,81.75,6.6533,-1.1079,5.0566,8.4299
11,7,0,0,1,23.892,23892,5.1500,-6.8700,4.9100,9.8908,0.1113,-0.2062,0.5836,-31.44,-44.94,85.75,6.4552,-1.8672,5.0373,8.3983
11,8,0,0,1,24.054,24054,7.6500,-5.8100,5.0000,10.8295,0.1080,1.0832,0.7669,-39.94,-41.69,74.44,6.6127,-2.3868,5.0324,8.6457
11,8,0,0,1,24.175,24175,5.9700,-3.6100,5.1000,8.6419,-0.8083,-1.0014,-0.7221,-40.25,-36.63,74.94,6.5280,-2.5480,5.0413,8.6326
11,8,0,0,1,24.296,24296,3.1500,-3.5200,6.6500,8.1569,-0.7341,-0.6294,-0.8999,-38.19,-24.00,67.31,6.0828,-2.6760,5.2533,8.4711
11,8,0,0,1,24.417,24417,4.9600,-0.3700,5.9100,7.7244,-1.1661,0.5880,-1.5850,-41.75,-9.13,59.81,5.9349,-2.3722,5.3398,8.3285
11,8,0,0,1,24.543,24543,7.0200,2.0600,6.5600,9.8264,-0.9632,0.7439,-2.2591,-46.50,11.81,49.19,6.0779,-1.7881,5.5006,8.3901
11,8,0,0,1,24.665,24665,5.9500,4.0900,6.2700,9.5626,-0.7101,0.6534,-1.8882,-45.13,34.00,35.69,6.0610,-1.0135,5.6020,8.3154
11,8,0,0,1,24.786,24786,6.2000,6.7600,4.6500,10.2840,-0.9436,0.6501,-1.5424,-40.69,50.75,25.56,6.0793,0.0108,5.4765,8.1824
11,8,0,0,1,24.906,24906,5.9900,7.9000,4.0200,10.6982,-0.6087,0.3960,-1.5173,-34.56,62.00,16.56,6.0676,1.0504,5.2846,8.1145
11,8,0,0,1,25.068,25068,4.0800,9.3200,2.8400,10.5629,-0.4920,0.4352,-1.3177,-23.69,72.13,1.50,5.8057,2.1401,4.9625,7.9317
11,8,0,0,1,25.189,25189,3.7500,9.6400,2.6900,10.6878,-0.3960,0.5629,-0.9370,-16.94,76.56,351.00,5.5348,3.1284,4.6630,7.8844
11,8,0,0,1,25.315,25315,3.7500,9.7800,1.8300,10.6330,-0.3360,0.6141,-0.5258,-13.63,80.38,344.19,5.2996,4.0049,4.2897,7.9074
11,8,0,0,1,25.437,25437,2.6300,10.1200,1.4700,10.5590,0.1451,0.2880,-0.3153,-10.44,82.00,337.13,4.9478,4.8107,3.9181,7.9357
11,8,0,0,1,25.557,25557,2.6500,9.6100,1.9100,10.1500,0.0742,-0.3512,-0.0447,-10.63,80.69,337.81,4.6450,5.4432,3.6535,8.0344
11,8,0,0,1,25.678,25678,3.1100,9.4400,1.8300,10.1062,0.0109,0.0742,2.0213,-16.44,80.13,344.94,4.4427,5.9698,3.4132,8.1870
11,8,0,0,1,25.799,25799,5.7600,8.6500,2.2200,10.6268,0.3665,0.1909,1.1497,-27.69,78.38,354.19,4.6163,6.3230,3.2560,8.4789
11,8,0,0,1,25.921,25921,6.4900,7.7700,2.5000,10.4280,0.2160,-0.4821,1.2785,-35.69,74.06,2.75,4.8632,6.5137,3.1564,8.7202
11,8,0,0,1,26.083,26083,7.5200,6.7600,2.4700,10.4091,-0.0098,0.2291,1.8380,-46.00,68.81,14.88,5.2133,6.5462,3.0659,8.9124
11,8,0,0,1,26.208,26208,10.1600,5.8300,2.7400,12.0300,0.6185,-1.4792,0.6436,-52.56,58.94,24.06,5.8652,6.4518,3.0230,9.2284
11,8,0,0,1,26.329,26329,3.2200,4.2200,6.6100,8.4776,0.5389,-1.4835,0.2956,-44.31,38.63,29.38,5.5166,6.1577,3.4957,8.9761
11,8,0,0,1,26.450,26450,9.4300,4.5300,4.5300,11.4003,0.3938,0.0971,1.1236,-48.50,30.19,37.13,6.0323,5.9432,3.6320,9.2142
11,8,0,0,1,26.571,26571,6.2800,1.6900,6.9600,9.5256,0.6840,-0.9654,1.1530,-46.44,16.56,41.56,6.0649,5.3827,4.0705,9.0734
11,8,0,0,1,26.692,26692,7.0200,1.7600,6.4600,9.7010,0.4854,-0.4800,1.0668,-44.25,4.56,49.31,6.1908,4.9054,4.3854,9.0344
11,8,0,0,1,26.814,26814,5.4300,-1.0600,7.5900,9.3924,0.8061,0.3131,1.6384,-42.63,-8.50,55.56,6.0905,4.1193,4.8077,8.7850
11,8,0,0,1,26.935,26935,7.2700,-3.1900,6.3400,10.1600,0.7527,-0.0044,1.7791,-40.94,-25.56,66.63,6.2460,3.1561,5.0096,8.6063
11,8,0,0,1,27.101,27101,4.0500,-4.2100,6.6200,8.8290,0.1898,-1.2065,0.5280,-30.44,-32.19,71.94,5.9566,2.1854,5.2218,8.2173
11,8,0,0,1,27.222,27222,2.8800,-4.6600,6.6700,8.6313,0.0109,-0.4931,0.8203,-23.31,-33.13,74.56,5.5512,1.2834,5.4126,7.8587
11,8,0,0,1,27.342,27342,1.9100,-4.4300,6.4300,8.0385,-0.3349,-0.5018,-1.7148,-22.00,-30.56,71.75,5.0714,0.5305,5.5467,7.5343
11,8,0,0,1,27.463,27463,3.0100,-3.4600,7.1200,8.4691,-0.4538,0.8748,0.0687,-26.50,-25.81,64.88,4.7997,0.0047,5.7540,7.4931
11,9,0,0,1,27.584,27584,4.7500,-2.7200,6.8200,8.7449,-0.7505,0.0327,-1.4879,-31.50,-20.31,63.75,4.7932,-0.3544,5.8945,7.6056
11,9,0,0,1,27.705,27705,3.1600,-1.6900,7.1800,8.0246,-0.7341,1.0712,-0.9534,-37.06,-11.63,56.44,4.5780,-0.5304,6.0639,7.6164
11,9,0,0,1,27.826,27826,6.6400,1.5500,5.9000,9.0168,-0.8803,1.0657,-2.1631,-46.06,0.94,51.50,4.8497,-0.2562,6.0423,7.7521
11,9,0,0,1,27.949,27949,7.9400,2.2000,6.2600,10.3475,-0.7199,0.5705,-1.5053,-49.44,17.75,42.94,5.2569,0.0674,6.0710,8.0310
11,9,0,0,1,28.114,28114,6.7800,5.4800,5.7700,10.4543,-0.8225,0.2247,-1.8184,-43.63,42.38,30.38,5.4576,0.7807,6.0313,8.1714
11,9,0,0,1,28.234,28234,5.9900,6.7800,4.6900,10.1904,-0.6054,0.9327,-1.4617,-38.69,55.25,20.75,5.5278,1.5712,5.8546,8.2037
11,9,0,0,1,28.355,28355,6.4300,8.1300,3.5000,10.9404,-0.4407,0.7734,-1.5468,-33.38,65.88,9.63,5.6467,2.4355,5.5443,8.2798
11,9,0,0,1,28.476,28476,6.6400,8.8400,3.2000,11.5098,-0.0742,-0.2258,-1.4606,-25.19,70.56,359.19,5.7776,3.2795,5.2354,8.4584
11,9,0,0,1,28.597,28597,2.5700,8.0300,4.0700,9.3622,-0.0589,-0.6240,-0.8279,-16.56,69.56,354.31,5.3549,3.9055,5.0818,8.3518
11,9,0,0,1,28.718,28718,3.4300,9.1200,2.3600,10.0254,-0.6872,0.8563,0.2509,-16.13,73.25,353.19,5.1012,4.5926,4.7231,8.3320
11,9,0,0,1,28.841,28841,6.2700,11.1200,1.5900,12.8645,0.0687,-0.1854,-0.6010,-17.00,77.31,351.13,5.2552,5.4527,4.3103,8.7137
11,9,0,0,1,28.965,28965,0.5500,6.1500,5.4400,8.2291,0.7396,-1.0199,0.7167,-12.81,69.94,352.44,4.6352,5.5446,4.4591,8.4919
11,9,0,0,1,29.128,29128,3.9300,10.9200,2.1900,11.8105,0.4723,-0.0262,0.3665,-18.44,73.44,359.44,4.5423,6.2530,4.1601,8.7772
11,9,0,0,1,29.249,29249,1.9700,6.2300,4.8800,8.1553,0.3305,-0.3971,0.5138,-21.13,66.25,3.56,4.2033,6.2499,4.2550,8.6507
11,9,0,0,1,29.377,29377,4.7100,9.0200,2.9200,10.5864,-0.0044,0.5727,0.9828,-26.81,66.63,8.44,4.2701,6.6150,4.0791,8.8674
11,9,0,0,1,29.498,29498,6.5000,6.3900,4.1600,10.0194,0.3000,0.3611,1.3559,-35.81,64.63,14.06,4.5639,6.5853,4.0897,8.9957
11,9,0,0,1,29.618,29618,6.7100,8.1200,3.5800,11.1254,0.6774,-1.2337,-0.1167,-36.75,59.81,16.63,4.8467,6.7875,4.0226,9.2597
11,9,0,0,1,29.739,29739,3.1000,5.6800,6.6600,9.2859,0.4025,-1.0308,1.0396,-34.63,47.38,23.88,4.6166,6.6416,4.3701,9.1935
11,9,0,0,1,29.860,29860,7.9100,4.1900,4.3900,9.9698,0.6763,1.0068,1.3984,-44.00,39.81,32.81,5.0505,6.3185,4.3727,9.1953
11,9,0,0,1,29.981,29981,6.3200,3.7300,5.9600,9.4539,0.4996,-0.8945,0.4745,-45.50,32.81,33.94,5.2178,5.9774,4.5819,9.1624
11,9,0,0,1,30.144,30144,8.8100,1.0400,5.3200,10.3441,0.3392,1.1028,1.6264,-50.25,19.06,45.00,5.6912,5.3268,4.6792,9.0917
11,9,0,0,1,30.269,30269,6.2000,1.9900,6.3700,9.1092,0.4069,-1.1574,-0.2313,-49.63,15.94,44.88,5.7582,4.8871,4.9020,9.0039
11,9,0,0,1,30.390,30390,8.0500,1.5500,7.2300,10.9306,-0.1385,-0.1713,0.3752,-46.25,11.75,47.50,6.0602,4.4474,5.2087,9.1453
11,9,0,0,1,30.511,30511,7.4200,-0.7500,7.2600,10.4080,0.4200,-0.0753,0.8934,-46.19,4.69,50.94,6.2394,3.7625,5.4790,9.1163
11,9,0,0,1,30.632,30632,7.2900,1.3700,7.7500,10.7277,0.2236,-1.0592,0.5029,-42.75,1.75,51.94,6.3779,3.4472,5.7783,9.2709
11,9,0,0,1,30.753,30753,5.0900,-1.8900,8.5300,10.1114,0.8301,-0.2040,2.3071,-36.88,-10.06,60.44,6.2081,2.7439,6.1409,9.1532
11,9,0,0,1,30.875,30875,5.1800,-3.4400,6.6400,9.0970,0.3807,-0.3240,1.2370,-32.69,-22.38,71.19,6.0727,1.9290,6.2067,8.8950
11,9,0,0,1,30.996,30996,3.8800,-2.8500,7.6900,9.0727,-0.0589,-0.5978,0.6349,-27.63,-24.19,74.38,5.7837,1.2993,6.4021,8.7251
11,9,0,0,1,31.162,31162,1.1900,-3.7700,6.4800,7.5907,0.0120,-0.0524,-0.3731,-23.44,-25.50,77.44,5.1784,0.6313,6.4124,8.2664
11,9,0,0,1,31.283,31283,3.0500,-2.2100,7.1400,8.0726,-0.4178,0.7178,-2.0824,-30.56,-18.75,66.69,4.8979,0.2569,6.5083,8.1494
11,10,0,0,1,31.404,31404,5.3200,-0.2600,7.3500,9.0770,-0.6818,0.5552,-2.4446,-38.31,-4.50,52.31,4.9535,0.1888,6.6192,8.2696
11,10,0,0,1,31.525,31525,6.3800,1.7200,7.0700,9.6772,-0.8094,0.6545,-1.6461,-41.81,10.44,41.75,5.1415,0.3905,6.6786,8.4375
11,10,0,0,1,31.647,31647,6.2100,4.1300,6.0800,9.6222,-0.9043,0.7352,-1.8282,-42.88,27.56,32.31,5.2823,0.8833,6.5997,8.4994
11,10,0,0,1,31.773,31773,6.6100,5.6400,5.5800,10.3266,-0.7450,0.5618,-1.4432,-40.31,42.81,23.13,5.4573,1.5101,6.4653,8.5944
11,10,0,0,1,31.895,31895,5.8600,6.7600,4.9100,10.2052,-0.6676,0.2400,-1.3134,-34.56,54.31,14.44,5.5103,2.2019,6.2604,8.6258
11,10,0,0,1,32.015,32015,3.6100,8.2800,4.2200,9.9699,-0.6872,0.6730,-1.4399,-27.63,63.25,4.56,5.2599,3.0028,5.9915,8.5195
11,10,0,0,1,32.177,32177,3.7100,9.3400,3.0400,10.4996,-0.5214,0.6698,-1.1966,-19.06,73.38,350.06,5.0557,3.8379,5.6026,8.4663
11,10,0,0,1,32.298,32298,3.6100,9.9400,2.5200,10.8713,-0.4014,0.3687,-1.0527,-13.63,77.88,341.75,4.8652,4.6420,5.1964,8.4983
11,10,0,0,1,32.421,32421,3.3500,9.8500,2.3500,10.6662,-0.1113,0.2225,-0.0578,-10.81,80.00,337.31,4.6655,5.3283,4.8213,8.5675
11,10,0,0,1,32.542,32542,4.2000,9.6000,2.1400,10.6948,0.0109,-0.0742,0.3600,-14.13,79.63,339.75,4.6042,5.8912,4.4680,8.7102
11,10,0,0,1,32.666,32666,2.5400,9.1200,2.4200,9.7715,0.2847,-0.5880,0.7221,-16.69,77.06,345.31,4.3322,6.3167,4.1981,8.7345
11,10,0,0,1,32.787,32787,4.3000,9.7700,1.9500,10.8511,-0.0480,-0.8116,0.8508,-21.19,75.50,354.00,4.3279,6.7717,3.9019,8.9337
11,10,0,0,1,32.909,32909,2.9400,8.0100,3.9600,9.4067,0.7374,-0.6905,1.1552,-24.88,69.13,3.19,4.1450,6.9349,3.9095,8.9754
11,10,0,0,1,33.029,33029,6.1000,7.7700,3.7900,10.5805,0.2662,0.3403,1.8490,-34.25,64.00,12.75,4.4026,7.0450,3.8938,9.1748
11,10,0,0,1,33.192,33192,7.0000,5.1300,4.2700,9.6721,0.6480,-0.5105,1.3177,-45.56,52.19,23.94,4.7449,6.7926,3.9433,9.1763
11,10,0,0,1,33.318,33318,7.8700,4.7000,4.6800,10.2922,0.3414,-0.4614,0.8770,-48.31,41.31,30.75,5.1567,6.5169,4.0404,9.2405
11,10,0,0,1,33.439,33439,6.0600,4.2400,6.5500,9.8795,0.6883,-1.2075,0.6076,-44.38,30.13,34.69,5.2757,6.2168,4.3711,9.2514
11,10,0,0,1,33.559,33559,7.7800,2.4800,6.3000,10.3135,0.3436,0.0764,1.4137,-44.94,18.31,42.00,5.6057,5.7244,4.6253,9.2513
11,10,0,0,1,33.680,33680,4.0300,1.5500,7.7000,8.8280,1.1966,-0.4756,0.4549,-43.06,10.25,42.75,5.3981,5.1743,5.0305,9.0121
11,10,0,0,1,33.801,33801,7.0700,0.1100,5.8100,9.1517,0.3229,0.2662,1.0112,-44.56,-2.81,49.63,5.6184,4.5070,5.1332,8.8447
11,10,0,0,1,33.922,33922,5.2200,-1.5100,6.4000,8.3957,0.2247,-1.0679,0.2411,-41.63,-7.63,51.88,5.5659,3.7141,5.3001,8.5361
11,10,0,0,1,34.043,34043,3.3900,-0.8400,8.2100,8.9220,-0.1702,-0.6207,-0.5181,-34.88,-6.81,51.56,5.2792,3.1140,5.6836,8.3588
11,10,0,0,1,34.205,34205,4.3100,-1.3100,6.7700,8.1317,0.0851,1.0428,0.0862,-37.81,-8.25,52.56,5.1515,2.5310,5.8267,8.1789
11,10,0,0,1,34.330,34330,6.9400,-0.2800,6.5100,9.5196,-0.5116,0.7516,-1.4999,-44.88,-3.19,48.88,5.3872,2.1606,5.9168,8.2884
11,10,0,0,1,34.451,34451,7.4000,1.9500,6.7100,10.1778,-0.5880,0.1440,-1.6112,-46.06,14.38,38.13,5.6524,2.1328,6.0213,8.5296
11,10,0,0,1,34.572,34572,6.3600,4.0500,6.1700,9.7427,-0.5978,0.7254,-1.2054,-44.81,29.13,28.69,5.7456,2.3855,6.0409,8.6715
11,10,0,0,1,34.693,34693,6.9700,5.7400,5.0900,10.3652,-0.5945,0.7843,-2.0649,-43.25,44.31,18.75,5.9070,2.8275,5.9156,8.8250
11,10,0,0,1,34.814,34814,6.3400,7.4300,4.5500,10.7751,-0.1724,-0.0774,-1.8577,-35.31,55.00,6.50,5.9640,3.4340,5.7356,8.9588
11,10,0,0,1,34.936,34936,3.7600,6.9700,4.7000,9.2092,-0.4287,-0.5127,-1.7519,-24.81,58.44,357.81,5.6736,3.9000,5.5992,8.8741
11,10,0,0,1,35.057,35057,2.2400,8.3700,3.8500,9.4814,-0.7494,0.2345,-0.4461,-17.13,64.06,351.00,5.2211,4.4890,5.3687,8.7312
