participant,rep,equipment_code,exercise_code,quality_code,timestamp,timestamp_ms,accelX,accelY,accelZ,accelMag,gyroX,gyroY,gyroZ,roll,pitch,yaw,filteredX,filteredY,filteredZ,filteredMag
11,1,0,0,1,00.000,0,-0.3500,9.7800,0.9800,9.8352,0.0000,0.2934,0.0044,4.63,85.25,356.13,-0.8787,9.7321,0.8403,9.8078
11,1,0,0,1,00.121,121,-0.7300,9.8800,0.9500,9.9524,0.1025,-0.0949,-0.0491,4.94,84.81,355.31,-0.8591,9.7516,0.8548,9.8266
11,1,0,0,1,00.242,242,-0.1300,9.9700,1.1500,10.0369,0.0731,-0.1865,0.0698,4.56,84.25,356.56,-0.7630,9.7804,0.8937,9.8507
11,1,0,0,1,00.364,364,-1.4900,9.5400,1.4500,9.7639,0.1876,-0.0654,0.3534,3.88,83.31,358.75,-0.8588,9.7487,0.9670,9.8341
11,1,0,0,1,00.490,490,0.6600,10.4600,1.1700,10.5459,0.1233,0.0535,0.2945,0.63,82.63,1.44,-0.6587,9.8425,0.9937,9.9144
11,1,0,0,1,00.652,652,-1.5300,8.1700,2.9000,8.8034,0.6043,-0.0142,0.8661,-2.38,77.31,5.38,-0.7735,9.6221,1.2449,9.7331
11,1,0,0,1,00.773,773,4.0500,11.0100,1.1700,11.7895,-0.0851,-0.2694,0.1647,-8.63,77.44,10.75,-0.1379,9.8050,1.2351,9.8834
11,1,0,0,1,00.898,898,0.6500,9.3000,3.5100,9.9616,0.9567,-0.6556,0.1298,-6.13,72.50,12.44,-0.0341,9.7384,1.5348,9.8587
11,1,0,0,1,01.019,1019,1.7600,8.7500,3.3200,9.5227,-0.0447,-0.2640,1.2970,-9.88,69.44,19.50,0.2024,9.6082,1.7701,9.7720
11,1,0,0,1,01.142,1142,2.1700,10.0300,2.9400,10.6749,0.8116,-0.2934,0.3131,-14.13,66.31,26.06,0.4616,9.6638,1.9242,9.8643
11,1,0,0,1,01.263,1263,0.6700,6.9900,6.4000,9.5010,0.7636,-0.0316,0.9741,-17.06,58.19,31.06,0.4891,9.3114,2.5140,9.6572
11,1,0,0,1,01.385,1385,5.4000,9.2000,5.5800,12.0390,0.6698,-0.1756,0.7909,-24.69,53.69,38.25,1.1362,9.2967,2.9180,9.8100
11,1,0,0,1,01.505,1505,3.5200,5.4000,6.9900,9.5084,1.0821,-0.7101,1.2370,-27.50,42.75,44.69,1.4503,8.7833,3.4546,9.5490
11,1,0,0,1,01.667,1667,4.6000,6.7700,6.9500,10.7376,0.4931,-0.4025,0.3523,-30.56,31.75,55.38,1.8654,8.5180,3.9152,9.5585
11,1,0,0,1,01.791,1791,6.9500,3.0000,8.8500,11.6458,0.9676,-0.4178,1.1105,-31.94,20.81,60.56,2.5354,7.7908,4.5655,9.3792
11,1,0,0,1,01.912,1912,5.5200,2.9400,7.0200,9.4018,0.2836,-0.2956,0.8181,-31.50,15.38,63.06,2.9287,7.1516,4.8889,9.1447
11,1,0,0,1,02.035,2035,3.6900,2.0100,7.1900,8.3278,0.8443,-0.5978,1.6297,-29.50,6.06,70.13,3.0290,6.4741,5.1922,8.8344
11,1,0,0,1,02.156,2156,3.9800,-1.9500,9.2700,10.2750,0.7134,-0.1527,1.1825,-26.38,-6.19,80.44,3.1543,5.3640,5.7295,8.4587
11,1,0,0,1,02.277,2277,3.2600,-2.2100,8.2100,9.1058,0.6643,0.5432,0.1396,-28.81,-10.25,80.44,3.1683,4.3659,6.0564,8.1104
11,1,0,0,1,02.398,2398,4.0300,-1.1600,6.8400,8.0232,0.3872,-0.3305,0.8105,-29.19,-12.94,82.31,3.2818,3.6378,6.1596,7.8705
11,1,0,0,1,02.519,2519,3.5700,-2.8100,8.3200,9.4796,0.2225,-0.9752,1.1596,-21.25,-18.88,90.06,3.3198,2.7881,6.4443,7.7668
11,1,0,0,1,02.684,2684,1.8600,-5.2300,9.4900,10.9942,0.0175,0.0971,-0.6207,-15.19,-22.38,93.13,3.1274,1.7315,6.8457,7.7228
11,1,0,0,1,02.808,2808,1.7600,-0.8600,7.6800,7.9259,-0.0862,0.6927,-1.0385,-22.19,-17.06,84.25,2.9472,1.3900,6.9556,7.6811
11,2,0,0,1,02.929,2929,4.1200,-3.1400,8.4600,9.9200,-0.4865,0.3731,-0.5029,-25.31,-16.44,84.25,3.1018,0.7931,7.1539,7.8376
11,2,0,0,1,03.050,3050,4.0500,-0.3400,7.6900,8.6979,-0.4898,0.3731,-1.8271,-29.69,-7.13,75.56,3.2267,0.6438,7.2245,7.9385
11,2,0,0,1,03.171,3171,4.4500,0.1400,7.7800,8.9638,-0.5531,0.5411,-1.3319,-33.25,1.81,66.00,3.3879,0.5774,7.2977,8.0665
11,2,0,0,1,03.292,3292,6.1600,2.6200,7.4700,10.0305,-0.9523,0.5443,-1.6406,-35.50,14.38,57.56,3.7532,0.8466,7.3204,8.2699
11,2,0,0,1,03.414,3414,5.9700,4.8400,6.9600,10.3686,-0.8476,0.0982,-1.2643,-34.00,27.94,49.25,4.0453,1.3728,7.2729,8.4347
11,2,0,0,1,03.534,3534,4.4500,5.5300,6.5100,9.6314,-0.8596,0.0905,-0.9185,-30.75,36.75,44.00,4.0987,1.9206,7.1724,8.4812
11,2,0,0,1,03.701,3701,5.1600,7.0400,5.8400,10.5020,-0.6130,0.3742,-0.4680,-27.94,48.56,37.44,4.2385,2.5952,6.9968,8.5823
11,2,0,0,1,03.822,3822,2.7800,6.4200,6.4100,9.4886,-0.3414,0.2225,-1.1366,-23.31,53.19,31.06,4.0463,3.0992,6.9195,8.5940
11,2,0,0,1,03.942,3942,3.3100,8.2700,3.9200,9.7322,-0.7789,0.1680,-0.1745,-21.44,59.69,28.31,3.9493,3.7806,6.5242,8.5121
11,2,0,0,1,04.063,4063,3.7000,8.6400,4.6500,10.4863,-0.4265,-0.2509,-0.9141,-19.13,63.56,27.38,3.9164,4.4209,6.2773,8.6190
11,2,0,0,1,04.184,4184,2.4000,8.6800,4.0600,9.8786,-0.3196,-0.1724,-0.3883,-14.75,66.13,24.75,3.7166,4.9822,5.9851,8.6288
11,2,0,0,1,04.305,4305,2.2400,8.4700,3.6300,9.4834,-0.4723,-0.0284,-0.3774,-13.00,68.63,24.19,3.5220,5.4418,5.6747,8.6151
11,2,0,0,1,04.426,4426,0.9800,9.0300,2.0500,9.3115,-0.6589,0.0785,-0.4211,-9.63,73.44,21.13,3.1871,5.9146,5.1971,8.4941
11,2,0,0,1,04.547,4547,1.5600,9.9900,2.4200,10.3966,-0.6730,0.1189,-0.4963,-7.06,77.69,18.25,2.9727,6.4516,4.8311,8.5907
11,2,0,0,1,04.714,4714,0.5800,10.4200,1.1700,10.5015,-0.5345,0.2236,-0.3643,-2.50,83.75,12.25,2.6574,6.9746,4.3487,8.6381
11,2,0,0,1,04.835,4835,0.8300,10.4600,1.1900,10.5601,-0.2007,0.1167,0.0753,-2.44,85.88,11.19,2.4166,7.4339,3.9325,8.7502
11,2,0,0,1,04.956,4956,0.9600,10.2400,1.2300,10.3582,0.2411,0.0676,0.1254,-3.81,85.13,11.94,2.2246,7.8036,3.5763,8.8677
11,2,0,0,1,05.077,5077,0.9200,10.2100,1.4600,10.3548,0.4811,-0.0535,0.3142,-5.06,82.44,12.88,2.0527,8.1207,3.2975,9.0018
11,2,0,0,1,05.198,5198,1.8100,9.9500,2.1500,10.3393,0.5880,-0.1636,0.5247,-8.25,78.56,16.63,2.0207,8.3618,3.1463,9.1598
11,2,0,0,1,05.320,5320,1.7900,10.3700,3.1000,10.9705,0.7658,-0.0251,0.7014,-11.25,73.94,19.81,1.9903,8.6264,3.1402,9.3935
11,2,0,0,1,05.445,5445,3.2100,9.0200,3.4500,10.1768,1.1846,0.1036,1.4083,-19.00,66.63,26.44,2.1510,8.6783,3.1810,9.4899
11,2,0,0,1,05.568,5568,4.7900,7.8900,4.6200,10.3219,0.9523,-0.0469,0.9403,-26.75,56.88,32.44,2.4988,8.5744,3.3706,9.5460
11,2,0,0,1,05.730,5730,6.7600,5.8500,6.0600,10.8002,0.6120,-0.4451,1.4835,-35.81,41.69,45.56,3.0603,8.2154,3.7250,9.5254
11,2,0,0,1,05.851,5851,5.6800,5.2800,5.6100,9.5715,0.7330,-0.1756,1.0047,-38.31,34.06,50.56,3.4055,7.8286,3.9734,9.4166
11,2,0,0,1,05.973,5973,5.8100,2.3600,6.9300,9.3462,0.7963,-0.7450,1.6362,-39.75,20.25,58.50,3.7224,7.1080,4.3630,9.1332
11,2,0,0,1,06.099,6099,7.7000,0.9000,8.7100,11.6604,0.4571,-0.6578,0.9599,-36.94,6.69,68.06,4.2465,6.2899,4.9358,9.0531
11,2,0,0,1,06.220,6220,3.5700,1.4000,7.1200,8.0870,1.0821,-0.1844,1.0450,-34.56,0.88,69.13,4.1574,5.6456,5.2236,8.7431
11,2,0,0,1,06.341,6341,4.2200,-1.2100,7.0600,8.3136,0.4800,-0.4440,1.3330,-31.94,-10.19,75.88,4.1656,4.7422,5.4656,8.3495
11,2,0,0,1,06.462,6462,3.2000,-0.8600,5.9700,6.8279,0.3153,-0.8498,0.1691,-26.13,-15.38,80.63,4.0384,4.0039,5.5321,7.9337
11,2,0,0,1,06.583,6583,3.8000,-2.9400,9.3500,10.5122,0.3294,-0.5432,-0.4112,-20.38,-20.00,80.94,4.0070,3.0889,6.0352,7.8753
11,2,0,0,1,06.745,6745,2.1500,-3.5100,7.7200,8.7488,0.2902,0.1134,0.9632,-17.75,-25.69,84.31,3.7623,2.2193,6.2572,7.6310
11,2,0,0,1,06.871,6871,3.9900,-4.3500,8.6900,10.5052,0.0644,-0.0611,0.5334,-14.00,-30.06,91.94,3.7923,1.3537,6.5778,7.7124
11,2,0,0,1,06.992,6992,1.6700,-6.1800,8.0600,10.2930,0.2662,-0.2563,0.5509,-11.63,-32.56,93.69,3.5126,0.3609,6.7731,7.6383
11,2,0,0,1,07.113,7113,-0.8100,-3.7500,5.9700,7.0964,-0.2127,-0.1233,-0.1014,-11.56,-30.31,92.19,2.9430,-0.1808,6.6673,7.2902
11,3,0,0,1,07.234,7234,2.3600,-4.5200,8.8900,10.2485,-0.8868,0.2727,-1.2621,-12.63,-27.50,90.63,2.8662,-0.7526,6.9602,7.5647
11,3,0,0,1,07.355,7355,2.7700,-2.1700,8.1100,8.8405,-0.3480,0.2411,-0.8618,-18.25,-20.75,82.94,2.8535,-0.9394,7.1117,7.7202
11,3,0,0,1,07.478,7478,3.3500,-3.0700,9.1600,10.2251,-0.6207,0.1942,-1.1694,-21.31,-16.00,77.56,2.9189,-1.2201,7.3816,8.0310
11,3,0,0,1,07.603,7603,3.3700,-0.2100,7.7300,8.4353,-0.7549,0.3000,-1.6046,-24.75,-7.13,69.25,2.9784,-1.0870,7.4275,8.0759
11,3,0,0,1,07.765,7765,4.0300,1.7800,7.7500,8.9147,-0.8585,0.7363,-1.3155,-29.25,6.81,56.25,3.1169,-0.7092,7.4700,8.1252
11,3,0,0,1,07.886,7886,6.1300,3.6900,7.7000,10.5111,-0.9643,0.8029,-1.3854,-32.75,19.06,48.81,3.5140,-0.1295,7.5003,8.2837
11,3,0,0,1,08.007,8007,6.1200,5.2900,7.5400,11.0585,-0.8214,0.3283,-1.4508,-32.06,31.75,40.06,3.8574,0.5846,7.5055,8.4590
11,3,0,0,1,08.129,8129,4.9600,5.9000,6.3100,9.9613,-0.6261,-0.5563,-1.1072,-26.88,39.88,33.81,4.0027,1.2851,7.3480,8.4656
11,3,0,0,1,08.250,8250,2.2100,6.4200,6.7500,9.5741,-1.0690,-0.5127,-1.6330,-17.19,47.00,27.25,3.7665,1.9617,7.2692,8.4188
11,3,0,0,1,08.376,8376,1.8000,8.7900,4.5300,10.0511,-1.2588,0.0774,-0.6294,-10.69,57.13,21.69,3.5073,2.8615,6.9082,8.2591
11,3,0,0,1,08.497,8497,0.8900,8.4100,4.4900,9.5750,-0.8476,0.0938,-0.6523,-6.63,64.31,17.69,3.1624,3.5927,6.5896,8.1444
11,3,0,0,1,08.618,8618,-0.3800,9.1400,2.8900,9.5935,-1.5806,0.7810,-0.3545,-3.44,72.75,12.50,2.6956,4.3237,6.1021,7.9496
11,3,0,0,1,08.780,8780,1.2500,10.2600,1.4100,10.4316,-0.2258,0.4003,-0.4800,-2.88,82.19,5.69,2.5051,5.1059,5.4838,7.9005
11,3,0,0,1,08.901,8901,0.1800,9.5200,1.7600,9.6830,-0.5487,0.1625,-0.3752,0.44,84.19,0.94,2.1987,5.6876,4.9931,7.8812
11,3,0,0,1,09.028,9028,0.0000,10.8300,0.2400,10.8327,-0.5258,0.0916,0.3120,0.00,88.44,1.06,1.9090,6.3652,4.3667,7.9517
11,3,0,0,1,09.149,9149,0.4500,10.2100,0.0300,10.2200,0.1320,0.2476,-0.0382,-1.13,89.56,0.56,1.7167,6.8719,3.7953,8.0358
11,3,0,0,1,09.270,9270,0.5600,10.3800,0.4700,10.4057,0.2018,0.0098,0.1244,-1.06,88.25,359.56,1.5643,7.3341,3.3571,8.2163
11,3,0,0,1,09.391,9391,0.5200,10.7200,0.7200,10.7567,0.6130,0.0098,1.0090,-4.81,85.75,3.69,1.4267,7.7803,3.0096,8.4632
11,3,0,0,1,09.513,9513,2.5600,9.5900,1.8500,10.0967,0.5956,-0.4243,0.1658,-10.13,80.88,9.25,1.5760,8.0188,2.8568,8.6571
11,3,0,0,1,09.634,9634,1.6100,10.2400,1.9900,10.5551,0.6414,0.0807,0.7145,-10.88,76.56,10.69,1.5805,8.3115,2.7426,8.8938
11,3,0,0,1,09.797,9797,1.3100,8.7800,3.7800,9.6485,1.0559,-1.0592,0.1396,-13.31,66.81,19.00,1.5449,8.3732,2.8793,8.9882
11,3,0,0,1,09.921,9921,1.7700,8.1700,4.4900,9.4890,0.1614,0.6141,1.6788,-18.19,61.75,25.31,1.5745,8.3464,3.0915,9.0388
11,3,0,0,1,10.042,10042,5.0400,10.4400,4.0900,12.2932,1.0450,-0.9359,0.2323,-24.50,56.94,33.13,2.0312,8.6223,3.2231,9.4265
11,3,0,0,1,10.163,10163,2.8700,5.3600,6.5600,8.9443,1.1214,-0.5116,1.3919,-25.31,43.75,38.81,2.1417,8.1924,3.6628,9.2260
11,3,0,0,1,10.284,10284,4.9400,7.4500,5.1200,10.3015,0.4898,-0.3567,1.2708,-29.81,36.00,47.56,2.5105,8.0946,3.8548,9.3105
11,3,0,0,1,10.405,10405,3.2400,3.5300,8.8300,10.0463,1.3384,-1.4726,-0.0153,-26.25,24.63,52.31,2.6066,7.4931,4.5104,9.1261
11,3,0,0,1,10.530,10530,2.9600,3.1500,8.9900,9.9752,0.5934,-0.2487,0.5225,-21.94,18.56,51.38,2.6532,6.9208,5.1007,8.9974
11,3,0,0,1,10.651,10651,3.4500,-0.0100,7.7500,8.4832,1.0974,0.7309,2.1151,-25.25,8.88,59.50,2.7582,6.0075,5.4498,8.5673
11,3,0,0,1,10.815,10815,3.4200,1.6100,7.1900,8.1231,0.9916,-0.2520,0.5749,-28.00,1.38,63.38,2.8454,5.4280,5.6791,8.3554
11,3,0,0,1,10.935,10935,3.7000,-0.3800,8.2400,9.0406,0.8476,-0.1767,0.3523,-25.56,-7.94,66.69,2.9580,4.6627,6.0166,8.1664
11,3,0,0,1,11.056,11056,3.3500,-3.3000,7.9200,9.2108,0.5029,-0.3774,0.9610,-22.63,-16.00,71.56,3.0097,3.6134,6.2674,7.8355
11,3,0,0,1,11.177,11177,2.8100,-3.2400,7.6100,8.7353,0.6850,0.7516,1.2566,-22.38,-21.31,76.31,2.9833,2.7103,6.4443,7.6010
11,3,0,0,1,11.298,11298,5.0900,-2.6300,7.9100,9.7669,0.2531,0.4549,0.2411,-24.13,-27.38,81.94,3.2610,2.0066,6.6375,7.6626
11,3,0,0,1,11.419,11419,4.1000,-6.3700,7.8900,10.9380,0.4909,-0.7767,1.2141,-18.56,-33.75,88.63,3.3715,0.9028,6.8025,7.6457
11,3,0,0,1,11.542,11542,0.0900,-4.6800,6.1500,7.7287,-0.2487,-0.1931,-1.0243,-17.31,-31.75,85.00,2.9391,0.1671,6.7165,7.3334
11,4,0,0,1,11.667,11667,3.2800,-3.5700,8.0400,9.3886,-0.8607,0.6872,-1.7879,-23.25,-26.44,77.63,2.9840,-0.3254,6.8909,7.5163
11,4,0,0,1,11.829,11829,5.6300,-2.4000,8.2000,10.2322,-0.4745,0.0436,-1.0188,-31.13,-14.81,68.13,3.3327,-0.5987,7.0634,7.8331
11,4,0,0,1,11.950,11950,5.3700,-0.3800,7.5200,9.2483,-0.6534,-0.4407,-1.8730,-31.50,-4.88,59.50,3.6012,-0.5699,7.1236,8.0024
11,4,0,0,1,12.071,12071,3.1100,1.5100,8.1900,8.8898,-1.0177,-0.3982,-2.1500,-27.56,7.69,47.38,3.5364,-0.2958,7.2641,8.0846
11,4,0,0,1,12.192,12192,3.2800,4.1200,7.5100,9.1724,-1.4094,0.0894,-1.3057,-24.00,21.81,37.75,3.5026,0.2861,7.2965,8.0987
11,4,0,0,1,12.316,12316,2.9500,5.7100,7.1700,9.6289,-1.3854,0.2825,-1.0407,-21.81,34.00,32.69,3.4298,1.0008,7.2799,8.1093
11,4,0,0,1,12.440,12440,3.4300,7.7200,5.7800,10.2358,-1.3854,0.4549,-1.0996,-19.13,47.06,25.50,3.4298,1.8862,7.0822,8.0919
11,4,0,0,1,12.561,12561,3.4800,8.6600,5.5100,10.8382,-1.3265,-0.3829,-1.1606,-13.06,57.19,19.50,3.4365,2.7788,6.8750,8.1730
11,4,0,0,1,12.681,12681,0.7800,9.5400,3.9800,10.3663,-1.1356,-0.4363,-0.4691,-6.81,65.56,17.13,3.0864,3.6698,6.4935,8.0721
11,4,0,0,1,12.843,12843,0.3400,10.0400,2.3500,10.3170,-0.7734,0.0207,-0.5269,-3.19,73.88,15.31,2.7245,4.5092,5.9475,7.9454
11,4,0,0,1,12.964,12964,-0.5100,10.6200,1.3100,10.7126,-0.6229,0.2029,-0.7221,1.25,78.63,9.69,2.2983,5.3145,5.3364,7.8742
11,4,0,0,1,13.091,13091,-0.5000,9.9300,1.3500,10.0338,-0.4331,0.1887,-0.4461,4.38,81.94,5.00,1.9295,5.9227,4.8111,7.8707
11,4,0,0,1,13.213,13213,-1.4100,9.5800,1.2300,9.7610,-0.8628,0.0436,-0.4461,7.75,86.44,0.44,1.4895,6.4046,4.3392,7.8782
11,4,0,0,1,13.333,13333,-2.0800,10.7400,-0.5500,10.9534,-0.4625,0.4254,0.1298,8.88,91.00,357.06,1.0191,6.9759,3.6949,7.9595
11,4,0,0,1,13.454,13454,-0.9500,10.0000,-0.5200,10.0585,0.2803,0.7941,0.2389,7.00,90.56,354.69,0.7596,7.3744,3.1395,8.0508
11,4,0,0,1,13.576,13576,-1.4300,9.7000,-0.2100,9.8071,-0.1527,0.3360,0.0840,6.69,89.50,351.31,0.4711,7.6809,2.6981,8.1546
11,4,0,0,1,13.696,13696,-0.3700,10.1500,-0.6900,10.1802,-0.3272,0.0458,0.4451,4.56,91.25,352.00,0.3603,8.0062,2.2517,8.3246
11,4,0,0,1,13.858,13858,-0.8800,10.2600,-0.6500,10.3182,0.1604,-0.1145,-0.0033,3.25,92.19,353.81,0.1968,8.3032,1.8693,8.5133
11,4,0,0,1,13.984,13984,-0.1400,9.4900,-0.2800,9.4952,0.4712,-0.0622,0.1145,2.56,89.88,355.25,0.1524,8.4596,1.5861,8.6084
11,4,0,0,1,14.106,14106,-0.3900,9.7300,-0.1800,9.7395,0.2018,-0.0851,0.0851,2.44,87.63,356.13,0.0810,8.6270,1.3534,8.7329
11,4,0,0,1,14.226,14226,0.1800,9.9100,0.4800,9.9233,0.0993,-0.0894,0.7450,-0.19,86.94,359.13,0.0940,8.7961,1.2383,8.8833
11,4,0,0,1,14.347,14347,0.4800,10.3700,0.7900,10.4111,0.1800,-0.1822,0.4232,-4.50,85.88,4.44,0.1449,9.0035,1.1792,9.0815
11,4,0,0,1,14.469,14469,0.8400,10.7200,1.1200,10.8110,0.3611,-0.1091,0.4472,-6.50,83.81,7.13,0.2365,9.2297,1.1714,9.3067
11,4,0,0,1,14.590,14590,2.5300,10.3900,1.9100,10.8628,0.5280,-0.0873,0.8356,-10.88,80.38,11.69,0.5387,9.3826,1.2687,9.4833
11,4,0,0,1,14.712,14712,3.0000,9.8200,2.1900,10.4990,0.5912,-0.1745,1.2872,-17.63,76.13,18.69,0.8630,9.4402,1.3901,9.5810
11,4,0,0,1,14.878,14878,4.4900,8.3900,2.9700,9.9686,0.6578,-0.3131,1.3374,-29.00,67.25,31.06,1.3410,9.3018,1.5983,9.5329
11,4,0,0,1,14.999,14999,5.2200,6.8700,3.9500,9.4894,0.8530,-0.9447,1.5152,-35.88,56.44,41.75,1.8521,8.9814,1.9082,9.3668
11,4,0,0,1,15.119,15119,5.9700,6.2400,4.9500,9.9539,0.4451,-0.5203,0.7385,-37.81,46.31,48.63,2.3948,8.6201,2.3090,9.2398
11,4,0,0,1,15.240,15240,4.2000,4.7000,6.1400,8.7994,0.9316,-0.8181,1.2850,-37.94,35.38,54.50,2.6326,8.1036,2.8139,8.9731
11,4,0,0,1,15.361,15361,5.5900,3.0800,7.1100,9.5544,0.5705,-0.5127,0.8083,-38.19,22.38,62.25,3.0224,7.4416,3.3800,8.7141
11,4,0,0,1,15.482,15482,6.5800,3.2400,6.8600,10.0426,0.4734,-0.0196,1.1421,-39.50,14.31,68.00,3.4912,6.8879,3.8386,8.6236
11,4,0,0,1,15.605,15605,5.8700,0.8700,6.6500,8.9127,0.8552,-0.2869,2.1009,-40.38,1.56,76.44,3.8046,6.0949,4.2090,8.3270
11,4,0,0,1,15.730,15730,6.1700,-2.2400,7.2100,9.7504,0.4789,-1.3330,1.8817,-33.13,-13.69,88.44,4.1163,4.9966,4.6045,7.9443
11,4,0,0,1,15.892,15892,0.6300,-1.3600,7.7100,7.8543,0.3709,-0.8508,1.0297,-16.81,-19.19,98.00,3.6569,4.1589,5.0137,7.4704
11,4,0,0,1,16.013,16013,-0.2700,-6.2900,7.8000,10.0238,0.4603,0.2803,0.7952,-13.19,-25.25,104.13,3.1394,2.7820,5.3809,6.8227
11,4,0,0,1,16.134,16134,3.1200,-1.6700,8.0600,8.8027,-0.6490,0.9261,-1.4639,-18.75,-21.88,102.00,3.1369,2.1954,5.7339,6.8947
11,4,0,0,1,16.256,16256,2.1800,-3.5000,7.2600,8.3493,0.2880,0.9872,-0.2902,-26.63,-21.19,97.13,3.0108,1.4449,5.9350,6.8101
11,5,0,0,1,16.382,16382,5.5900,-0.9900,6.7900,8.8506,-1.0319,0.9981,-2.6878,-36.31,-13.00,89.13,3.3507,1.1240,6.0477,7.0046
11,5,0,0,1,16.504,16504,6.4000,1.5400,6.2800,9.0978,-0.3305,0.3763,-2.0889,-41.88,5.81,73.19,3.7525,1.1788,6.0783,7.2399
11,5,0,0,1,16.624,16624,5.8600,3.1800,6.5600,9.3534,-1.1192,0.1898,-2.0791,-40.13,22.50,61.44,4.0302,1.4425,6.1418,7.4863
11,5,0,0,1,16.745,16745,5.1900,6.0300,5.8000,9.8457,-1.1126,0.3840,-1.9297,-34.69,40.19,50.31,4.1830,2.0470,6.0967,7.6719
11,5,0,0,1,16.907,16907,4.0200,8.8900,4.2900,10.6582,-1.2163,0.4167,-1.6384,-25.44,57.81,36.75,4.1616,2.9488,5.8587,7.7677
11,5,0,0,1,17.029,17029,2.3200,9.6100,3.6800,10.5488,-1.0287,0.6807,-1.4410,-17.56,68.25,22.81,3.9189,3.8266,5.5716,7.8130
11,5,0,0,1,17.155,17155,2.2000,10.3400,1.8700,10.7356,-0.8258,0.5847,-0.5825,-12.63,76.31,13.31,3.6924,4.6849,5.0838,7.8375
11,5,0,0,1,17.276,17276,2.1600,10.1500,1.1700,10.4430,-0.4254,0.3600,-0.8410,-8.63,81.00,6.56,3.4905,5.4050,4.5681,7.8908
11,5,0,0,1,17.396,17396,1.5200,9.8700,0.9300,10.0296,-0.8083,-0.1462,-0.5880,-3.50,85.44,0.56,3.2308,5.9934,4.0887,7.9420
11,5,0,0,1,17.517,17517,0.9000,11.1600,-0.2700,11.1995,0.0545,-0.5301,-0.4178,-1.06,88.19,1.56,2.9237,6.6742,3.5143,8.0897
11,5,0,0,1,17.639,17639,-0.9900,10.4700,0.8500,10.5510,0.2793,-1.0483,-0.7232,3.69,87.00,2.31,2.4079,7.1744,3.1632,8.2022
11,5,0,0,1,17.759,17759,-3.0500,8.7000,2.2300,9.4850,-0.1200,-0.1767,0.0502,7.50,85.69,0.44,1.6887,7.3754,3.0402,8.1543
11,5,0,0,1,17.922,17922,2.3300,11.0800,-0.9800,11.3647,0.0731,0.6480,0.7810,-1.56,90.00,4.69,1.7732,7.8636,2.5105,8.4429
11,5,0,0,1,18.048,18048,-0.9800,9.0400,1.9700,9.3039,1.0996,0.5596,-0.9458,1.06,84.13,359.31,1.4104,8.0186,2.4392,8.4993
11,5,0,0,1,18.169,18169,1.0900,10.8700,0.9300,10.9640,-0.2345,0.4952,1.8500,-3.13,83.06,358.88,1.3682,8.3944,2.2404,8.7953
11,5,0,0,1,18.289,18289,3.5500,9.0800,2.0700,9.9666,1.1290,-0.1145,0.9970,-14.19,79.31,8.38,1.6557,8.4847,2.2179,8.9247
11,5,0,0,1,18.410,18410,2.1800,8.6600,3.0600,9.4399,0.2803,-0.1789,0.7112,-17.44,73.38,11.69,1.7248,8.5078,2.3289,8.9879
11,5,0,0,1,18.531,18531,4.3100,9.7500,2.3300,10.9118,0.4320,-0.2542,1.5370,-25.13,70.50,20.56,2.0655,8.6715,2.3290,9.2133
11,5,0,0,1,18.652,18652,5.2700,6.8600,3.6800,9.4008,0.9294,-0.6567,1.2981,-32.69,61.00,29.88,2.4877,8.4328,2.5071,9.1425
11,5,0,0,1,18.791,18791,4.3200,7.0600,5.2000,9.7748,0.2596,-0.5989,-0.2400,-31.38,52.19,34.69,2.7292,8.2519,2.8619,9.1506
11,5,0,0,1,18.952,18952,6.9400,5.7500,5.5700,10.5949,0.5694,-0.1014,1.6319,-36.69,44.56,41.50,3.2841,7.9222,3.2188,9.1601
11,5,0,0,1,19.073,19073,5.8900,4.4800,6.7200,9.9960,0.7712,-0.7789,0.5978,-38.00,33.75,48.19,3.6275,7.4686,3.6801,9.0820
11,5,0,0,1,19.194,19194,6.9100,4.1300,6.2700,10.2038,0.1374,-0.4025,1.1236,-39.13,25.31,53.81,4.0600,7.0287,4.0214,9.0586
11,5,0,0,1,19.315,19315,4.8700,3.1100,6.4300,8.6449,0.9316,-0.0731,1.5588,-40.00,16.50,58.25,4.1667,6.5123,4.3388,8.8655
11,5,0,0,1,19.437,19437,7.6300,-0.7200,8.2400,11.2531,0.7265,-0.6643,1.6090,-39.31,-1.50,69.31,4.6231,5.5593,4.8529,8.7080
11,5,0,0,1,19.563,19563,4.0400,-0.1300,7.5600,8.5728,0.7199,-0.8847,1.3330,-33.25,-9.75,74.19,4.5463,4.8096,5.2096,8.4226
11,5,0,0,1,19.684,19684,3.3700,-4.9800,8.3300,10.2736,0.3403,-0.9087,2.2787,-21.44,-23.06,89.94,4.3913,3.5195,5.6208,7.9539
11,5,0,0,1,19.804,19804,1.5300,-1.2000,6.9500,7.2169,0.5803,0.3131,-1.1890,-20.38,-23.75,88.44,4.0142,2.8976,5.7960,7.6226
11,5,0,0,1,19.966,19966,4.2800,-5.8400,7.9800,10.7752,0.1036,0.7821,1.0112,-23.06,-33.94,91.44,4.0493,1.7462,6.0838,7.5138
11,5,0,0,1,20.087,20087,2.6200,-6.0900,6.3300,9.1663,0.3851,0.1669,1.1236,-22.81,-37.88,98.50,3.8609,0.7136,6.1162,7.2680
11,5,0,0,1,20.215,20215,2.4700,-6.2100,6.9100,9.6132,-0.5094,0.0316,-1.7879,-22.44,-37.38,97.94,3.6776,-0.1987,6.2208,7.2293
11,6,0,0,1,20.336,20336,4.5200,-1.9700,6.0900,7.8358,-0.5629,0.4014,-2.3126,-34.38,-24.56,80.63,3.7886,-0.4321,6.2036,7.2818
11,6,0,0,1,20.456,20456,6.0700,-1.5600,6.9400,9.3510,-0.8661,0.2258,-1.6635,-40.13,-12.50,70.56,4.0893,-0.5808,6.3006,7.5337
11,6,0,0,1,20.577,20577,5.9200,1.8200,6.5200,8.9927,-0.8879,0.1462,-2.1337,-42.13,4.13,60.31,4.3305,-0.2644,6.3295,7.6737
11,6,0,0,1,20.698,20698,5.8500,3.2100,6.4600,9.2875,-0.9108,0.2716,-1.8904,-40.44,22.31,48.38,4.5307,0.1934,6.3467,7.8004
11,6,0,0,1,20.819,20819,5.2400,5.2900,6.3300,9.7730,-1.0308,0.1953,-1.6166,-35.88,37.44,39.19,4.6242,0.8650,6.3445,7.8984
11,6,0,0,1,20.982,20982,4.5100,7.8500,4.9900,10.3374,-0.8214,0.3392,-1.7508,-26.56,54.00,25.13,4.6091,1.7855,6.1660,7.9027
11,6,0,0,1,21.107,21107,3.4700,8.8000,4.4200,10.4411,-0.8345,0.0218,-1.3537,-18.56,62.00,15.69,4.4590,2.7098,5.9359,7.9033
11,6,0,0,1,21.228,21228,1.8800,10.1900,3.0200,10.7931,-1.0679,-0.1265,-1.5850,-8.75,69.69,6.25,4.1192,3.6955,5.5517,7.8387
11,6,0,0,1,21.349,21349,0.7500,10.5800,2.4700,10.8904,-0.5814,-0.5901,-0.7265,-1.06,75.56,0.75,3.6752,4.6027,5.1456,7.8211
11,6,0,0,1,21.470,21470,-2.0200,9.0800,3.3100,9.8733,-0.2018,0.0938,-0.5291,4.00,76.94,358.44,2.9247,5.1927,4.9037,7.7178
11,6,0,0,1,21.591,21591,1.3400,10.2400,1.2300,10.4003,-0.8694,0.5203,0.7352,1.56,81.69,356.88,2.7159,5.8578,4.4196,7.8245
11,6,0,0,1,21.713,21713,0.1200,9.6700,1.6900,9.8173,0.1494,0.1887,-0.2345,0.38,83.44,356.50,2.3738,6.3602,4.0599,7.9101
11,6,0,0,1,21.834,21834,0.1300,10.5400,1.8900,10.7089,-0.2127,-0.1189,0.2062,0.69,83.50,355.88,2.0781,6.9110,3.7740,8.1439
11,6,0,0,1,22.000,22000,1.6500,9.8300,1.7400,10.1183,0.5738,0.3687,1.0090,-5.94,81.50,0.81,2.0217,7.2956,3.5060,8.3430
11,6,0,0,1,22.122,22122,2.7400,10.0800,2.3100,10.6981,0.7549,-0.1702,0.4025,-10.69,76.81,3.88,2.1164,7.6625,3.3484,8.6258
11,6,0,0,1,22.242,22242,1.4300,9.3500,3.0400,9.9352,1.1966,0.0295,1.8435,-16.50,69.63,9.69,2.0259,7.8849,3.3077,8.7873
11,6,0,0,1,22.363,22363,5.9500,7.2500,4.4400,10.3768,0.5476,0.1484,1.4704,-28.94,61.69,20.56,2.5430,7.8012,3.4569,8.9037
11,6,0,0,1,22.484,22484,5.1600,7.4100,3.9400,9.8518,0.7636,-0.4887,1.1792,-34.38,55.25,26.75,2.8879,7.7497,3.5206,8.9884
11,6,0,0,1,22.605,22605,5.5100,6.1700,5.8900,10.1549,0.9370,-0.7592,1.1836,-37.25,42.63,34.06,3.2334,7.5415,3.8328,9.0565
11,6,0,0,1,22.727,22727,5.6100,1.8400,6.9400,9.1116,0.9556,-0.7450,2.7445,-40.81,23.88,47.56,3.5466,6.7902,4.2423,8.7568
11,6,0,0,1,22.853,22853,6.4300,3.9800,6.7800,10.1565,0.3043,0.0327,0.0240,-41.13,14.44,53.69,3.9265,6.4199,4.5767,8.8079
11,6,0,0,1,23.015,23015,8.6400,-0.6600,7.8500,11.6922,0.3763,-0.5923,1.7421,-40.44,-6.31,66.75,4.5477,5.4869,5.0080,8.7102
11,6,0,0,1,23.136,23136,4.0200,-1.2500,6.2900,7.5688,0.8596,-0.8999,2.1348,-33.63,-16.31,75.00,4.4781,4.5992,5.1769,8.2466
11,6,0,0,1,23.257,23257,2.9300,-5.1500,7.8300,9.8192,0.2716,-0.8868,2.0148,-21.00,-27.63,88.88,4.2741,3.3145,5.5266,7.7328
11,6,0,0,1,23.378,23378,2.3000,-2.9600,6.7900,7.7560,0.4123,-0.2923,-0.1124,-16.56,-29.06,92.13,4.0140,2.4877,5.6930,7.3967
11,6,0,0,1,23.499,23499,2.4400,-6.0100,8.3600,10.5813,0.1854,-1.1192,0.3251,-12.69,-32.38,90.31,3.8066,1.3679,6.0445,7.2730
11,6,0,0,1,23.636,23636,-2.5400,-4.1400,5.9600,7.6885,-0.0240,-1.1432,1.0297,0.31,-30.69,94.94,2.9703,0.6421,6.0333,6.7554
11,6,0,0,1,23.758,23758,-1.9800,-4.8000,8.1200,9.6382,-0.5738,1.2075,-1.6417,-1.69,-29.38,92.19,2.3179,-0.0750,6.3083,6.7211
11,7,0,0,1,23.878,23878,2.1400,-3.3000,7.6800,8.6286,-0.1451,1.6253,-0.5531,-15.13,-26.13,86.69,2.2945,-0.5000,6.4891,6.9009
11,7,0,0,1,24.041,24041,4.5000,-2.4500,7.3800,8.9843,-0.6010,0.9359,-2.0759,-29.38,-20.63,79.38,2.5851,-0.7570,6.6065,7.1345
11,7,0,0,1,24.167,24167,6.4700,-0.2200,6.7800,9.3743,-0.7658,0.6905,-2.7369,-38.13,-6.19,65.00,3.0970,-0.6862,6.6293,7.3492
11,7,0,0,1,24.288,24288,5.6100,3.2200,6.8000,9.3851,-0.6938,0.0491,-1.9384,-39.63,15.31,48.19,3.4282,-0.1715,6.6518,7.4852
11,7,0,0,1,24.409,24409,5.4200,4.0400,6.8200,9.6026,-0.9992,0.3229,-1.5217,-37.00,27.31,40.69,3.6907,0.3835,6.6740,7.6361
11,7,0,0,1,24.530,24530,5.5400,6.1300,5.6600,10.0152,-1.2403,0.7581,-2.0060,-32.81,43.56,29.75,3.9344,1.1407,6.5404,7.7173
11,7,0,0,1,24.651,24651,4.2300,9.0200,4.0000,10.7356,-0.8018,0.0851,-0.9752,-26.75,56.88,20.69,3.9733,2.1790,6.2056,7.6841
11,7,0,0,1,24.776,24776,4.3200,7.8200,5.7900,10.6461,-0.2236,0.1614,-1.8097,-19.06,60.88,10.75,4.0190,2.9224,6.1508,7.9073
11,7,0,0,1,24.897,24897,2.2600,9.3500,3.9300,10.3911,-0.8203,-0.7189,-0.4974,-11.81,66.13,5.75,3.7872,3.7694,5.8582,7.9290
11,7,0,0,1,25.061,25061,1.3600,8.7000,2.4300,9.1348,-1.0897,0.1211,-0.2509,-8.13,72.81,6.81,3.4674,4.4191,5.4064,7.7962
11,7,0,0,1,25.182,25182,1.0800,10.5900,1.1200,10.7037,-0.7996,0.0458,-0.8039,-5.06,80.13,3.88,3.1528,5.2323,4.8416,7.7947
11,7,0,0,1,25.303,25303,0.0500,10.4900,2.0200,10.6828,-0.3545,-0.0153,-1.0407,2.25,83.19,356.13,2.7439,5.9251,4.4698,7.9129
11,7,0,0,1,25.424,25424,-1.0900,10.3800,1.5900,10.5575,-0.4843,0.1407,0.4276,4.19,86.25,354.31,2.2387,6.5121,4.0903,8.0094
11,7,0,0,1,25.546,25546,1.3600,10.7800,0.6400,10.8843,0.1189,-0.0065,0.0218,1.25,87.56,356.06,2.1229,7.0745,3.6356,8.2325
11,7,0,0,1,25.672,25672,-0.9100,10.7900,1.2100,10.8957,0.7723,-0.1669,0.1876,2.19,84.31,356.50,1.7232,7.5641,3.3160,8.4369
11,7,0,0,1,25.794,25794,1.2800,9.9700,2.9900,10.4871,0.8498,0.3589,1.7748,-5.88,78.06,2.38,1.6648,7.8812,3.2730,8.6947
11,7,0,0,1,25.914,25914,3.4600,9.4300,3.0100,10.4860,1.1225,0.4789,1.8053,-18.63,71.69,11.38,1.9014,8.0853,3.2384,8.9148
11,7,0,0,1,26.076,26076,5.6700,7.7300,3.7600,10.2975,1.1017,-0.4669,1.3123,-30.63,59.38,19.50,2.3980,8.0385,3.3071,9.0169
11,7,0,0,1,26.197,26197,3.9400,6.2200,5.0500,8.9283,1.0428,-0.7058,1.1770,-34.06,46.06,27.69,2.6012,7.7988,3.5368,8.9497
11,7,0,0,1,26.320,26320,6.1200,4.5100,5.1800,9.1993,0.6261,0.2334,1.4901,-39.44,35.50,34.31,3.0649,7.3654,3.7533,8.8165
11,7,0,0,1,26.441,26441,6.6100,3.0700,6.2800,9.6206,1.1923,-1.6853,0.7723,-38.63,21.69,41.75,3.5320,6.7994,4.0863,8.6836
11,7,0,0,1,26.565,26565,1.9900,2.0000,9.4200,9.8334,0.3752,-0.1036,0.0829,-31.38,13.56,41.19,3.3288,6.1670,4.7891,8.4881
11,7,0,0,1,26.686,26686,8.1500,0.1700,6.2700,10.2842,0.5934,0.0873,2.6900,-37.56,1.94,53.19,3.9641,5.3767,4.9843,8.3347
11,7,0,0,1,26.807,26807,5.0100,-0.3200,8.1000,9.5296,0.6763,-0.7669,-0.2236,-32.94,-6.63,57.75,4.1020,4.6260,5.3948,8.2055
11,7,0,0,1,26.928,26928,5.3000,-1.2400,8.6600,10.2285,0.3883,-1.0265,1.0537,-26.56,-12.44,60.63,4.2598,3.8530,5.8251,8.1807
11,7,0,0,1,27.090,27090,2.8400,-2.4200,9.2700,9.9927,0.4025,-0.9054,0.4560,-13.88,-18.69,68.44,4.0727,3.0264,6.2791,8.0730
11,7,0,0,1,27.211,27211,0.1200,-4.4400,7.6300,8.8286,0.7789,-0.6120,1.1683,-8.75,-22.56,70.06,3.5519,2.0425,6.4571,7.6473
11,7,0,0,1,27.338,27338,-0.1800,-2.9200,7.9100,8.4337,-0.5574,-0.4658,0.1036,-3.50,-22.88,73.81,3.0601,1.3886,6.6485,7.4495
11,7,0,0,1,27.459,27459,-0.6500,-3.4900,8.8000,9.4891,0.2313,0.3632,-0.0982,-1.94,-23.00,75.56,2.5712,0.7457,6.9320,7.4310
11,7,0,0,1,27.579,27579,-0.4000,-4.9700,8.0200,9.4436,-0.0949,1.6821,-0.4625,-9.69,-23.63,74.69,2.1797,-0.0075,7.0754,7.4035
11,8,0,0,1,27.700,27700,5.5500,-1.1600,8.2700,10.0270,-1.0516,1.5217,-2.1838,-23.94,-16.00,68.44,2.6238,-0.1593,7.2328,7.6957
11,8,0,0,1,27.822,27822,4.8100,-0.9600,8.0100,9.3924,-0.0894,0.7047,-1.1105,-32.31,-7.75,58.94,2.9119,-0.2648,7.3352,7.8965
11,8,0,0,1,27.943,27943,6.0200,0.7800,6.9900,9.2579,-0.9774,0.6294,-1.4224,-37.63,1.38,52.38,3.3215,-0.1272,7.2897,8.0118
11,8,0,0,1,28.105,28105,4.9700,3.6600,6.8100,9.1909,-0.8552,0.3698,-1.9831,-37.44,21.69,39.38,3.5387,0.3719,7.2265,8.0550
11,8,0,0,1,28.230,28230,4.8900,5.7600,6.2500,9.8057,-0.8618,0.6480,-1.6722,-34.50,36.63,28.44,3.7168,1.0819,7.0978,8.0848
11,8,0,0,1,28.352,28352,6.2500,7.0100,5.8300,11.0540,-0.9032,0.1265,-1.6090,-29.25,49.63,18.38,4.0506,1.8631,6.9308,8.2410
11,8,0,0,1,28.472,28472,3.4600,8.3200,4.9300,10.2713,-0.8105,-0.5956,-1.7682,-18.75,57.38,9.25,3.9728,2.7139,6.6671,8.2218
11,8,0,0,1,28.593,28593,-1.7900,8.9900,4.3300,10.1377,-1.4464,-0.0164,-1.3635,-7.81,64.88,2.13,3.2134,3.5410,6.3591,7.9563
11,8,0,0,1,28.714,28714,1.6100,10.2300,1.5400,10.4698,-1.3035,0.7996,-0.0447,-5.94,75.25,355.06,3.0021,4.4224,5.7241,7.8317
11,8,0,0,1,28.835,28835,2.5800,10.8200,0.9600,11.1647,-0.3349,-0.2302,-0.7821,-4.56,80.50,352.88,2.9465,5.2654,5.0963,7.8980
11,8,0,0,1,28.956,28956,-1.8800,9.8800,1.3600,10.1488,-0.1604,-0.8868,-0.3698,1.44,82.00,351.50,2.3105,5.8735,4.6040,7.8124
11,8,0,0,1,29.122,29122,1.1100,10.1600,1.2600,10.2978,-1.0123,0.0567,-0.3087,1.75,86.06,351.88,2.1523,6.4384,4.1633,7.9636
11,8,0,0,1,29.245,29245,-2.1700,12.1100,0.5000,12.3130,0.6141,-0.0654,-0.0687,5.00,88.13,350.19,1.5827,7.1857,3.6806,8.2272
11,8,0,0,1,29.365,29365,0.1800,9.0900,2.2500,9.3661,0.5531,0.8868,1.7268,-2.31,82.94,354.56,1.3979,7.4367,3.4921,8.3338
11,8,0,0,1,29.486,29486,3.1100,11.1000,1.1000,11.5798,0.3774,0.5356,0.9774,-11.81,81.56,358.00,1.6235,7.9194,3.1769,8.6859
11,8,0,0,1,29.607,29607,2.7700,9.5500,2.1300,10.1692,1.3112,0.1942,1.8370,-20.75,75.31,3.81,1.7746,8.1343,3.0389,8.8629
11,8,0,0,1,29.728,29728,5.8800,7.7900,3.2400,10.2838,0.5738,0.1014,1.8064,-33.50,67.00,13.63,2.3156,8.0889,3.0654,8.9548
11,8,0,0,1,29.850,29850,7.4500,6.7100,3.1500,10.5095,0.9599,-1.4650,1.8184,-42.44,54.63,26.50,2.9921,7.9072,3.0766,8.9968
11,8,0,0,1,29.973,29973,3.6300,4.7400,6.6800,8.9592,1.0243,-0.8628,-0.7047,-37.44,39.06,29.50,3.0762,7.4899,3.5514,8.8416
11,8,0,0,1,30.137,30137,8.0200,3.3700,5.6100,10.3513,0.1963,-0.1102,2.4718,-44.88,29.13,37.56,3.7277,6.9470,3.8227,8.7618
11,8,0,0,1,30.258,30258,3.9000,2.2700,5.4800,7.0988,0.4854,-0.8978,0.9676,-44.63,17.00,46.75,3.7504,6.3307,4.0411,8.3948
11,8,0,0,1,30.379,30379,9.5400,3.0400,8.1800,12.9293,0.0851,0.3480,-1.2632,-42.38,12.25,47.13,4.5133,5.8970,4.5865,8.7281
11,8,0,0,1,30.500,30500,4.0900,1.1200,6.9900,8.1757,0.7232,-0.8345,2.3398,-42.00,10.50,46.31,4.4575,5.2675,4.9032,8.4651
11,8,0,0,1,30.621,30621,6.1000,-0.1400,7.7500,9.8637,0.2716,-1.0777,1.0876,-35.19,-6.00,60.75,4.6740,4.5550,5.2783,8.3937
11,8,0,0,1,30.742,30742,3.6700,-1.3400,8.4700,9.3277,0.9294,-0.8792,0.8476,-27.56,-12.63,64.56,4.5417,3.7782,5.6989,8.2085
11,8,0,0,1,30.864,30864,2.5800,-2.9900,7.7200,8.6715,0.6807,-0.1996,1.7311,-22.56,-20.44,69.88,4.2832,2.8863,5.9652,7.8905
11,8,0,0,1,30.989,30989,2.8700,-3.5000,7.3300,8.6149,0.2269,-0.2738,1.1945,-16.56,-26.88,80.13,4.0969,2.0447,6.1451,7.6634
11,8,0,0,1,31.151,31151,1.0800,-3.2200,7.4800,8.2149,0.1789,-0.2171,-0.1844,-11.13,-31.25,84.75,3.6994,1.3510,6.3210,7.4475
11,8,0,0,1,31.272,31272,1.9000,-7.9700,9.7200,12.7126,0.0796,-0.1647,0.9294,-7.63,-34.50,88.38,3.4623,0.1227,6.7689,7.6040
11,8,0,0,1,31.393,31393,-0.5500,-3.9600,6.7200,7.8194,-0.4091,0.0709,-0.7374,-9.13,-30.31,86.75,2.9336,-0.4153,6.7624,7.3830
11,9,0,0,1,31.515,31515,1.7400,-4.5200,8.6100,9.8788,-0.5607,0.2967,-1.4443,-12.38,-27.31,82.69,2.7763,-0.9562,7.0059,7.5964
11,9,0,0,1,31.641,31641,2.3700,-2.1700,8.0500,8.6677,-0.7461,0.5345,-1.7824,-20.06,-18.94,71.63,2.7227,-1.1161,7.1435,7.7258
11,9,0,0,1,31.763,31763,3.6500,-0.6800,7.9500,8.7742,-0.9348,0.8596,-1.6504,-27.88,-8.38,61.63,2.8449,-1.0587,7.2498,7.8596
11,9,0,0,1,31.884,31884,5.4600,2.1200,7.3800,9.4218,-0.6065,0.7909,-2.3366,-34.00,5.00,49.69,3.1895,-0.6398,7.2669,7.9618
11,9,0,0,1,32.004,32004,4.7800,3.1700,7.8000,9.6818,-0.8890,0.6436,-1.8784,-35.38,20.31,36.38,3.3991,-0.1378,7.3372,8.0875
11,9,0,0,1,32.166,32166,5.5100,5.9700,5.7000,9.9243,-0.9185,0.4091,-1.2370,-34.31,38.38,26.31,3.6773,0.6671,7.1214,8.0425
11,9,0,0,1,32.287,32287,3.9700,7.2600,5.3100,9.8318,-0.9185,0.3742,-1.7650,-28.31,50.19,16.63,3.7158,1.5359,6.8827,7.9711
11,9,0,0,1,32.409,32409,3.2700,8.5600,4.2900,10.1178,-0.9992,0.2891,-1.2446,-21.63,60.31,7.31,3.6571,2.4615,6.5411,7.8879
11,9,0,0,1,32.534,32534,2.2600,9.8400,3.1300,10.5702,-0.9567,0.2356,-1.5424,-14.38,68.63,358.94,3.4730,3.4338,6.0916,7.8077
11,9,0,0,1,32.656,32656,1.0200,10.1200,2.4400,10.4598,-0.8487,0.0153,-1.4214,-3.81,76.06,347.69,3.1498,4.3148,5.6104,7.7470
11,9,0,0,1,32.776,32776,0.7600,10.6200,1.8900,10.8136,-0.4952,-0.4472,-1.1301,4.44,80.94,340.63,2.8348,5.1457,5.1201,7.7930
11,9,0,0,1,32.897,32897,-3.5800,10.7500,0.9100,11.3669,-0.2225,-0.4047,-0.3120,11.00,83.94,337.63,1.9895,5.8842,4.5654,7.7087
11,9,0,0,1,33.018,33018,-0.5400,9.6500,0.5700,9.6819,0.1374,0.3218,1.5512,5.19,83.81,342.63,1.6562,6.3804,4.0389,7.7308
11,9,0,0,1,33.180,33180,-0.7400,10.5500,2.0000,10.7634,0.6436,-0.0447,-0.0982,-1.13,80.44,348.13,1.3404,6.9299,3.7702,8.0022
11,9,0,0,1,33.305,33305,0.2700,9.3600,3.0600,9.8512,0.4963,0.4451,1.7072,-6.50,76.38,351.06,1.1994,7.2501,3.6766,8.2171
11,9,0,0,1,33.426,33426,4.5100,9.6000,2.5300,10.9042,0.5421,-0.0818,2.0431,-20.44,73.00,3.31,1.6356,7.5598,3.5255,8.5003
11,9,0,0,1,33.548,33548,4.7700,8.4800,3.5700,10.3638,1.1159,-0.8105,0.3556,-26.56,63.44,12.31,2.0487,7.6810,3.5314,8.6986
11,9,0,0,1,33.669,33669,2.8000,7.2400,5.3900,9.4504,0.8967,-0.5563,0.8596,-26.56,53.69,15.94,2.1477,7.6229,3.7763,8.7739
11,9,0,0,1,33.790,33790,5.8400,6.0800,5.2700,9.9421,0.2880,0.2771,1.7181,-33.56,46.44,24.13,2.6342,7.4196,3.9731,8.8190
11,9,0,0,1,33.912,33912,7.7800,6.9100,5.2200,11.6415,0.8705,-1.5926,0.6229,-36.25,36.19,33.50,3.3123,7.3524,4.1374,9.0636
11,9,0,0,1,34.032,34032,1.5300,2.7000,8.4400,8.9925,1.1956,-0.4102,0.5269,-29.19,23.63,33.75,3.0774,6.7394,4.7044,8.7762
11,9,0,0,1,34.200,34200,5.6600,3.4800,6.7100,9.4430,0.5389,0.0774,1.8337,-35.19,11.94,46.00,3.4178,6.3099,4.9687,8.7283
11,9,0,0,1,34.321,34321,7.5300,-0.2400,9.0100,11.7447,0.9163,-0.5127,0.7505,-34.25,-2.56,54.94,3.9597,5.4468,5.5012,8.6954
11,9,0,0,1,34.441,34441,2.8100,0.3100,7.0900,7.6328,0.9130,-0.5869,0.8945,-31.19,-5.75,52.25,3.8082,4.7699,5.7106,8.3585
11,9,0,0,1,34.562,34562,4.8400,-2.0200,9.1000,10.5031,0.5116,-0.9741,1.6068,-22.75,-17.75,62.94,3.9441,3.8751,6.1572,8.2755
11,9,0,0,1,34.683,34683,-1.5800,-2.4500,5.3800,6.1191,0.8214,-0.2356,2.1718,-15.44,-24.13,71.38,3.2162,3.0416,6.0548,7.5004
11,9,0,0,1,34.804,34804,4.4700,-6.0100,10.1900,12.6466,-0.0404,0.4920,0.0284,-10.06,-31.31,83.94,3.3814,1.8489,6.5997,7.6426
11,9,0,0,1,34.943,34943,2.2700,-4.1000,7.7900,9.0910,0.5421,-0.4625,0.7647,-13.44,-31.06,80.13,3.2350,1.0650,6.7566,7.5664
11,9,0,0,1,35.064,35064,-0.7600,-5.0200,7.1500,8.7693,-0.1145,-1.2272,1.0483,-2.94,-33.50,86.69,2.7085,0.2631,6.8084,7.3321
11,9,0,0,1,35.226,35226,-1.7000,-5.0000,7.8600,9.4694,-0.1800,1.0254,-1.5664,-2.94,-33.00,83.94,2.1276,-0.4304,6.9470,7.2782
11,10,0,0,1,35.347,35347,2.2700,-4.2300,7.8500,9.2015,-0.4385,1.1356,-0.6240,-14.38,-30.06,79.06,2.1464,-0.9311,7.0660,7.4432
11,10,0,0,1,35.468,35468,3.9500,-3.8100,7.9200,9.6356,-0.3011,0.5672,-1.3384,-21.00,-27.31,76.19,2.3840,-1.3105,7.1785,7.6767
11,10,0,0,1,35.594,35594,4.2500,-2.1800,7.5100,8.9003,-0.5498,0.6960,-1.9744,-30.25,-20.25,65.13,2.6299,-1.4251,7.2222,7.8171
11,10,0,0,1,35.716,35716,5.6900,-0.4600,7.2200,9.2041,-0.8214,0.0894,-1.3035,-36.00,-8.31,56.06,3.0332,-1.2979,7.2219,7.9398
11,10,0,0,1,35.836,35836,4.7100,1.0000,7.4200,8.8454,-0.8999,-0.0829,-1.6613,-35.50,4.25,48.38,3.2541,-0.9951,7.2480,8.0071
11,10,0,0,1,35.958,35958,4.2500,3.1400,7.2200,8.9471,-1.1083,0.5661,-1.5512,-35.06,19.06,38.94,3.3854,-0.4502,7.2443,8.0090
11,10,0,0,1,36.078,36078,5.4600,5.7100,6.5100,10.2370,-1.2217,0.5269,-1.8391,-33.63,34.56,30.06,3.6587,0.3616,7.1476,8.0377
11,10,0,0,1,36.240,36240,2.7200,8.4900,4.9500,10.1971,-1.1890,0.5760,-1.7497,-24.00,54.88,13.56,3.5350,1.4327,6.8580,7.8474
11,10,0,0,1,36.367,36367,3.3100,9.2400,4.0700,10.6254,-0.8672,0.4451,-0.9861,-18.94,64.25,5.44,3.5054,2.4615,6.4906,7.7765
11,10,0,0,1,36.488,36488,2.4200,9.6200,2.8700,10.3266,-1.0352,0.5367,-1.0352,-13.00,72.81,356.56,3.3624,3.4048,6.0135,7.6851
11,10,0,0,1,36.608,36608,3.0200,10.9000,1.7100,11.4392,-0.6785,-0.1920,-0.8552,-8.31,79.31,351.56,3.3172,4.3925,5.4464,7.7435
11,10,0,0,1,36.729,36729,-1.1600,10.1200,2.5500,10.5006,-0.1451,-0.0207,-0.5072,0.69,81.13,343.44,2.7273,5.1472,5.0647,7.7190
11,10,0,0,1,36.850,36850,1.5500,10.7400,1.3000,10.9289,0.1691,-0.1614,1.1465,-5.94,82.25,351.44,2.5721,5.8842,4.5686,7.8811
11,10,0,0,1,36.971,36971,1.9200,9.4700,2.6400,10.0168,0.2618,-0.0742,-0.2062,-8.63,79.69,354.81,2.4862,6.3567,4.3145,8.0749
11,10,0,0,1,37.092,37092,1.1600,10.0600,1.9100,10.3052,0.5269,-0.1102,0.9185,-10.06,77.81,356.00,2.3114,6.8447,3.9976,8.2568
11,10,0,0,1,37.259,37259,1.4000,9.4900,3.0100,10.0539,0.6774,-0.0851,1.5195,-18.75,70.69,5.69,2.1913,7.1933,3.8675,8.4559
11,10,0,0,1,37.380,37380,8.3300,7.7400,4.0100,12.0572,0.4385,-0.0142,1.6166,-33.81,63.69,19.75,3.0002,7.2653,3.8863,8.7687
11,10,0,0,1,37.501,37501,5.1200,7.8300,4.8900,10.5563,1.2523,-1.0047,-0.0305,-32.88,55.31,20.94,3.2796,7.3397,4.0185,8.9876
11,10,0,0,1,37.622,37622,4.7300,5.6400,6.0100,9.5028,0.8683,-0.9643,1.8151,-33.81,40.56,28.81,3.4707,7.1158,4.2810,9.0004
11,10,0,0,1,37.743,37743,4.1900,4.9400,5.8600,8.7349,0.8214,-0.0873,1.3417,-36.50,28.81,38.06,3.5655,6.8291,4.4890,8.9163
11,10,0,0,1,37.864,37864,6.8000,2.6100,7.0700,10.1507,0.9185,-0.1047,1.3526,-40.31,15.38,45.31,3.9917,6.2731,4.8291,8.8660
11,10,0,0,1,37.986,37986,5.5600,0.6000,7.6100,9.4438,0.7821,-0.6425,1.9002,-38.81,1.19,53.75,4.1984,5.5255,5.1956,8.6690
11,10,0,0,1,38.109,38109,4.9400,-1.6700,8.1000,9.6334,0.7221,-0.5225,2.0442,-33.13,-13.75,66.13,4.2961,4.5773,5.5783,8.3980
11,10,0,0,1,38.273,38273,4.7800,-1.8100,7.1600,8.7972,0.5160,-0.3829,0.4854,-26.56,-24.63,75.13,4.3599,3.7356,5.7867,8.1517
11,10,0,0,1,38.394,38394,0.8800,-5.5500,6.7600,8.7906,1.1072,-1.0505,2.0911,-17.50,-33.13,82.69,3.9013,2.5120,5.9150,7.5178
11,10,0,0,1,38.515,38515,1.6100,-4.6600,7.0700,8.6193,-0.1942,-0.3043,-1.1148,-12.50,-35.50,84.13,3.5994,1.5669,6.0672,7.2265
11,10,0,0,1,38.636,38636,1.8200,-5.3800,8.4300,10.1647,0.2400,-0.3982,0.4342,-12.31,-35.88,80.63,3.3649,0.6515,6.3786,7.2411
11,10,0,0,1,38.757,38757,0.4400,-4.9200,6.6200,8.2598,0.4342,-0.3927,1.3744,-5.94,-38.13,87.00,2.9795,-0.0827,6.4104,7.0694
11,10,0,0,1,38.878,38878,-2.1400,-7.9000,7.1400,10.8614,-0.1833,0.2640,-0.4538,-2.75,-40.44,91.25,2.3049,-1.1128,6.5065,6.9918
11,10,0,0,1,39.002,39002,0.6500,-3.6100,6.8400,7.7615,-0.9348,0.8519,-1.6417,-11.81,-33.63,84.69,2.0868,-1.4419,6.5505,7.0244
11,10,0,0,1,39.126,39126,3.5800,-4.1900,8.1800,9.8633,-0.5127,0.7679,-1.9308,-22.81,-26.50,74.81,2.2836,-1.8040,6.7652,7.3646
11,10,0,0,1,39.289,39289,4.9400,-0.3400,6.6800,8.3151,-1.0090,0.6261,-2.2842,-35.50,-8.69,57.13,2.6336,-1.6111,6.7540,7.4261
11,10,0,0,1,39.412,39412,4.1500,2.8900,6.7500,8.4343,-1.1541,0.6512,-2.9791,-38.69,12.25,41.81,2.8334,-1.0180,6.7534,7.3942
11,10,0,0,1,39.533,39533,4.0600,5.8400,5.6700,9.0960,-1.4726,1.0177,-2.3955,-36.94,36.31,25.31,2.9951,-0.1142,6.6107,7.2584
11,10,0,0,1,39.657,39657,5.2000,8.3000,4.1400,10.6334,-1.3155,0.3807,-1.8413,-29.75,56.13,12.56,3.2856,0.9945,6.2851,7.1615
11,10,0,0,1,39.778,39778,3.2300,9.4700,3.6300,10.6438,-1.0494,0.2913,-1.7595,-19.50,66.75,1.44,3.2783,2.1114,5.9352,7.1016
