participant,rep,equipment_code,exercise_code,quality_code,timestamp,timestamp_ms,accelX,accelY,accelZ,accelMag,gyroX,gyroY,gyroZ,roll,pitch,yaw,filteredX,filteredY,filteredZ,filteredMag
12,1,0,0,1,00.000,0,2.9600,9.5900,1.0800,10.0944,0.0949,0.1145,0.0175,-16.69,82.81,33.25,2.7864,9.3745,1.1386,9.8459
12,1,0,0,1,00.121,121,3.0100,9.1400,1.4000,9.7242,0.0894,0.0873,0.0949,-17.25,82.13,32.94,2.8159,9.3436,1.1731,9.8290
12,1,0,0,1,00.242,242,3.0800,9.2900,1.3100,9.8745,-0.0469,0.0262,-0.1745,-17.13,82.19,32.38,2.8507,9.3366,1.1911,9.8345
12,1,0,0,1,00.364,364,2.7100,9.3000,1.1600,9.7560,-0.0971,-0.0611,-0.0644,-16.19,82.69,31.75,2.8322,9.3317,1.1870,9.8240
12,1,0,0,1,00.485,485,2.8100,9.4400,1.0900,9.9095,-0.0578,-0.0687,0.0175,-16.06,83.06,32.25,2.8292,9.3460,1.1742,9.8352
12,1,0,0,1,00.611,611,2.6900,9.4800,1.1600,9.9223,-0.0327,0.0229,0.0229,-16.13,83.38,32.50,2.8109,9.3637,1.1724,9.8465
12,1,0,0,1,00.774,774,2.7500,9.2900,1.0600,9.7463,-0.0055,0.0218,-0.0185,-16.13,83.50,32.25,2.8029,9.3540,1.1576,9.8332
12,1,0,0,1,00.895,895,2.7100,9.3600,1.0800,9.8041,-0.0622,0.0087,-0.0491,-15.94,83.81,31.94,2.7906,9.3548,1.1473,9.8293
12,1,0,0,1,01.016,1016,2.7100,9.5200,0.9700,9.9456,-0.0469,-0.0273,0.0393,-15.81,84.19,32.00,2.7800,9.3765,1.1240,9.8443
12,1,0,0,1,01.154,1154,2.7600,9.4700,0.9800,9.9126,-0.0425,-0.0393,-0.1385,-15.56,84.38,32.13,2.7774,9.3888,1.1050,9.8532
12,1,0,0,1,01.274,1274,2.4800,9.5200,0.9600,9.8845,-0.0916,-0.0960,-0.3622,-13.63,84.69,30.75,2.7382,9.4061,1.0859,9.8566
12,1,0,0,1,01.395,1395,1.9600,9.7400,0.8500,9.9715,-0.1178,-0.2334,-0.3556,-11.13,85.31,29.50,2.6356,9.4501,1.0548,9.8673
12,1,0,0,1,01.516,1516,2.0200,9.5800,0.8300,9.8258,-0.1724,-0.3392,-0.6414,-8.31,85.88,28.75,2.5545,9.4672,1.0252,9.8593
12,1,0,0,1,01.637,1637,-0.9400,11.2800,0.2500,11.3219,0.1145,0.0033,-0.5770,-3.06,86.56,25.25,2.0940,9.7061,0.9230,9.9722
12,1,0,0,1,01.799,1799,0.9800,7.5600,2.7900,8.1178,1.5763,1.0581,0.4625,-6.38,75.63,22.00,1.9472,9.4233,1.1691,9.6931
12,1,0,0,1,01.925,1925,3.3100,8.8300,2.8200,9.8426,-0.7919,0.3360,-1.3308,-5.19,74.19,14.38,2.1268,9.3451,1.3866,9.6839
12,1,0,0,1,02.047,2047,-1.1900,10.7200,1.0100,10.8330,-0.0731,-1.6592,-1.5719,7.25,79.25,8.19,1.6897,9.5263,1.3370,9.7669
12,1,0,0,1,02.167,2167,-5.6100,9.0600,2.2700,10.8953,-0.1222,-0.7036,-1.8533,20.06,80.63,3.38,0.7278,9.4649,1.4599,9.6044
12,1,0,0,1,02.288,2288,-5.3100,9.3000,1.1900,10.7751,0.3796,-0.2487,-1.0690,29.69,80.63,355.94,-0.0678,9.4431,1.4244,9.5502
12,1,0,0,1,02.410,2410,-5.7900,8.1800,1.1800,10.0910,0.3447,0.0905,-1.4606,37.31,77.75,349.75,-0.8219,9.2767,1.3922,9.4165
12,1,0,0,1,02.532,2532,-6.9600,7.0900,1.4100,10.0348,0.4058,0.0665,-1.4181,46.88,72.25,340.75,-1.6307,8.9885,1.3945,9.2411
12,1,0,0,1,02.653,2653,-8.2400,5.6800,1.8200,10.1721,0.7178,0.4571,-1.0483,53.50,63.31,334.50,-2.5016,8.5526,1.4506,9.0282
12,1,0,0,1,02.819,2819,-6.8000,2.5000,5.2500,8.9472,1.1497,1.2621,0.6556,47.38,40.88,337.13,-3.0681,7.7550,1.9512,8.5650
12,1,0,0,1,02.940,2940,-4.7300,3.7900,4.8300,7.7502,-0.4909,-0.7549,-1.6090,47.88,36.88,332.88,-3.2871,7.2325,2.3306,8.2792
12,1,0,0,1,03.060,3060,-10.5200,2.6100,3.4600,11.3778,-0.1702,-1.9035,-1.3308,63.50,35.31,321.94,-4.2402,6.6234,2.4794,8.2459
12,1,0,0,1,03.181,3181,-11.9600,2.0600,2.6900,12.4307,-0.0742,-0.1494,-1.4508,73.75,31.19,315.25,-5.2574,6.0220,2.5072,8.3780
12,1,0,0,1,03.302,3302,-9.0600,2.3200,1.7600,9.5165,0.6207,1.3875,-1.8337,69.88,-10.69,304.19,-5.7585,5.5342,2.4087,8.3421
12,1,0,0,1,03.423,3423,-6.7100,-2.2000,3.9600,8.0960,0.9316,0.4941,-1.3483,59.75,-32.31,299.63,-5.8839,4.5150,2.6131,7.8635
12,1,0,0,1,03.545,3545,-6.4100,-4.6100,3.2500,8.5383,0.1778,-0.6992,-1.3646,54.13,-48.81,291.38,-5.9532,3.3126,2.6971,7.3272
12,1,0,0,1,03.671,3671,-8.9800,-3.9000,2.0600,10.0047,0.0218,-0.8181,-0.2640,53.31,-59.56,284.38,-6.3521,2.3622,2.6131,7.2634
12,1,0,0,1,03.833,3833,-8.3500,-5.5100,2.3100,10.2674,0.0622,0.4658,-1.0581,50.56,-66.69,280.13,-6.6154,1.3248,2.5732,7.2208
12,1,0,0,1,03.954,3954,-5.8600,-5.9100,2.2500,8.6215,0.2640,0.7418,-0.3556,43.94,-65.38,277.94,-6.5158,0.3714,2.5306,6.9998
12,1,0,0,1,04.075,4075,-5.0500,-6.4100,2.9300,8.6704,-0.1364,0.2225,0.2291,42.44,-63.13,280.00,-6.3227,-0.5222,2.5832,6.8499
12,2,0,0,1,04.196,4196,-6.0200,-5.5500,2.9200,8.6931,-0.1702,-0.5956,0.9305,46.44,-61.81,282.50,-6.2828,-1.1847,2.6276,6.9124
12,2,0,0,1,04.319,4319,-8.7700,-3.9300,2.4200,9.9103,-0.4134,-0.6741,1.0843,55.25,-60.56,286.56,-6.6105,-1.5465,2.6002,7.2699
12,2,0,0,1,04.444,4444,-10.1800,-2.9400,1.9800,10.7794,0.1298,0.1822,0.6076,59.63,-57.88,289.94,-7.0809,-1.7301,2.5185,7.7120
12,2,0,0,1,04.565,4565,-8.4500,-2.7700,2.8200,9.3289,0.0633,0.5411,1.0657,63.44,-46.25,298.31,-7.2613,-1.8671,2.5582,7.9220
12,2,0,0,1,04.686,4686,-8.3000,-2.2600,3.2700,9.2027,0.1767,0.4691,1.0690,64.81,-32.69,306.19,-7.3982,-1.9189,2.6520,8.0900
12,2,0,0,1,04.849,4849,-8.0800,-0.0700,3.5500,8.8257,-0.3000,0.2116,1.1497,66.25,-7.00,317.06,-7.4880,-1.6753,2.7704,8.1579
12,2,0,0,1,04.970,4970,-7.4600,0.6100,3.4700,8.2501,-0.3556,-0.1887,1.0221,66.00,9.06,322.13,-7.4843,-1.3741,2.8626,8.1301
12,2,0,0,1,05.096,5096,-7.7300,3.5400,2.7800,8.9450,-0.7963,-0.1473,2.2777,62.63,36.25,330.81,-7.5167,-0.7266,2.8517,8.0722
12,2,0,0,1,05.217,5217,-7.1800,6.3000,2.2300,9.8089,-0.5541,-0.1276,1.9613,52.06,58.88,343.75,-7.4723,0.1994,2.7698,7.9716
12,2,0,0,1,05.338,5338,-5.0700,8.7300,2.2800,10.3497,-0.5432,0.0611,2.3027,39.63,68.19,355.25,-7.1558,1.3235,2.7052,7.7637
12,2,0,0,1,05.459,5459,-3.3500,10.7600,2.0700,11.4580,-0.8770,-0.5214,2.9332,22.75,77.38,12.81,-6.6543,2.5670,2.6215,7.5987
12,2,0,0,1,05.580,5580,-1.5700,11.4100,0.8900,11.5518,-0.6676,-0.7167,0.8018,9.63,85.00,28.94,-5.9843,3.7323,2.3933,7.4478
12,2,0,0,1,05.701,5701,-3.7500,11.0000,0.5700,11.6356,0.0611,-0.2465,-0.0578,9.69,87.44,32.06,-5.6899,4.6900,2.1531,7.6815
12,2,0,0,1,05.863,5863,-0.9700,10.1300,0.5800,10.1929,0.4134,0.8410,0.9512,4.00,84.88,34.38,-5.0679,5.4068,1.9458,7.6618
12,2,0,0,1,05.989,5989,0.2700,10.0200,1.3400,10.1128,0.5051,0.9228,0.4636,-1.75,81.44,34.13,-4.3645,6.0147,1.8660,7.6621
12,2,0,0,1,06.110,6110,0.7300,9.5700,2.3000,9.8695,0.1756,0.5127,-0.1505,-3.25,79.13,30.31,-3.6932,6.4832,1.9232,7.7052
12,2,0,0,1,06.230,6230,0.5300,9.9100,1.6800,10.0654,-0.1124,-0.0469,-0.5018,-1.19,79.38,27.00,-3.1367,6.9348,1.8911,7.8426
12,2,0,0,1,06.351,6351,-0.4100,10.0900,1.7000,10.2404,-0.0633,-0.1822,-0.5421,2.38,79.88,24.50,-2.7774,7.3506,1.8659,8.0763
12,2,0,0,1,06.473,6473,-1.6000,10.5000,2.0200,10.8116,-0.0862,-0.1058,-0.6621,5.94,80.44,20.69,-2.6222,7.7656,1.8862,8.4106
12,2,0,0,1,06.593,6593,-2.8700,10.3900,1.4100,10.8709,0.1833,-0.0567,-1.5621,13.69,80.13,11.38,-2.6549,8.1114,1.8235,8.7274
12,2,0,0,1,06.714,6714,-3.6700,9.0700,1.9000,9.9671,0.4407,0.0720,-1.3352,23.31,77.13,1.56,-2.7886,8.2377,1.8336,8.8881
12,2,0,0,1,06.878,6878,-6.6700,10.0300,1.0500,12.0910,0.8923,0.6480,-1.6013,36.06,69.31,346.94,-3.3001,8.4739,1.7303,9.2570
12,2,0,0,1,07.003,7003,-3.7700,3.6100,5.5200,7.5971,1.6777,1.1585,0.6032,33.44,50.75,346.44,-3.3620,7.8330,2.2297,8.8108
12,2,0,0,1,07.123,7123,-4.0200,6.6000,4.2400,8.8146,-0.6490,-0.3927,-1.5490,34.88,48.44,342.31,-3.4487,7.6705,2.4946,8.7723
12,2,0,0,1,07.244,7244,-8.0600,5.5900,3.8600,10.5409,0.1244,-0.9839,-1.1541,46.25,48.06,333.69,-4.0564,7.3963,2.6745,8.8495
12,2,0,0,1,07.365,7365,-9.4400,4.3600,3.7500,11.0538,-0.1036,0.1167,-1.2435,54.06,43.94,327.25,-4.7658,6.9962,2.8162,8.9214
12,2,0,0,1,07.486,7486,-8.5600,5.2100,3.6300,10.6581,1.1214,1.4770,0.3054,51.88,32.56,323.19,-5.2658,6.7608,2.9235,9.0545
12,2,0,0,1,07.607,7607,-3.9400,1.4000,7.4100,8.5083,0.8694,0.4440,-0.7985,44.38,21.38,327.25,-5.0911,6.0544,3.5147,8.6561
12,2,0,0,1,07.729,7729,-6.7900,1.5600,5.3800,8.8024,-0.0524,-1.5610,-1.9155,51.56,8.75,316.75,-5.3150,5.4622,3.7605,8.4985
12,2,0,0,1,07.895,7895,-10.5300,-0.4100,3.5800,11.1295,0.0076,-0.9327,-1.6013,65.25,-15.75,303.19,-6.0022,4.6884,3.7367,8.4835
12,2,0,0,1,08.016,8016,-9.6100,-1.9100,3.5900,10.4350,0.4156,0.7243,-1.9286,57.69,-39.75,289.75,-6.4776,3.8189,3.7174,8.3882
12,2,0,0,1,08.137,8137,-6.0800,-4.1800,3.8500,8.3223,0.8149,0.7330,-1.2599,46.56,-48.75,284.00,-6.4252,2.7648,3.7348,7.9295
12,2,0,0,1,08.258,8258,-4.8800,-5.6100,3.5100,8.2223,0.6458,-0.3131,-0.4178,41.44,-56.38,281.69,-6.2216,1.6612,3.7052,7.4294
12,2,0,0,1,08.379,8379,-5.6500,-7.1500,2.9100,9.5662,-0.0218,-0.7930,-0.7309,40.63,-63.38,276.88,-6.1463,0.5001,3.6004,7.1407
12,2,0,0,1,08.501,8501,-6.6500,-5.8100,2.4100,9.1535,-0.0774,-0.2596,-0.2193,38.69,-66.25,270.94,-6.2126,-0.3314,3.4436,7.1109
12,3,0,0,1,08.622,8622,-6.5800,-6.9200,3.2200,10.0773,0.2596,0.2433,0.3742,40.19,-66.94,273.19,-6.2610,-1.1996,3.4141,7.2316
12,3,0,0,1,08.748,8748,-6.1700,-6.5700,2.8700,9.4589,0.0229,0.3033,-0.0556,39.94,-65.50,275.56,-6.2490,-1.9073,3.3424,7.3389
12,3,0,0,1,08.910,8910,-6.1100,-6.2400,2.9800,9.2277,-0.0720,0.0327,0.5814,42.00,-63.63,278.63,-6.2307,-2.4782,3.2946,7.4712
12,3,0,0,1,09.031,9031,-6.8600,-5.2600,3.0300,9.1601,-0.3294,0.0611,0.8181,45.81,-60.00,282.69,-6.3136,-2.8448,3.2598,7.6538
12,3,0,0,1,09.152,9152,-7.2200,-4.6900,3.7100,9.3749,-0.3098,0.1178,0.9610,50.63,-53.69,289.50,-6.4331,-3.0879,3.3191,7.8700
12,3,0,0,1,09.273,9273,-7.3000,-2.7700,3.5400,8.5729,-0.3600,0.0545,1.3832,56.06,-43.38,296.56,-6.5473,-3.0460,3.3482,7.9597
12,3,0,0,1,09.394,9394,-7.7600,-2.2600,3.7500,8.9100,-0.3207,-0.0044,1.3657,61.50,-29.19,304.38,-6.7071,-2.9425,3.4012,8.0754
12,3,0,0,1,09.516,9516,-7.8900,0.4300,3.0600,8.4735,-0.5738,0.2138,1.9668,64.00,-4.56,313.25,-6.8630,-2.4981,3.3562,8.0377
12,3,0,0,1,09.641,9641,-8.3600,3.9000,4.5500,10.2860,-0.5291,0.2433,2.4009,58.56,28.19,327.13,-7.0603,-1.6550,3.5135,8.0580
12,3,0,0,1,09.762,9762,-7.0100,5.6400,3.7800,9.7590,-0.9108,-0.3938,1.2785,51.19,49.94,338.38,-7.0536,-0.6937,3.5486,7.9264
12,3,0,0,1,09.924,9924,-5.6700,6.7200,3.0000,9.2902,-0.5465,0.3153,1.8828,42.63,61.50,344.56,-6.8713,0.2833,3.4763,7.7058
12,3,0,0,1,10.045,10045,-2.7900,9.1000,2.4000,9.8160,-0.9632,-0.1276,2.6016,27.69,70.69,358.06,-6.3335,1.4451,3.3345,7.3021
12,3,0,0,1,10.166,10166,-1.5100,12.5600,1.2900,12.7160,-0.8519,-0.4854,2.0279,13.06,79.56,13.75,-5.6979,2.9097,3.0651,7.0942
12,3,0,0,1,10.287,10287,-2.8000,10.9900,1.8100,11.4846,-0.3251,-0.2334,0.8890,4.25,83.44,25.00,-5.3160,3.9745,2.8997,7.2433
12,3,0,0,1,10.414,10414,-2.0000,11.1300,1.2500,11.3771,0.0240,0.3153,0.2978,0.44,84.94,28.00,-4.8790,4.9174,2.6823,7.4284
12,3,0,0,1,10.535,10535,-0.3900,10.4900,1.2700,10.5738,0.3523,0.3338,-0.1145,-0.50,82.81,26.31,-4.2875,5.6518,2.4962,7.5204
12,3,0,0,1,10.655,10655,-0.3200,10.5200,1.7200,10.6645,0.1625,0.0556,-1.1956,3.50,81.13,20.75,-3.7647,6.2933,2.3939,7.7142
12,3,0,0,1,10.776,10776,-6.0600,11.1300,1.6800,12.7837,1.1999,0.9359,-1.8980,16.13,76.81,7.13,-4.0672,6.9306,2.2998,8.3585
12,3,0,0,1,10.938,10938,0.1700,7.4400,3.1800,8.0929,-0.1920,0.2760,-0.5989,18.25,66.44,357.13,-3.5088,6.9977,2.4158,8.1925
12,3,0,0,1,11.066,11066,-2.7800,7.7200,2.7900,8.6667,-0.2869,-1.4617,-0.9599,25.75,68.81,352.38,-3.4128,7.0929,2.4651,8.2482
12,3,0,0,1,11.187,11187,-7.4900,7.8800,1.7300,11.0085,-0.3458,-0.7232,-0.7963,35.31,76.13,350.88,-3.9500,7.1966,2.3683,8.5442
12,3,0,0,1,11.307,11307,-6.9700,8.0300,2.1600,10.8502,0.4985,0.7298,0.0033,36.81,73.75,348.81,-4.3480,7.3065,2.3408,8.8187
12,3,0,0,1,11.428,11428,-4.6900,6.8500,3.4500,8.9901,0.3207,0.6021,-0.6621,36.69,66.25,344.06,-4.3931,7.2463,2.4870,8.8314
12,3,0,0,1,11.549,11549,-6.4100,6.5900,3.3400,9.7812,0.0142,-0.7341,-0.8705,42.50,64.00,338.38,-4.6588,7.1598,2.5994,8.9289
12,3,0,0,1,11.670,11670,-9.2800,6.6800,2.1700,11.6383,-0.2694,-1.1563,-1.5741,52.81,68.63,333.00,-5.2678,7.0966,2.5428,9.1966
12,3,0,0,1,11.791,11791,-12.1200,5.3900,1.1000,13.3100,0.0284,-0.0556,-1.3504,63.44,72.31,325.38,-6.1707,6.8717,2.3527,9.5307
12,3,0,0,1,11.959,11959,-7.9200,2.8300,2.3000,8.7192,1.0799,1.3701,-2.0944,69.63,27.88,312.69,-6.4012,6.3391,2.3457,9.3093
12,3,0,0,1,12.080,12080,-6.6700,-0.1000,3.0200,7.3225,0.5629,0.3218,-1.8708,64.81,-16.94,300.81,-6.4367,5.4906,2.4346,8.8037
12,3,0,0,1,12.200,12200,-7.5600,-2.0600,2.9500,8.3726,0.4440,-0.5040,-1.4170,61.56,-39.19,292.19,-6.5847,4.4956,2.5025,8.3565
12,3,0,0,1,12.321,12321,-9.3900,-3.9900,3.2700,10.7138,0.4963,0.0404,-0.8803,57.88,-54.00,286.56,-6.9544,3.3774,2.6036,8.1578
12,3,0,0,1,12.442,12442,-8.4900,-3.9100,2.5300,9.6834,0.6043,1.1770,-1.0810,50.06,-57.38,284.13,-7.1567,2.4171,2.5939,7.9868
12,3,0,0,1,12.564,12564,-4.5500,-5.6000,2.7900,7.7361,0.9261,1.3843,-1.2566,38.38,-59.00,283.00,-6.8132,1.3607,2.6198,7.4253
12,3,0,0,1,12.685,12685,-2.8600,-8.7000,3.5000,9.8041,0.5247,0.4516,-0.5509,29.13,-63.31,281.38,-6.2923,0.0349,2.7358,6.8614
12,3,0,0,1,12.811,12811,-3.7700,-7.7300,3.2200,9.1834,-0.2662,-0.5869,0.2280,29.56,-63.88,280.69,-5.9599,-0.9883,2.7996,6.6584
12,4,0,0,1,12.973,12973,-5.4400,-6.9700,3.7200,9.5923,-0.2607,-0.3883,0.1473,32.56,-63.88,277.56,-5.8914,-1.7765,2.9209,6.8115
12,4,0,0,1,13.094,13094,-5.6100,-6.1700,3.5100,9.0477,-0.2127,-0.1745,0.7789,36.50,-62.31,279.50,-5.8543,-2.3555,2.9985,6.9866
12,4,0,0,1,13.216,13216,-6.1300,-6.4000,3.8500,9.6623,-0.1604,-0.1320,1.0417,42.50,-59.38,284.88,-5.8906,-2.8884,3.1107,7.2608
12,4,0,0,1,13.337,13337,-8.2000,-4.3600,3.5600,9.9460,-0.5563,0.1691,1.4868,49.38,-51.44,293.81,-6.1950,-3.0823,3.1699,7.6110
12,4,0,0,1,13.463,13463,-8.8900,-1.4900,3.5600,9.6915,0.2727,1.0265,1.4235,53.50,-36.44,304.44,-6.5501,-2.8725,3.2213,7.8442
12,4,0,0,1,13.585,13585,-7.0000,-3.8700,5.8000,9.8801,0.3316,0.5138,0.8552,51.75,-28.06,315.44,-6.6094,-3.0040,3.5611,8.0864
12,4,0,0,1,13.705,13705,-6.8900,-1.4700,4.8300,8.5418,-0.7963,-0.6992,0.5847,55.06,-18.88,319.38,-6.6464,-2.8018,3.7283,8.1194
12,4,0,0,1,13.826,13826,-8.6400,-1.1700,3.8800,9.5432,-0.6709,-1.1825,0.2814,62.25,-14.06,317.69,-6.9091,-2.5868,3.7483,8.2751
12,4,0,0,1,13.988,13988,-8.6600,0.9800,2.3800,9.0344,-0.8748,-0.1429,0.9403,69.44,9.63,320.63,-7.1398,-2.1168,3.5680,8.2576
12,4,0,0,1,14.109,14109,-8.1400,3.9200,2.1100,9.2778,-0.3480,0.2138,1.9340,65.19,31.94,326.13,-7.2716,-1.3213,3.3759,8.1252
12,4,0,0,1,14.230,14230,-6.0700,4.5700,3.0000,8.1688,-0.7123,-0.6556,2.6671,54.44,57.00,341.44,-7.1133,-0.5450,3.3263,7.8715
12,4,0,0,1,14.356,14356,-6.0700,8.7700,1.2000,10.7330,-0.8988,-0.7232,1.9395,42.88,75.19,354.94,-6.9758,0.6825,3.0461,7.6424
12,4,0,0,1,14.478,14478,-6.3600,11.1400,0.4300,12.8349,0.0785,-0.2062,2.5896,27.81,82.44,11.50,-6.8946,2.0605,2.7014,7.6863
12,4,0,0,1,14.600,14600,-2.4800,9.9300,1.8200,10.3956,0.1418,0.6141,2.0933,10.88,81.38,27.38,-6.3129,3.0975,2.5853,7.4921
12,4,0,0,1,14.720,14720,-0.9300,10.8700,1.5600,11.0207,-0.1156,0.7265,0.7483,2.00,81.19,31.25,-5.6036,4.1217,2.4502,7.3751
12,5,0,0,1,14.842,14842,-0.3600,10.7700,1.5700,10.8898,-0.1069,0.0774,0.4342,-2.19,82.00,32.81,-4.9126,4.9978,2.3342,7.3865
12,5,0,0,1,15.009,15009,-0.4300,9.7000,1.4800,9.8217,-0.2051,-0.3927,-0.9414,0.56,83.13,32.56,-4.3219,5.6174,2.2216,7.4277
12,5,0,0,1,15.130,15130,-1.8000,10.5600,0.5700,10.7275,-0.0960,-0.2509,-1.0396,8.88,84.56,26.44,-3.9896,6.2687,2.0040,7.6961
12,5,0,0,1,15.251,15251,-3.7300,9.9900,1.3400,10.7475,0.4298,0.2640,-1.7628,17.81,82.81,16.38,-3.9554,6.7591,1.9165,8.0625
12,5,0,0,1,15.372,15372,-5.3400,8.2800,1.5200,9.9692,0.0360,0.7778,-1.9319,30.31,78.44,0.56,-4.1378,6.9595,1.8642,8.3086
12,5,0,0,1,15.493,15493,-5.2700,9.3000,1.0100,10.7370,0.4625,0.7047,-0.2967,36.00,73.00,350.31,-4.2870,7.2679,1.7517,8.6180
12,5,0,0,1,15.614,15614,-4.7100,6.8600,3.2300,8.9262,1.2010,0.3752,0.0415,34.81,64.00,351.44,-4.3428,7.2142,1.9465,8.6425
12,5,0,0,1,15.736,15736,-4.3000,5.3900,4.8000,8.4013,-0.3796,-0.1931,-0.8639,36.13,59.06,350.25,-4.3371,6.9738,2.3225,8.5346
12,5,0,0,1,15.862,15862,-8.1200,7.9000,1.8800,11.4838,-0.2214,-0.4800,-1.6744,46.81,61.38,339.56,-4.8356,7.0959,2.2642,8.8804
12,5,0,0,1,16.024,16024,-8.0100,4.4700,3.1400,9.6954,0.3796,0.6861,-0.9119,54.38,48.44,331.44,-5.2539,6.7498,2.3796,8.8784
12,5,0,0,1,16.145,16145,-8.4300,3.7700,4.0400,10.0797,1.0952,0.9948,-0.5749,53.69,33.50,327.13,-5.6724,6.3572,2.5984,8.9074
12,5,0,0,1,16.266,16266,-6.7600,1.9800,6.3400,9.4770,0.4036,0.3774,-0.5334,50.19,21.31,326.19,-5.8158,5.7804,3.0914,8.7631
12,5,0,0,1,16.387,16387,-7.7200,1.8300,5.0100,9.3834,0.3033,-0.7330,-2.0213,54.13,9.25,317.75,-6.0667,5.2598,3.3443,8.6980
12,5,0,0,1,16.508,16508,-9.6400,-0.4400,4.4600,10.6308,0.3349,-0.8476,-1.6864,60.00,-13.75,306.00,-6.5376,4.5087,3.4913,8.6751
12,5,0,0,1,16.635,16635,-9.1000,-2.1000,3.7500,10.0639,0.3774,-0.0284,-1.6995,57.88,-34.31,296.06,-6.8752,3.6379,3.5254,8.5400
12,5,0,0,1,16.756,16756,-6.5600,-3.8500,3.8500,8.5252,0.1571,0.2520,-1.4737,49.19,-46.25,286.25,-6.8337,2.6512,3.5682,8.1523
12,5,0,0,1,16.877,16877,-6.2800,-5.1000,3.7500,8.9169,0.2803,-0.1844,-0.9872,42.75,-53.81,278.94,-6.7607,1.6297,3.5921,7.8273
12,5,0,0,1,17.039,17039,-6.7200,-6.0900,3.2500,9.6337,0.0273,0.0611,-0.9272,38.31,-60.06,272.56,-6.7554,0.6125,3.5470,7.6545
12,5,0,0,1,17.162,17162,-5.1500,-6.8900,3.4300,9.2606,0.1178,0.7494,-0.7341,31.50,-60.50,268.19,-6.5438,-0.3762,3.5316,7.4455
12,5,0,0,1,17.287,17287,-3.2900,-7.6600,4.2800,9.3711,0.2847,0.6087,0.3414,28.31,-59.88,271.00,-6.1150,-1.3360,3.6302,7.2358
12,5,0,0,1,17.408,17408,-4.0200,-7.2000,4.2700,9.2862,-0.0142,-0.1265,0.4898,30.38,-59.13,274.94,-5.8390,-2.1087,3.7145,7.2345
12,6,0,0,1,17.529,17529,-6.0200,-6.5100,3.9800,9.7191,-0.0305,-0.3076,0.5814,34.25,-58.94,277.13,-5.8628,-2.6887,3.7495,7.4606
12,6,0,0,1,17.650,17650,-7.5500,-5.9300,3.5600,10.2392,0.0393,0.2913,0.4985,36.81,-57.94,279.88,-6.0852,-3.1158,3.7245,7.7852
12,6,0,0,1,17.771,17771,-5.5700,-5.7600,4.0400,8.9735,0.2651,0.4003,1.0057,40.25,-54.38,288.00,-6.0173,-3.4642,3.7661,7.8989
12,6,0,0,1,17.893,17893,-7.2600,-6.2400,4.3900,10.5317,-0.4985,-0.3643,0.3371,44.00,-52.25,291.69,-6.1810,-3.8300,3.8483,8.2270
12,6,0,0,1,18.055,18055,-5.4900,-3.5200,3.8300,7.5630,0.0480,0.7276,1.1116,48.00,-40.31,298.19,-6.0900,-3.7892,3.8459,8.1386
12,6,0,0,1,18.180,18180,-4.8200,-4.2100,4.7200,7.9520,-0.1156,-0.4025,0.5105,50.31,-35.75,303.88,-5.9226,-3.8446,3.9611,8.0962
12,6,0,0,1,18.301,18301,-8.2000,-2.0100,4.0900,9.3813,-1.4650,-1.1399,2.0966,60.06,-22.81,307.56,-6.2227,-3.6029,3.9781,8.2175
12,6,0,0,1,18.421,18421,-10.7200,5.3400,2.1600,12.1696,-0.0873,-0.3305,2.2166,66.13,16.00,318.94,-6.8153,-2.4244,3.7385,8.1427
12,6,0,0,1,18.542,18542,-10.5400,2.1600,4.1600,11.5353,0.8694,0.9185,1.2621,59.88,28.56,332.13,-7.3062,-1.8203,3.7940,8.4314
12,6,0,0,1,18.664,18664,-5.5900,3.0400,4.3600,7.7136,0.1004,1.6155,1.7181,46.56,30.63,341.69,-7.0800,-1.1798,3.8686,8.1538
12,6,0,0,1,18.784,18784,-2.6300,4.5000,5.8700,7.8501,-1.2468,-0.3054,1.6221,35.94,40.38,351.19,-6.4936,-0.4314,4.1324,7.7091
12,6,0,0,1,18.906,18906,-4.7600,7.7400,2.8500,9.5230,-1.7922,-1.4475,0.7974,34.75,59.63,357.56,-6.2652,0.6454,3.9634,7.4416
12,6,0,0,1,19.073,19073,-4.9500,10.4500,1.0900,11.6143,-0.5454,-0.3785,2.3333,24.38,78.81,13.69,-6.0919,1.9374,3.5847,7.3290
12,6,0,0,1,19.194,19194,-2.1900,10.2100,1.7100,10.5813,-0.0131,0.5563,1.6210,10.81,80.19,25.81,-5.5777,3.0275,3.3377,7.1705
12,6,0,0,1,19.314,19314,0.1300,10.6600,1.6800,10.7924,-0.2913,0.3992,1.2894,0.81,81.13,31.88,-4.8256,4.0333,3.1193,7.0202
12,7,0,0,1,19.435,19435,-0.2500,10.8800,1.6900,11.0133,-0.3185,-0.3425,0.5203,-4.56,82.88,37.88,-4.2226,4.9355,2.9309,7.1260
12,7,0,0,1,19.556,19556,-0.7400,11.1600,1.1700,11.2455,-0.2487,-0.2269,-0.3185,-4.94,84.75,40.63,-3.7637,5.7557,2.6989,7.3877
12,7,0,0,1,19.677,19677,-1.3500,11.6400,0.9200,11.7541,0.1069,-0.0415,-1.1650,1.25,85.06,35.06,-3.4456,6.5311,2.4645,7.7847
12,7,0,0,1,19.799,19799,-2.0700,11.1100,1.3100,11.3769,0.2683,-0.0665,-1.9220,10.94,83.63,25.94,-3.2644,7.1345,2.3123,8.1795
12,7,0,0,1,19.923,19923,-4.6800,9.4200,1.0800,10.5738,0.3567,0.2585,-3.1721,28.31,80.50,8.50,-3.4509,7.4357,2.1499,8.4747
12,7,0,0,1,20.087,20087,-6.8500,7.6500,1.3400,10.3557,1.1628,1.1410,-0.7461,47.31,62.06,345.31,-3.8988,7.4639,2.0432,8.6652
12,7,0,0,1,20.207,20207,-5.0400,4.7700,3.6600,7.8454,1.0897,0.6501,-0.3392,44.69,48.44,346.31,-4.0492,7.1089,2.2563,8.4867
12,7,0,0,1,20.328,20328,-6.1100,3.6700,4.9300,8.6664,0.6218,0.6240,-1.0232,45.38,35.13,341.44,-4.3208,6.6558,2.6086,8.3530
12,7,0,0,1,20.449,20449,-5.2600,2.4100,5.5800,8.0382,-0.2476,-0.3883,-0.6458,46.94,29.06,336.94,-4.4445,6.0963,3.0001,8.1191
12,7,0,0,1,20.570,20570,-7.2700,3.2700,4.1400,8.9825,-0.8279,-1.5981,-0.9239,55.81,32.06,330.81,-4.8169,5.7238,3.1504,8.1172
12,7,0,0,1,20.692,20692,-11.2500,2.7900,2.8400,11.9337,-0.4342,-1.0385,-1.2065,68.19,35.88,322.88,-5.6646,5.3372,3.1095,8.3811
12,7,0,0,1,20.813,20813,-12.2400,2.9600,1.9300,12.7399,0.2127,0.8683,-0.7756,71.31,20.88,315.88,-6.5311,5.0240,2.9540,8.7534
12,7,0,0,1,20.939,20939,-7.6200,1.4900,3.2300,8.4094,0.8149,1.6952,-1.1803,62.38,-0.81,311.88,-6.6745,4.5583,2.9904,8.6180
12,7,0,0,1,21.101,21101,-6.5200,-2.0800,4.9400,8.4404,0.1560,-0.0884,-0.7996,52.31,-22.56,304.63,-6.6542,3.6835,3.2473,8.2699
12,7,0,0,1,21.222,21222,-7.8500,-1.8100,4.2600,9.1130,0.3905,-1.2566,-0.6621,55.19,-31.81,300.38,-6.8118,2.9596,3.3808,8.1602
12,7,0,0,1,21.343,21343,-10.2800,-4.6400,4.2600,12.0564,0.1124,-0.9567,-2.0377,54.75,-52.19,289.81,-7.2688,1.9582,3.4966,8.3004
12,7,0,0,1,21.465,21465,-10.0000,-4.3700,2.3600,11.1654,0.1331,1.4595,-1.5926,43.69,-59.56,278.19,-7.6287,1.1243,3.3468,8.4061
12,7,0,0,1,21.591,21591,-1.8500,-5.5600,2.5200,6.3786,1.0854,2.9791,-1.1039,26.69,-57.13,279.31,-6.8672,0.2435,3.2379,7.5962
12,7,0,0,1,21.712,21712,-0.3100,-8.9900,4.5600,10.0851,0.2345,0.0207,0.7516,20.81,-59.94,286.31,-6.0031,-0.9733,3.4121,6.9733
12,7,0,0,1,21.832,21832,-3.1700,-7.6400,3.6100,9.0250,-0.3720,-1.9362,-0.3676,25.69,-60.63,282.63,-5.6298,-1.8518,3.4382,6.8516
12,8,0,0,1,21.953,21953,-7.4600,-6.8900,3.1600,10.6353,-0.2116,-1.6406,0.2902,30.94,-64.75,273.81,-5.8710,-2.5157,3.4015,7.2365
12,8,0,0,1,22.115,22115,-6.6900,-6.8900,2.9000,10.0319,0.0491,0.4254,-0.2018,34.69,-66.75,272.94,-5.9789,-3.0921,3.3354,7.5122
12,8,0,0,1,22.236,22236,-5.0300,-6.8900,3.1300,9.0868,-0.0011,0.7952,0.2073,32.00,-64.38,275.06,-5.8539,-3.5926,3.3084,7.6236
12,8,0,0,1,22.357,22357,-4.0300,-6.9600,3.6500,8.8320,-0.0535,0.2771,0.5138,33.00,-61.38,280.00,-5.6135,-4.0363,3.3534,7.6843
12,8,0,0,1,22.480,22480,-4.2200,-6.6700,3.5400,8.6504,-0.5192,-0.1080,0.9730,35.44,-58.50,283.00,-5.4299,-4.3834,3.3780,7.7530
12,8,0,0,1,22.604,22604,-6.3700,-4.5800,3.9500,8.7838,-0.7330,-0.1004,1.3875,43.25,-49.94,289.50,-5.5538,-4.4093,3.4534,7.8874
12,8,0,0,1,22.726,22726,-7.1800,-2.2600,4.2800,8.6590,-0.5672,-0.0840,1.8697,50.81,-37.88,297.94,-5.7681,-4.1261,3.5623,7.9363
12,8,0,0,1,22.846,22846,-7.7500,0.0800,4.3500,8.8877,-0.7472,-0.3600,2.2362,58.88,-16.88,309.38,-6.0292,-3.5718,3.6661,7.9088
12,8,0,0,1,22.967,22967,-8.0300,3.6600,3.5400,9.5083,-0.7418,-0.3087,2.4151,61.50,15.88,321.94,-6.2929,-2.6188,3.6495,7.7316
12,8,0,0,1,23.129,23129,-6.6400,6.1600,3.5100,9.7137,-0.5934,0.1080,2.7031,49.38,49.50,341.56,-6.3386,-1.4620,3.6311,7.4499
12,8,0,0,1,23.255,23255,-4.0000,9.4500,2.6600,10.6009,-0.9741,-0.3153,2.6169,34.56,64.50,357.56,-6.0305,-0.0241,3.5031,6.9742
12,8,0,0,1,23.376,23376,-3.7800,11.0100,2.1600,11.8395,-0.8825,-0.5291,1.7715,21.25,75.69,12.69,-5.7339,1.4299,3.3261,6.7813
12,8,0,0,1,23.497,23497,-3.1300,11.0400,1.1200,11.5297,-0.4363,-0.3872,1.0352,13.00,81.50,23.38,-5.3908,2.6963,3.0354,6.7486
12,8,0,0,1,23.618,23618,-2.4100,10.4700,0.9100,10.7823,-0.0709,0.2553,0.6872,8.19,83.31,28.56,-4.9980,3.7207,2.7553,6.8129
12,8,0,0,1,23.739,23739,-1.0200,10.9200,0.8500,11.0004,0.0993,0.5301,0.4603,3.94,82.94,29.88,-4.4738,4.6694,2.5043,6.9346
12,8,0,0,1,23.860,23860,-0.1100,10.0700,1.6600,10.2065,0.0894,0.3687,-0.3360,3.06,81.81,27.75,-3.8988,5.3810,2.3930,7.0627
12,8,0,0,1,23.981,23981,-3.0200,10.1100,1.2300,10.6229,-0.1189,0.3447,-1.0603,8.44,82.13,20.50,-3.7830,6.0042,2.2398,7.4416
12,8,0,0,1,24.149,24149,1.5000,9.7100,1.9800,10.0227,1.6035,1.0657,0.5378,4.25,74.00,10.75,-3.0868,6.4925,2.2055,7.5197
12,8,0,0,1,24.270,24270,0.3700,9.6700,3.9200,10.4409,0.3480,-0.0033,-2.0791,9.38,66.69,0.19,-2.6313,6.9112,2.4315,7.7846
12,8,0,0,1,24.390,24390,-4.5000,7.5200,4.5600,9.8790,1.2261,-0.9021,-1.9122,24.56,59.75,349.06,-2.8775,6.9914,2.7119,8.0321
12,8,0,0,1,24.511,24511,-5.8500,5.7400,4.7300,9.4627,-1.0417,-0.7036,-0.8508,34.56,59.13,343.81,-3.2692,6.8265,2.9779,8.1337
12,8,0,0,1,24.632,24632,-6.0700,9.6600,0.8900,11.4435,-0.3742,-0.2127,-1.7595,43.13,65.19,334.38,-3.6383,7.1999,2.7027,8.5077
12,8,0,0,1,24.754,24754,-9.5200,7.9100,0.9800,12.4161,1.8511,1.6635,-1.3734,51.63,49.06,322.75,-4.4134,7.2935,2.4757,8.8770
12,8,0,0,1,24.875,24875,-4.1300,1.4800,5.8400,7.3043,2.4107,1.8642,1.0417,40.31,24.13,328.44,-4.3760,6.5274,2.9191,8.3832
12,8,0,0,1,25.001,25001,-1.6200,1.4400,7.7200,8.0185,0.1963,-0.6010,-1.4181,36.00,14.00,329.38,-4.0128,5.8570,3.5517,7.9387
12,8,0,0,1,25.163,25163,-9.9800,-0.4800,3.3800,10.5478,-0.4440,-2.7958,-1.2010,60.38,2.56,313.94,-4.7992,5.0220,3.5291,7.7914
12,8,0,0,1,25.284,25284,-10.3400,2.6500,1.6600,10.8025,-0.4178,-0.1974,-0.2302,70.38,3.25,308.94,-5.5293,4.7094,3.2828,7.9705
12,8,0,0,1,25.405,25405,-8.9800,-0.5800,3.8700,9.7956,1.0210,0.8519,-0.6763,66.13,-10.44,306.75,-5.9840,4.0124,3.3602,7.9497
12,8,0,0,1,25.527,25527,-7.9700,-0.7600,4.2700,9.0737,0.0360,0.2193,-0.4112,61.75,-17.19,306.56,-6.2457,3.3835,3.4801,7.9100
12,8,0,0,1,25.653,25653,-9.1700,0.0300,3.1400,9.6927,0.1822,0.0818,-0.8770,60.06,-25.44,301.69,-6.6311,2.9416,3.4352,8.0265
12,8,0,0,1,25.774,25774,-8.1800,-2.5200,4.3700,9.6104,0.6021,0.8039,-0.4222,54.31,-33.56,302.06,-6.8352,2.2219,3.5584,8.0199
12,8,0,0,1,25.895,25895,-7.0800,-3.7400,5.7000,9.8287,0.3283,-0.1047,-1.2534,48.94,-39.56,299.94,-6.8674,1.4363,3.8406,7.9984
12,8,0,0,1,26.016,26016,-7.9900,-4.6400,4.1900,10.1452,0.2040,-0.9556,-1.1323,45.94,-50.44,290.75,-7.0154,0.6356,3.8867,8.0452
12,8,0,0,1,26.178,26178,-7.1000,-5.6700,2.9400,9.5500,0.1974,-0.1134,-1.3908,39.63,-62.81,277.56,-7.0265,-0.1953,3.7619,7.9726
12,8,0,0,1,26.300,26300,-5.2100,-6.9900,2.9800,9.2133,0.2869,0.6523,-0.8301,31.50,-65.19,271.69,-6.7871,-1.0907,3.6589,7.7873
12,8,0,0,1,26.421,26421,-4.2900,-7.4700,3.4200,9.2683,0.0098,0.5236,-0.0022,27.94,-64.38,272.69,-6.4581,-1.9313,3.6274,7.6547
12,9,0,0,1,26.546,26546,-4.3800,-7.3800,3.9800,9.4599,-0.0927,-0.0240,-0.1124,27.31,-63.38,273.44,-6.1842,-2.6493,3.6739,7.6656
12,9,0,0,1,26.668,26668,-5.1400,-6.7100,3.6700,9.2148,-0.1385,-0.2869,0.1374,27.63,-63.25,272.00,-6.0466,-3.1844,3.6734,7.7586
12,9,0,0,1,26.789,26789,-5.2500,-6.6100,3.5500,9.1574,-0.0829,-0.1582,0.2771,30.44,-62.63,272.69,-5.9417,-3.6358,3.6571,7.8675
12,9,0,0,1,26.909,26909,-5.5400,-6.7800,3.8100,9.5486,-0.0829,-0.0622,0.6392,33.81,-61.63,275.44,-5.8887,-4.0501,3.6772,8.0376
12,9,0,0,1,27.030,27030,-5.7300,-5.9200,3.6700,9.0193,-0.2291,-0.0774,1.0865,39.44,-58.56,281.13,-5.8678,-4.2965,3.6763,8.1490
12,9,0,0,1,27.193,27193,-7.0500,-3.4000,3.5500,8.5945,-0.4178,0.0109,1.6962,49.19,-49.13,291.69,-6.0236,-4.1784,3.6597,8.1936
12,9,0,0,1,27.319,27319,-8.1300,-1.8300,3.5400,9.0541,-0.2651,-0.0065,2.2504,58.06,-33.06,304.19,-6.3012,-3.8689,3.6439,8.2433
12,9,0,0,1,27.440,27440,-7.8400,0.9500,3.7300,8.7339,-0.6960,0.1145,2.4096,62.94,0.00,319.06,-6.5039,-3.2339,3.6552,8.1314
12,9,0,0,1,27.560,27560,-7.5300,4.1700,3.3300,9.2292,-0.5912,0.1167,2.5994,57.25,32.81,333.31,-6.6392,-2.2583,3.6124,7.8884
12,9,0,0,1,27.681,27681,-6.1700,6.7600,3.6600,9.8571,-0.6436,0.6021,2.9605,43.19,51.06,348.44,-6.5773,-1.0699,3.6187,7.5829
12,9,0,0,1,27.802,27802,-1.7300,9.0400,3.5000,9.8471,-1.2021,0.5072,2.7773,24.19,62.31,4.25,-5.9386,0.2623,3.6030,6.9511
12,9,0,0,1,27.924,27924,-0.5500,12.0100,2.8200,12.3489,-0.9207,0.0131,1.9984,9.13,71.63,17.19,-5.2285,1.8104,3.4998,6.5470
12,9,0,0,1,28.045,28045,-0.7300,10.6500,3.1200,11.1216,-0.5072,0.0393,1.5195,-1.69,75.75,28.44,-4.6357,2.9752,3.4498,6.4994
12,9,0,0,1,28.212,28212,1.8700,11.4000,1.8300,11.6964,-0.2258,0.2967,0.7178,-13.75,80.56,39.06,-3.7784,4.0854,3.2363,6.4374
12,9,0,0,1,28.332,28332,1.6000,10.1400,1.9200,10.4435,0.3229,0.1931,-0.1953,-14.25,79.75,37.81,-3.0697,4.8832,3.0629,6.5307
12,9,0,0,1,28.453,28453,2.5300,9.8200,1.7300,10.2872,0.1549,0.2007,-0.2760,-13.38,78.50,35.25,-2.3318,5.5338,2.8872,6.6630
12,9,0,0,1,28.574,28574,2.0300,9.3000,1.8000,9.6877,0.0807,-0.0065,-0.9610,-9.56,78.31,30.44,-1.7570,6.0301,2.7440,6.8541
12,9,0,0,1,28.695,28695,0.7200,9.8900,1.8300,10.0836,-0.1549,-0.1822,-0.8367,-3.19,78.81,21.63,-1.4306,6.5387,2.6235,7.1892
12,9,0,0,1,28.817,28817,-0.7800,10.4700,1.9800,10.6841,0.0687,-0.2836,-1.4039,4.25,79.13,15.56,-1.3449,7.0567,2.5387,7.6192
12,9,0,0,1,28.938,28938,-3.6200,9.9100,2.1300,10.7633,0.0774,-0.0567,-1.8097,15.81,78.19,5.00,-1.6447,7.4327,2.4849,8.0078
12,9,0,0,1,29.064,29064,-4.6600,10.6700,1.6200,11.7554,0.3087,0.2149,-1.3504,25.81,75.81,354.56,-2.0420,7.8593,2.3709,8.4593
12,9,0,0,1,29.226,29226,-5.6400,7.7800,2.7900,10.0061,0.7799,-0.0218,-1.8915,40.06,65.13,341.13,-2.5161,7.8489,2.4261,8.5920
12,9,0,0,1,29.347,29347,-7.5200,6.0600,2.7800,10.0500,0.4778,-0.0371,-2.2253,52.63,54.06,329.06,-3.1755,7.6131,2.4728,8.6115
12,9,0,0,1,29.468,29468,-9.3400,3.7800,3.0600,10.5303,0.8290,0.2858,-2.1348,62.25,31.94,317.00,-3.9878,7.1080,2.5501,8.5399
12,9,0,0,1,29.590,29590,-7.6800,2.1900,3.6700,8.7890,0.8552,0.5007,-1.5272,62.75,3.00,308.56,-4.4744,6.4600,2.6977,8.3084
12,9,0,0,1,29.716,29716,-6.5600,-0.8200,3.8000,7.6254,0.9272,-0.1625,-1.8446,59.63,-23.81,301.00,-4.7492,5.5006,2.8430,7.8035
12,9,0,0,1,29.837,29837,-7.6400,-3.8400,3.7200,9.3249,0.3949,-0.2782,-1.6908,54.50,-45.63,291.06,-5.1301,4.2698,2.9585,7.3008
12,9,0,0,1,29.958,29958,-7.2300,-4.2900,3.0100,8.9296,0.3851,0.5029,-1.0647,46.25,-54.19,282.50,-5.4068,3.1418,2.9653,6.9209
12,9,0,0,1,30.078,30078,-6.1800,-6.2700,3.7700,9.5770,0.8116,0.4614,-0.3076,40.56,-58.44,281.94,-5.5087,1.9016,3.0714,6.5875
12,9,0,0,1,30.240,30240,-5.5700,-6.5100,2.7500,8.9982,0.1538,-0.3927,-0.4451,37.69,-62.69,281.25,-5.5168,0.7932,3.0290,6.3434
12,9,0,0,1,30.361,30361,-6.0500,-6.7200,2.7400,9.4482,-0.2334,-0.4789,-0.5618,36.06,-66.00,275.69,-5.5871,-0.1969,2.9909,6.3403
12,10,0,0,1,30.482,30482,-6.3800,-6.6200,2.9600,9.6587,-0.2585,-0.0360,-0.7374,33.00,-67.00,269.56,-5.6916,-1.0433,2.9868,6.5118
12,10,0,0,1,30.608,30608,-6.2800,-6.9100,3.5100,9.9753,0.1647,0.9632,-0.0404,29.50,-65.63,268.75,-5.7691,-1.8164,3.0558,6.7764
12,10,0,0,1,30.730,30730,-4.1600,-7.8500,3.9000,9.7025,0.2956,1.1039,0.2236,27.00,-63.31,276.25,-5.5571,-2.6114,3.1670,6.9087
12,10,0,0,1,30.852,30852,-3.0800,-7.7200,4.1000,9.2679,-0.1233,-0.0196,-0.0665,26.00,-61.94,278.88,-5.2306,-3.2846,3.2900,6.9980
12,10,0,0,1,30.972,30972,-4.0900,-7.3400,3.9300,9.2762,-0.3033,-0.6774,0.1702,26.56,-61.56,276.00,-5.0803,-3.8190,3.3743,7.1959
12,10,0,0,1,31.093,31093,-5.2700,-6.3900,3.7300,9.0839,-0.4603,-0.6785,0.8836,32.50,-60.25,276.50,-5.1053,-4.1578,3.4212,7.4200
12,10,0,0,1,31.261,31261,-5.8400,-5.1700,3.6500,8.6114,-0.4767,-0.2116,0.7472,41.06,-55.50,281.56,-5.2021,-4.2912,3.4513,7.5755
12,10,0,0,1,31.382,31382,-7.6900,-3.3200,3.5900,9.1130,-0.2291,-0.0720,1.8282,48.56,-47.50,289.50,-5.5300,-4.1632,3.4696,7.7428
12,10,0,0,1,31.503,31503,-7.8700,-1.9200,3.9900,9.0301,-0.1527,0.0131,2.0846,57.56,-32.38,303.13,-5.8383,-3.8676,3.5382,7.8462
12,10,0,0,1,31.624,31624,-8.0400,-0.1100,3.8100,8.8977,-0.6076,0.0131,1.7322,62.31,-9.88,314.06,-6.1285,-3.3725,3.5740,7.8552
12,10,0,0,1,31.746,31746,-7.6200,3.3600,3.2900,8.9542,-0.7254,-0.1233,2.5493,60.94,21.38,325.19,-6.3250,-2.4853,3.5366,7.6609
12,10,0,0,1,31.872,31872,-6.8800,5.9100,3.2300,9.6278,-0.7527,-0.0011,2.5493,51.44,48.44,339.94,-6.3981,-1.3790,3.4962,7.4203
12,10,0,0,1,31.992,31992,-4.4200,8.5300,2.7900,10.0041,-1.0101,0.1844,2.9463,35.88,63.69,354.81,-6.1375,-0.0733,3.4031,7.0182
12,10,0,0,1,32.114,32114,-2.1600,11.0900,2.3500,11.5402,-0.9588,-0.0851,2.5122,16.94,74.44,12.63,-5.6133,1.3978,3.2643,6.6422
12,10,0,0,1,32.276,32276,-0.8900,11.2100,1.7700,11.3837,-0.4963,0.2313,1.6308,-0.19,81.31,28.69,-4.9909,2.6908,3.0674,6.4466
12,10,0,0,1,32.397,32397,1.2900,11.0100,1.2900,11.1601,-0.1963,0.2760,1.4399,-10.81,83.56,37.69,-4.1633,3.7870,2.8332,6.3009
12,10,0,0,1,32.518,32518,2.0900,10.3700,1.2300,10.6498,0.0742,0.5094,0.2542,-16.50,84.50,40.94,-3.3392,4.6545,2.6219,6.3000
12,10,0,0,1,32.639,32639,2.2800,10.1400,1.2000,10.4622,0.3382,0.5596,-0.1505,-15.63,83.94,36.19,-2.5988,5.3774,2.4346,6.4495
12,10,0,0,1,32.760,32760,2.9800,9.7900,1.3400,10.3209,0.3709,0.3098,-0.2880,-14.63,82.31,31.69,-1.8636,5.9588,2.2903,6.6503
12,10,0,0,1,32.886,32886,2.3800,9.7400,1.6800,10.1663,0.1276,-0.0436,-0.7614,-11.44,81.06,27.25,-1.3044,6.4571,2.2099,6.9483
12,10,0,0,1,33.007,33007,0.6500,10.8900,1.5500,11.0189,-0.0327,-0.5127,-1.2948,-3.31,80.88,21.25,-1.0469,7.0412,2.1229,7.4284
12,10,0,0,1,33.128,33128,-1.5400,10.3600,1.7400,10.6174,0.1854,-0.6632,-1.9057,8.00,80.31,13.88,-1.1119,7.4786,2.0725,7.8397
12,10,0,0,1,33.291,33291,-4.9300,9.3500,1.7200,10.7091,0.5869,-0.1451,-2.5351,28.56,76.94,357.50,-1.6150,7.7252,2.0260,8.1481
12,10,0,0,1,33.417,33417,-6.5700,7.8700,1.8700,10.4211,0.5967,0.1102,-1.7530,42.31,69.50,344.81,-2.2679,7.7443,2.0055,8.3150
