participant,rep,equipment_code,exercise_code,quality_code,timestamp,timestamp_ms,accelX,accelY,accelZ,accelMag,gyroX,gyroY,gyroZ,roll,pitch,yaw,filteredX,filteredY,filteredZ,filteredMag
1,1,1,3,2,00.000,0,-5.4500,7.6700,-1.4700,9.5233,-0.0185,0.0240,0.0229,34.13,101.94,28.88,-5.0237,7.8747,-1.6078,9.4780
1,1,1,3,2,00.130,130,-5.2400,8.1600,-1.9800,9.8977,-0.0055,0.0065,0.0447,33.44,101.94,29.44,-5.0522,7.9123,-1.6569,9.5328
1,1,1,3,2,00.261,261,-5.8000,7.7500,-1.5500,9.8033,0.0142,0.0218,-0.0109,33.81,102.00,29.00,-5.1507,7.8909,-1.6428,9.5653
1,1,1,3,2,00.433,433,-5.0500,7.9300,-1.6800,9.5504,0.0055,0.0305,0.0774,32.88,101.63,29.75,-5.1375,7.8960,-1.6477,9.5633
1,1,1,3,2,00.563,563,-5.1900,8.0400,-1.6300,9.7075,0.0164,0.0262,-0.1254,32.94,101.44,29.63,-5.1444,7.9150,-1.6454,9.5822
1,1,1,3,2,00.693,693,-5.3800,7.7400,-1.7300,9.5836,0.0131,0.0196,-0.0818,34.06,101.44,28.38,-5.1754,7.8920,-1.6565,9.5819
1,1,1,3,2,00.823,823,-5.6600,7.8500,-1.6600,9.8190,0.0055,0.0218,-0.0175,34.38,101.38,28.00,-5.2393,7.8864,-1.6570,9.6120
1,1,1,3,2,00.953,953,-5.3500,8.0500,-1.7000,9.8140,0.0218,0.0567,0.0993,34.50,101.19,27.63,-5.2539,7.9080,-1.6626,9.6387
1,1,1,3,2,01.084,1084,-5.5700,7.6900,-1.5500,9.6210,0.0338,0.0349,-0.1385,34.63,100.75,27.50,-5.2955,7.8793,-1.6478,9.6354
1,1,1,3,2,01.214,1214,-5.5100,7.6900,-1.3900,9.5618,-0.0033,0.0305,0.0284,34.94,100.50,27.06,-5.3238,7.8543,-1.6138,9.6248
1,1,1,3,2,01.345,1345,-5.4900,7.7200,-1.4300,9.5804,-0.0262,0.0207,-0.0033,34.94,100.50,26.75,-5.3457,7.8366,-1.5896,9.6185
1,1,1,3,2,01.518,1518,-5.3100,8.5100,-1.5900,10.1560,0.0218,0.0316,0.5051,33.50,100.31,28.06,-5.3410,7.9254,-1.5897,9.6884
1,1,1,3,2,01.648,1648,-4.6500,8.0800,-1.2900,9.4113,0.0567,0.0316,0.0120,31.44,99.56,30.13,-5.2499,7.9457,-1.5502,9.6488
1,1,1,3,2,01.778,1778,-5.1400,7.8600,-1.4400,9.5012,0.0524,0.0164,-0.0622,32.19,99.19,29.50,-5.2355,7.9344,-1.5357,9.6293
1,1,1,3,2,01.909,1909,-4.9000,7.8600,-1.2200,9.3423,0.0349,0.0175,0.0349,32.06,98.81,29.75,-5.1912,7.9246,-1.4941,9.5907
1,1,1,3,2,02.039,2039,-6.3100,7.2400,-1.1300,9.6701,0.0131,-0.0338,-0.1429,32.63,98.75,29.31,-5.3387,7.8344,-1.4461,9.5901
1,1,1,3,2,02.169,2169,-3.6500,7.9600,-1.3900,8.8666,-0.0109,-0.0742,0.2443,31.81,99.00,30.50,-5.1161,7.8510,-1.4387,9.4806
1,1,1,3,2,02.299,2299,-4.5600,8.4000,-1.1000,9.6210,0.0153,-0.0862,-0.2934,32.06,99.38,30.81,-5.0429,7.9233,-1.3941,9.4949
1,1,1,3,2,02.429,2429,-4.8900,7.7000,-1.4400,9.2345,0.0622,-0.1036,-0.5585,34.50,99.81,29.06,-5.0227,7.8939,-1.4001,9.4605
1,1,1,3,2,02.602,2602,-6.6600,7.3700,-1.5000,10.0460,0.1233,-0.0273,-0.0687,38.69,100.06,26.31,-5.2385,7.8248,-1.4133,9.5219
1,1,1,3,2,02.732,2732,-5.9500,7.2500,-1.3600,9.4771,0.1571,-0.0055,0.0993,37.88,99.00,28.13,-5.3322,7.7491,-1.4063,9.5110
1,1,1,3,2,02.862,2862,-5.9200,7.2700,-1.1200,9.4421,0.1189,0.0044,0.1124,37.56,98.19,29.19,-5.4097,7.6860,-1.3685,9.4980
1,1,1,3,2,02.992,2992,-5.7800,8.2600,-1.1000,10.1413,0.0829,0.0055,0.4756,35.56,97.31,31.88,-5.4585,7.7616,-1.3331,9.5820
1,1,1,3,2,03.122,3122,-4.9100,8.2500,-1.0800,9.6611,0.0425,-0.0142,0.0458,32.94,96.69,35.13,-5.3862,7.8260,-1.2998,9.5889
1,1,1,3,2,03.252,3252,-5.9500,8.1800,-0.9400,10.1587,-0.0175,-0.0153,-0.1320,33.88,96.81,34.50,-5.4605,7.8726,-1.2524,9.6625
1,1,1,3,2,03.382,3382,-5.8800,9.7000,-0.9200,11.3803,-0.0120,-0.0033,0.6250,32.13,96.81,36.31,-5.5158,8.1134,-1.2086,9.8849
1,1,1,3,2,03.512,3512,-4.9300,9.9100,-1.0700,11.1202,0.0109,-0.0011,0.3523,28.13,96.44,40.44,-5.4386,8.3502,-1.1903,10.0360
1,1,1,3,2,03.685,3685,-5.5800,9.4100,-0.8100,10.9700,0.0360,0.0316,-0.2531,28.81,96.38,39.81,-5.4572,8.4898,-1.1402,10.1567
1,1,1,3,2,03.815,3815,-5.3700,8.7300,-0.6900,10.2726,0.0665,0.1178,-0.2280,30.56,95.69,37.75,-5.4457,8.5215,-1.0809,10.1705
1,2,1,3,2,03.945,3945,-5.2100,7.9400,-0.6000,9.5157,0.0469,0.1505,-0.2847,32.63,94.69,35.19,-5.4147,8.4448,-1.0175,10.0831
1,2,1,3,2,04.075,4075,-4.9300,7.6300,-0.5300,9.0996,-0.0131,0.0916,-0.2127,34.44,94.06,32.69,-5.3508,8.3375,-0.9533,9.9525
1,2,1,3,2,04.205,4205,-5.2100,7.7100,-0.4000,9.3139,-0.0447,0.0251,-0.1789,35.75,94.00,30.94,-5.3322,8.2548,-0.8804,9.8666
1,2,1,3,2,04.335,4335,-5.3400,7.6100,-0.5200,9.3112,-0.0807,-0.0316,-0.0905,36.50,94.50,30.13,-5.3333,8.1698,-0.8329,9.7920
1,2,1,3,2,04.466,4466,-5.8900,7.4800,-0.7600,9.5509,-0.0949,-0.0480,-0.2193,37.63,95.44,28.75,-5.4066,8.0789,-0.8233,9.7559
1,2,1,3,2,04.596,4596,-6.1800,7.5600,-1.0100,9.8166,-0.0884,-0.0371,-0.0458,38.19,96.38,28.00,-5.5085,8.0105,-0.8479,9.7587
1,2,1,3,2,04.769,4769,-4.5400,6.9700,-0.7900,8.3556,-0.0469,0.0371,0.0622,37.50,96.94,28.25,-5.3809,7.8734,-0.8403,9.5735
1,2,1,3,2,04.900,4900,-4.8700,5.2500,-0.9500,7.2237,-0.1265,-0.0338,-1.0810,42.19,98.00,23.13,-5.3136,7.5277,-0.8547,9.2537
1,2,1,3,2,05.031,5031,-6.8200,7.0000,-1.2100,9.8477,-0.0851,-0.0338,0.2683,44.56,99.44,20.50,-5.5121,7.4582,-0.9015,9.3177
1,2,1,3,2,05.161,5161,-6.8900,6.8900,-1.2400,9.8225,-0.0207,0.0098,0.0567,43.31,99.69,21.63,-5.6937,7.3833,-0.9461,9.3716
1,2,1,3,2,05.291,5291,-6.9000,7.4600,-1.3400,10.2497,0.0229,0.0338,0.2127,42.56,99.56,22.25,-5.8526,7.3934,-0.9980,9.4822
1,2,1,3,2,05.421,5421,-5.9500,7.2500,-1.1100,9.4444,0.0764,0.0524,0.1876,40.81,98.56,24.19,-5.8655,7.3745,-1.0128,9.4770
1,2,1,3,2,05.551,5551,-4.9000,7.4800,-1.1700,9.0183,0.0894,0.0131,0.2193,39.81,97.63,25.50,-5.7382,7.3884,-1.0335,9.4119
1,2,1,3,2,05.681,5681,-6.1700,7.1700,-0.7500,9.4890,0.0425,-0.0185,-0.0851,39.69,97.19,26.13,-5.7951,7.3596,-0.9961,9.4202
1,2,1,3,2,05.854,5854,-6.1100,7.2200,-0.9100,9.5020,-0.0633,-0.0513,0.1996,39.13,97.50,27.13,-5.8366,7.3412,-0.9848,9.4303
1,2,1,3,2,05.984,5984,-5.7300,7.7200,-1.1400,9.6815,-0.1036,-0.0556,0.1124,37.56,98.31,28.63,-5.8226,7.3911,-1.0052,9.4627
1,2,1,3,2,06.114,6114,-5.9000,7.7600,-1.3000,9.8345,-0.0720,-0.0338,0.0185,37.00,99.19,28.63,-5.8328,7.4398,-1.0441,9.5111
1,2,1,3,2,06.244,6244,-5.5800,7.3100,-1.3000,9.2878,-0.0262,-0.0065,-0.1691,37.44,99.69,27.94,-5.7995,7.4227,-1.0778,9.4811
1,2,1,3,2,06.374,6374,-5.7600,6.9500,-1.1800,9.1034,-0.0022,0.0109,-0.1113,38.50,99.81,26.81,-5.7943,7.3604,-1.0913,9.4308
1,2,1,3,2,06.504,6504,-5.9200,7.3200,-1.2400,9.4956,-0.0076,-0.0153,0.1254,38.69,99.88,26.56,-5.8108,7.3551,-1.1109,9.4391
1,2,1,3,2,06.634,6634,-5.2900,7.1100,-1.4000,8.9720,-0.0229,-0.0404,0.0087,37.81,100.06,27.63,-5.7422,7.3228,-1.1490,9.3763
1,2,1,3,2,06.765,6765,-5.4400,7.5000,-1.2100,9.3439,-0.0338,-0.0469,0.0829,37.19,100.44,28.31,-5.7024,7.3461,-1.1570,9.3713
1,2,1,3,2,06.937,6937,-6.0400,7.5400,-1.5200,9.7798,-0.0229,-0.0654,-0.0327,37.63,101.25,28.06,-5.7469,7.3717,-1.2048,9.4244
1,2,1,3,2,07.067,7067,-5.7700,7.6900,-1.8200,9.7848,0.0196,-0.0818,0.0949,37.13,101.75,28.94,-5.7499,7.4136,-1.2859,9.4698
1,2,1,3,2,07.197,7197,-5.5900,8.1700,-1.6900,10.0426,0.1560,-0.0251,0.3643,35.13,101.31,31.75,-5.7288,7.5133,-1.3392,9.5427
1,2,1,3,2,07.327,7327,-5.3000,7.6700,-1.8600,9.5068,0.2127,0.0589,0.0360,33.88,99.63,33.81,-5.6723,7.5339,-1.4078,9.5351
1,2,1,3,2,07.457,7457,-5.5600,7.3500,-0.8400,9.2543,0.1254,0.0829,-0.1996,34.81,98.19,33.25,-5.6575,7.5097,-1.3330,9.4963
1,2,1,3,2,07.588,7588,-6.0500,7.3500,-0.5300,9.5345,0.0600,0.0785,-0.1462,36.50,96.94,31.50,-5.7092,7.4887,-1.2272,9.4964
1,2,1,3,2,07.718,7718,-6.2000,8.4700,-0.7800,10.5256,0.0305,0.1102,0.4592,34.88,96.00,32.75,-5.7739,7.6180,-1.1682,9.6300
1,2,1,3,2,07.849,7849,-5.1000,9.8600,-1.0500,11.1504,0.0480,0.0916,0.4167,31.44,95.00,35.75,-5.6851,7.9134,-1.1527,9.8118
1,2,1,3,2,08.022,8022,-5.4700,9.0700,-0.6400,10.6111,0.0535,0.0142,-0.2956,32.44,94.19,34.63,-5.6568,8.0658,-1.0851,9.9113
1,2,1,3,2,08.153,8153,-6.2800,8.8700,-0.5800,10.8836,0.0044,-0.0098,-0.2749,34.38,94.13,32.81,-5.7389,8.1718,-1.0185,10.0375
1,2,1,3,2,08.283,8283,-6.2300,8.1500,-0.4800,10.2697,-0.0469,0.0120,-0.3469,36.25,94.31,30.81,-5.8036,8.1689,-0.9476,10.0653
1,3,1,3,2,08.413,8413,-6.0800,7.0600,-0.4700,9.3290,-0.1374,-0.0393,-0.6534,39.94,95.31,26.75,-5.8400,8.0228,-0.8846,9.9626
1,3,1,3,2,08.543,8543,-6.5700,6.9100,-0.8500,9.5726,-0.1811,-0.1091,-0.1822,43.19,97.38,23.13,-5.9362,7.8762,-0.8801,9.9019
1,3,1,3,2,08.673,8673,-6.1500,6.7400,-1.2500,9.2094,-0.1887,-0.1713,-0.2803,44.25,99.88,21.69,-5.9644,7.7264,-0.9288,9.8048
1,3,1,3,2,08.803,8803,-7.0400,6.5100,-1.6000,9.7212,-0.1625,-0.2193,-0.4069,46.81,103.25,19.13,-6.1061,7.5661,-1.0173,9.7758
1,3,1,3,2,08.933,8933,-7.6900,6.0400,-1.9500,9.9710,-0.1462,-0.1942,-0.2531,48.88,106.69,16.94,-6.3148,7.3650,-1.1402,9.7684
1,3,1,3,2,09.106,9106,-7.8100,5.7100,-1.9500,9.8693,-0.1200,-0.0862,0.0207,49.44,109.81,15.94,-6.5119,7.1469,-1.2469,9.7487
1,3,1,3,2,09.236,9236,-7.1300,5.9900,-2.6300,9.6765,-0.1298,-0.0327,0.2127,47.88,110.44,16.81,-6.5933,6.9945,-1.4292,9.7179
1,3,1,3,2,09.366,9366,-5.8700,4.2700,-1.8100,7.4810,-0.1342,-0.0164,-0.1713,48.25,111.75,15.63,-6.4980,6.6355,-1.4793,9.4044
1,3,1,3,2,09.496,9496,-7.7200,6.1300,-2.6900,10.2182,-0.1909,-0.0240,0.1429,48.88,113.63,13.69,-6.6590,6.5689,-1.6389,9.4962
1,3,1,3,2,09.626,9626,-6.2000,6.3700,-2.8300,9.3288,-0.0360,0.0371,0.2149,46.75,113.25,15.06,-6.5985,6.5427,-1.7958,9.4643
1,3,1,3,2,09.756,9756,-7.0700,6.5000,-2.6900,9.9735,0.0360,0.0055,0.0415,46.81,113.06,15.00,-6.6607,6.5370,-1.9137,9.5268
1,3,1,3,2,09.887,9887,-6.6300,6.5500,-2.7000,9.7031,0.0916,0.0447,0.2258,45.69,111.81,16.63,-6.6566,6.5387,-2.0173,9.5465
1,3,1,3,2,10.017,10017,-6.5100,6.3200,-2.5300,9.4193,0.0753,0.0229,0.0087,45.00,110.75,17.81,-6.6373,6.5099,-2.0848,9.5278
1,3,1,3,2,10.190,10190,-7.1000,6.5100,-2.3300,9.9105,0.0022,0.0087,0.3043,44.19,110.25,19.00,-6.6983,6.5099,-2.1171,9.5775
1,3,1,3,2,10.321,10321,-6.3300,6.4500,-2.2000,9.3012,-0.0087,0.0087,0.2923,41.94,109.38,21.31,-6.6497,6.5020,-2.1281,9.5407
1,3,1,3,2,10.451,10451,-6.5100,7.4600,-2.6000,10.2368,-0.0425,0.0360,0.4974,39.81,108.88,23.31,-6.6313,6.6283,-2.1903,9.6284
1,3,1,3,2,10.581,10581,-5.8300,7.8900,-2.3700,10.0925,0.0065,0.1047,0.0796,37.63,107.88,25.13,-6.5257,6.7945,-2.2139,9.6774
1,3,1,3,2,10.711,10711,-6.0900,7.3900,-2.1900,9.8233,0.0774,0.1080,-0.1636,38.63,107.19,23.19,-6.4683,6.8730,-2.2108,9.6935
1,3,1,3,2,10.841,10841,-6.2900,7.2800,-1.9500,9.8166,0.1058,0.1625,0.0873,39.44,105.81,21.94,-6.4448,6.9266,-2.1764,9.7083
1,3,1,3,2,10.971,10971,-4.7900,6.9300,-1.8100,8.6166,0.0894,0.1145,-0.1276,39.00,104.06,21.88,-6.2268,6.9271,-2.1281,9.5544
1,3,1,3,2,11.102,11102,-5.9500,6.6600,-1.6100,9.0747,0.0753,0.0524,-0.1451,41.25,103.50,19.50,-6.1903,6.8919,-2.0599,9.4900
1,3,1,3,2,11.274,11274,-6.4200,6.1000,-1.5000,8.9820,0.0676,0.0371,-0.1014,42.63,102.94,18.38,-6.2206,6.7875,-1.9861,9.4186
1,3,1,3,2,11.404,11404,-6.2500,7.1800,-1.5900,9.6511,0.0785,0.0556,0.3054,42.13,102.06,19.06,-6.2244,6.8392,-1.9339,9.4477
1,3,1,3,2,11.534,11534,-6.1300,7.3300,-1.4500,9.6648,0.1342,0.0524,-0.0196,40.50,100.56,21.13,-6.2120,6.9039,-1.8701,9.4737
1,3,1,3,2,11.664,11664,-6.6100,7.3600,-1.0500,9.9481,0.1091,0.0338,0.2029,40.63,99.38,21.44,-6.2644,6.9640,-1.7621,9.5313
1,3,1,3,2,11.794,11794,-5.8000,7.9300,-0.9200,9.8677,0.0338,-0.0654,0.7189,37.31,98.44,25.31,-6.2032,7.0913,-1.6511,9.5652
1,3,1,3,2,11.924,11924,-5.0900,8.1500,-1.0000,9.6608,0.0491,-0.1702,-0.2967,34.44,98.50,29.00,-6.0565,7.2308,-1.5653,9.5612
1,3,1,3,2,12.055,12055,-6.2100,7.6000,-1.3000,9.9002,0.0120,-0.1800,-0.2214,36.50,99.44,28.00,-6.0768,7.2795,-1.5303,9.6052
1,3,1,3,2,12.186,12186,-5.5600,8.1400,-1.3600,9.9510,0.0240,-0.1385,-0.1124,36.75,100.31,28.81,-6.0087,7.3929,-1.5079,9.6453
1,3,1,3,2,12.359,12359,-7.7800,7.7400,-1.6300,11.0947,0.0000,-0.0436,-0.2040,40.56,101.44,25.94,-6.2421,7.4386,-1.5240,9.8295
1,3,1,3,2,12.489,12489,-7.5900,9.4100,-1.8400,12.2287,0.0196,0.0687,0.2345,39.44,101.13,27.38,-6.4197,7.6984,-1.5656,10.1454
1,3,1,3,2,12.620,12620,-7.7300,8.6200,-1.8300,11.7220,0.0644,0.1702,-0.5105,40.31,100.19,26.19,-6.5924,7.8198,-1.6005,10.3523
1,3,1,3,2,12.750,12750,-7.3100,7.3500,-0.9700,10.4115,0.0415,0.2389,-0.2454,43.94,98.88,22.00,-6.6869,7.7579,-1.5174,10.3539
1,4,1,3,2,12.881,12881,-7.3500,6.0900,-0.6300,9.5660,0.0698,0.1953,-0.5498,46.69,97.25,18.88,-6.7743,7.5381,-1.4004,10.2311
1,4,1,3,2,13.011,13011,-7.5600,5.8800,-0.9100,9.6206,0.0218,0.0851,0.2236,48.88,96.06,16.56,-6.8778,7.3196,-1.3358,10.1324
1,4,1,3,2,13.141,13141,-5.9200,6.7200,-0.5000,8.9697,-0.0295,-0.0316,0.2945,45.75,95.56,19.56,-6.7516,7.2406,-1.2257,9.9756
1,4,1,3,2,13.271,13271,-5.8400,6.4400,-0.3200,8.6995,-0.0393,-0.1276,0.0840,44.06,95.81,21.63,-6.6315,7.1351,-1.1063,9.8036
1,4,1,3,2,13.447,13447,-6.3100,6.7700,-0.8800,9.2964,-0.0873,-0.1844,-0.0142,43.06,97.69,23.13,-6.5891,7.0870,-1.0765,9.7366
1,4,1,3,2,13.578,13578,-6.0100,7.6700,-1.1700,9.8142,0.0131,-0.1484,0.6567,40.69,98.81,26.19,-6.5128,7.1638,-1.0888,9.7428
1,4,1,3,2,13.711,13711,-5.4300,4.0000,-0.7900,6.7904,0.0022,-0.1636,-1.1366,43.31,100.13,24.31,-6.3701,6.7469,-1.0495,9.3381
1,4,1,3,2,13.842,13842,-9.0000,7.7700,-2.1200,12.0776,0.0545,-0.1222,0.8759,42.81,101.00,25.63,-6.7167,6.8817,-1.1905,9.6897
1,4,1,3,2,13.972,13972,-6.2600,7.6000,-1.6500,9.9835,0.0393,-0.0993,0.2454,39.19,100.81,30.25,-6.6565,6.9764,-1.2511,9.7234
1,4,1,3,2,14.103,14103,-6.1000,7.8900,-1.6100,10.1022,0.0153,-0.0785,0.3414,37.81,100.81,32.25,-6.5832,7.0968,-1.2984,9.7667
1,4,1,3,2,14.233,14233,-4.9000,8.1400,-1.5500,9.6266,0.0109,-0.0415,0.2334,34.81,100.69,35.75,-6.3614,7.2342,-1.3315,9.7249
1,4,1,3,2,14.364,14364,-5.0100,7.6700,-1.8000,9.3364,-0.0109,0.0011,-0.1887,34.88,100.88,35.69,-6.1833,7.2917,-1.3933,9.6614
1,4,1,3,2,14.537,14537,-6.0500,7.7200,-1.4900,9.9207,0.0153,0.0764,-0.0251,35.94,100.81,34.25,-6.1657,7.3481,-1.4060,9.6947
1,4,1,3,2,14.667,14667,-5.6400,7.7300,-1.4800,9.6826,0.0305,0.1004,0.1854,36.13,100.06,33.56,-6.0965,7.3984,-1.4158,9.6906
1,4,1,3,2,14.797,14797,-5.5100,7.5000,-1.3000,9.3968,-0.0404,0.0600,0.1287,34.81,99.56,34.38,-6.0192,7.4118,-1.4005,9.6502
1,4,1,3,2,14.927,14927,-5.5200,8.0900,-1.2600,9.8745,-0.0633,0.0622,0.1036,34.19,99.56,34.38,-5.9534,7.5012,-1.3820,9.6758
1,4,1,3,2,15.057,15057,-5.0400,7.7400,-1.2300,9.3178,-0.0415,0.0349,-0.1996,34.19,99.69,33.75,-5.8330,7.5327,-1.3620,9.6239
1,4,1,3,2,15.187,15187,-5.6000,8.0000,-1.4100,9.8665,0.0196,0.0360,0.2683,34.69,99.69,32.81,-5.8023,7.5942,-1.3683,9.6546
1,4,1,3,2,15.318,15318,-4.5600,7.4400,-1.2700,8.8182,0.0676,0.0120,-0.1451,33.63,99.00,33.88,-5.6386,7.5739,-1.3553,9.5391
1,4,1,3,2,15.448,15448,-4.9900,6.7200,-1.3800,8.4831,0.0098,-0.0295,-0.3338,36.06,99.06,31.69,-5.5531,7.4614,-1.3586,9.3998
1,4,1,3,2,15.621,15621,-5.4800,6.8500,-1.2600,8.8623,-0.1004,-0.0993,-0.2291,38.25,100.25,29.69,-5.5435,7.3808,-1.3456,9.3283
1,4,1,3,2,15.751,15751,-6.2800,7.4300,-1.6900,9.8742,-0.1440,-0.1265,-0.0382,40.19,102.31,27.56,-5.6406,7.3873,-1.3910,9.3980
1,4,1,3,2,15.881,15881,-6.6800,7.7700,-1.6700,10.3819,-0.0382,-0.0687,-0.0851,40.25,103.50,27.56,-5.7775,7.4377,-1.4277,9.5257
1,4,1,3,2,16.011,16011,-6.6800,7.3400,-1.7900,10.0847,0.0960,0.0207,-0.2891,41.50,103.56,26.50,-5.8965,7.4249,-1.4755,9.5955
1,4,1,3,2,16.141,16141,-6.6800,6.2400,-1.6000,9.2801,0.1167,0.0949,-0.3622,43.69,102.75,24.75,-5.9997,7.2687,-1.4919,9.5424
1,4,1,3,2,16.272,16272,-7.1800,6.3500,-1.5800,9.7145,0.0447,0.0993,-0.3512,45.75,102.00,22.63,-6.1552,7.1477,-1.5035,9.5518
1,4,1,3,2,16.402,16402,-7.2200,5.9400,-1.2600,9.4340,-0.0654,0.0076,-0.2858,49.00,102.50,18.94,-6.2955,6.9885,-1.4714,9.5204
1,4,1,3,2,16.532,16532,-7.9300,6.8000,-1.4700,10.5492,-0.1276,-0.1451,-0.0458,49.25,104.06,18.25,-6.5109,6.9637,-1.4712,9.6462
1,4,1,3,2,16.705,16705,-8.8300,7.0700,-2.0200,11.4906,-0.0360,-0.1560,-0.1604,49.50,107.00,18.00,-6.8165,6.9777,-1.5435,9.8760
1,4,1,3,2,16.835,16835,-8.7900,7.0100,-2.3500,11.4859,0.0087,-0.0502,0.0600,49.56,107.88,18.19,-7.0766,6.9819,-1.6498,10.0771
1,4,1,3,2,16.965,16965,-8.4200,6.2800,-2.3500,10.7637,0.0044,-0.0360,-0.2673,50.13,108.44,18.44,-7.2536,6.8894,-1.7421,10.1545
1,5,1,3,2,17.095,17095,-7.4000,5.0400,-1.8300,9.1384,-0.0633,-0.0316,-0.7385,52.38,109.94,16.94,-7.2729,6.6457,-1.7537,10.0068
1,5,1,3,2,17.226,17226,-9.5600,4.4300,-2.0700,10.7379,-0.1145,-0.0098,-0.0513,56.94,113.31,11.75,-7.5743,6.3538,-1.7954,10.0480
1,5,1,3,2,17.356,17356,-7.9500,5.4100,-2.1400,9.8514,-0.0622,0.0196,0.2171,55.13,112.69,12.94,-7.6238,6.2294,-1.8408,10.0158
1,5,1,3,2,17.486,17486,-7.8200,5.5100,-2.2100,9.8182,-0.0033,0.0251,0.2127,53.81,112.00,13.94,-7.6496,6.1346,-1.8894,9.9860
1,5,1,3,2,17.617,17617,-7.6400,5.7500,-2.2200,9.8163,0.0327,0.0273,0.1898,52.38,110.81,15.75,-7.6484,6.0839,-1.9330,9.9623
1,5,1,3,2,17.789,17789,-6.8800,5.3000,-1.9000,8.8901,0.0742,0.0371,0.2171,50.88,109.25,17.75,-7.5471,5.9806,-1.9286,9.8207
1,5,1,3,2,17.919,17919,-7.0300,5.5700,-1.8700,9.1620,0.0938,0.0349,0.3174,49.38,107.75,19.81,-7.4790,5.9265,-1.9209,9.7339
1,5,1,3,2,18.049,18049,-5.6100,4.6900,-1.8700,7.5475,0.0894,0.0022,-0.1004,47.75,106.31,22.06,-7.2327,5.7636,-1.9142,9.4443
1,5,1,3,2,18.179,18179,-6.9500,5.8400,-1.5300,9.2059,0.0545,-0.0480,0.2323,47.56,105.94,22.69,-7.1954,5.7736,-1.8636,9.4118
1,5,1,3,2,18.309,18309,-6.4400,7.3400,-2.0200,9.9714,0.0371,-0.0371,0.3076,44.13,104.94,26.63,-7.0959,5.9800,-1.8842,9.4690
1,5,1,3,2,18.440,18440,-6.4500,6.1200,-1.7400,9.0600,-0.0109,-0.0698,0.1385,43.63,105.13,27.38,-7.0108,5.9985,-1.8652,9.4134
1,5,1,3,2,18.570,18570,-6.0900,7.5400,-1.9700,9.8904,-0.0360,-0.0436,0.5378,40.31,104.94,30.94,-6.8894,6.2016,-1.8790,9.4581
1,5,1,3,2,18.701,18701,-5.6700,7.6100,-2.1100,9.7218,-0.0458,-0.0382,-0.0894,38.75,105.19,32.44,-6.7288,6.3872,-1.9094,9.4720
1,5,1,3,2,18.874,18874,-6.1400,7.6800,-2.0200,10.0380,-0.0305,0.0393,0.0698,38.75,105.63,32.25,-6.6512,6.5576,-1.9240,9.5363
1,5,1,3,2,19.004,19004,-6.3900,7.1500,-2.1400,9.8252,0.0065,0.0884,-0.1462,39.50,105.44,31.06,-6.6168,6.6356,-1.9525,9.5721
1,5,1,3,2,19.134,19134,-6.3000,7.3200,-1.9800,9.8586,0.0185,0.1320,0.1953,39.13,104.63,31.00,-6.5750,6.7258,-1.9561,9.6070
1,5,1,3,2,19.264,19264,-5.3800,7.2700,-1.7800,9.2177,-0.0109,0.1244,0.0033,38.38,103.63,31.06,-6.4175,6.7975,-1.9329,9.5461
1,5,1,3,2,19.394,19394,-5.8000,7.1900,-1.6400,9.3822,-0.0622,0.0436,0.0055,38.75,103.56,30.13,-6.3362,6.8492,-1.8943,9.5209
1,5,1,3,2,19.524,19524,-5.0600,6.7000,-1.5600,8.5397,-0.0393,0.0131,0.0404,38.38,103.69,30.06,-6.1680,6.8296,-1.8502,9.3867
1,5,1,3,2,19.654,19654,-4.8700,6.6600,-1.8000,8.4447,-0.0349,-0.0185,0.0218,38.00,103.94,30.38,-5.9970,6.8072,-1.8436,9.2575
1,5,1,3,2,19.785,19785,-5.5100,6.6800,-1.7200,8.8284,-0.0218,-0.0807,-0.2945,38.88,104.88,29.63,-5.9328,6.7905,-1.8273,9.2004
1,5,1,3,2,19.958,19958,-5.8800,6.2300,-2.1000,8.8203,0.0185,-0.0753,-0.2454,40.88,105.94,27.88,-5.9258,6.7166,-1.8633,9.1488
1,5,1,3,2,20.088,20088,-7.1500,7.3000,-1.6900,10.3571,-0.0556,-0.0622,0.3818,40.25,106.44,28.81,-6.0871,6.7935,-1.8404,9.3055
1,5,1,3,2,20.218,20218,-6.3300,7.9100,-2.2600,10.3800,-0.0109,-0.0295,0.0556,38.25,106.50,30.81,-6.1191,6.9406,-1.8957,9.4451
1,5,1,3,2,20.348,20348,-7.0400,7.5500,-2.2500,10.5653,0.0753,0.0284,-0.2334,39.13,106.44,30.19,-6.2405,7.0209,-1.9424,9.5922
1,5,1,3,2,20.478,20478,-6.0900,7.2300,-2.1000,9.6835,0.1298,0.0916,0.2007,39.38,105.25,30.25,-6.2207,7.0485,-1.9632,9.6037
1,5,1,3,2,20.608,20608,-6.1300,7.0700,-1.5100,9.4785,0.1396,0.1287,-0.4091,39.56,103.63,30.31,-6.2087,7.0513,-1.9035,9.5860
1,5,1,3,2,20.739,20739,-7.9800,6.7900,-1.7700,10.6263,0.0360,0.1669,-0.5727,44.00,102.81,25.50,-6.4421,7.0169,-1.8859,9.7105
1,5,1,3,2,20.869,20869,-8.3000,7.4800,-1.4500,11.2669,0.0109,0.1298,0.2029,45.63,102.13,23.44,-6.6869,7.0779,-1.8284,9.9073
1,5,1,3,2,21.042,21042,-8.4300,8.8000,-1.6900,12.3029,0.0524,0.1789,0.0982,43.94,99.81,24.50,-6.9166,7.3048,-1.8102,10.2214
1,5,1,3,2,21.172,21172,-8.6400,7.6000,-1.1700,11.5663,-0.0044,0.1494,-0.1614,45.19,98.75,22.63,-7.1437,7.3437,-1.7258,10.3895
1,6,1,3,2,21.302,21302,-7.5000,6.8800,-1.0400,10.2306,-0.0371,0.1156,0.0393,45.38,98.00,21.56,-7.1907,7.2826,-1.6355,10.3642
1,6,1,3,2,21.432,21432,-7.2700,6.7500,-0.7900,9.9519,-0.0120,0.0316,0.1418,45.06,97.56,21.25,-7.2011,7.2124,-1.5240,10.3053
1,6,1,3,2,21.562,21562,-6.7800,8.0600,-0.9500,10.5752,-0.0295,-0.0851,0.4123,42.56,97.44,23.81,-7.1456,7.3241,-1.4484,10.3344
1,6,1,3,2,21.692,21692,-7.2100,6.5700,-0.9100,9.7968,0.0360,-0.1178,-0.3360,43.13,98.13,23.50,-7.1541,7.2247,-1.3775,10.2604
1,6,1,3,2,21.823,21823,-5.1000,6.2300,-0.5400,8.0694,0.0513,-0.0862,0.0916,41.94,98.38,25.50,-6.8834,7.0937,-1.2671,9.9653
1,6,1,3,2,21.953,21953,-6.5700,6.2000,-1.0400,9.0932,0.0578,-0.0273,-0.0273,42.94,98.38,25.00,-6.8421,6.9759,-1.2372,9.8493
1,6,1,3,2,22.126,22126,-5.6500,5.2100,-0.7000,7.7173,0.0316,-0.0153,-0.2760,43.13,98.13,25.13,-6.6850,6.7432,-1.1664,9.5667
1,6,1,3,2,22.257,22257,-6.6000,7.2800,-1.6000,9.9558,-0.0218,0.0011,0.3851,42.38,98.13,25.88,-6.6738,6.8139,-1.2235,9.6160
1,6,1,3,2,22.387,22387,-6.0700,7.3300,-0.7000,9.5427,0.0240,0.0327,-0.2487,41.25,97.94,26.88,-6.5943,6.8819,-1.1545,9.6010
1,6,1,3,2,22.518,22518,-6.1800,6.5600,-1.2200,9.0947,-0.0175,-0.0142,-0.1778,42.69,97.81,25.44,-6.5397,6.8395,-1.1632,9.5341
1,6,1,3,2,22.649,22649,-7.0000,7.1200,-0.7700,10.0144,0.0065,-0.0611,-0.1374,43.38,98.44,24.88,-6.6003,6.8765,-1.1114,9.5961
1,6,1,3,2,22.779,22779,-6.8600,6.5400,-1.2100,9.5549,0.0000,-0.0480,0.0709,43.81,98.94,24.69,-6.6346,6.8321,-1.1244,9.5896
1,6,1,3,2,22.909,22909,-6.8200,7.1600,-1.1800,9.9584,-0.0382,-0.0502,0.2542,42.56,99.31,26.06,-6.6590,6.8753,-1.1317,9.6381
1,6,1,3,2,23.039,23039,-6.5300,7.0600,-1.1700,9.6878,-0.0480,-0.0229,-0.0098,41.88,99.69,26.69,-6.6420,6.8997,-1.1367,9.6444
1,6,1,3,2,23.212,23212,-6.4300,7.5300,-1.1500,9.9684,-0.0065,0.0240,0.1320,40.56,99.81,27.88,-6.6141,6.9827,-1.1385,9.6851
1,6,1,3,2,23.342,23342,-6.0300,7.4400,-1.2700,9.6606,0.0425,0.0622,-0.1091,40.69,99.38,27.56,-6.5371,7.0430,-1.1558,9.6785
1,6,1,3,2,23.478,23478,-6.2500,6.7000,-1.2500,9.2474,0.0196,-0.0055,-0.0753,41.56,99.13,26.75,-6.4993,6.9978,-1.1682,9.6216
1,6,1,3,2,23.608,23608,-4.9800,7.0200,-0.7900,8.6432,-0.0284,-0.0993,0.5105,40.00,99.25,28.50,-6.2991,7.0007,-1.1184,9.4836
1,6,1,3,2,23.740,23740,-4.9800,6.6500,-1.7100,8.4822,-0.0415,-0.1800,-0.2673,38.56,100.25,30.69,-6.1252,6.9545,-1.1963,9.3442
1,6,1,3,2,23.871,23871,-5.5100,5.9400,-1.2600,8.1995,-0.0185,-0.1189,-0.4374,41.00,101.75,28.81,-6.0442,6.8208,-1.2047,9.1928
1,6,1,3,2,24.001,24001,-6.5500,6.9800,-1.4100,9.6753,0.0295,-0.0633,0.2127,42.13,102.63,28.06,-6.1108,6.8418,-1.2318,9.2558
1,6,1,3,2,24.132,24132,-6.2900,7.0700,-1.1800,9.5363,0.0960,0.0065,0.1745,40.69,101.75,30.13,-6.1344,6.8719,-1.2250,9.2927
1,6,1,3,2,24.305,24305,-8.0400,6.6100,-1.6600,10.5399,0.0382,0.0142,0.5552,40.00,100.81,31.31,-6.3855,6.8374,-1.2823,9.4429
1,6,1,3,2,24.435,24435,-4.6300,8.4200,-1.0000,9.6609,0.0218,0.0284,0.7843,33.25,99.63,38.00,-6.1542,7.0459,-1.2451,9.4377
1,6,1,3,2,24.566,24566,-4.4300,8.4100,-1.4200,9.6109,-0.0818,-0.0720,-0.5552,33.56,100.00,37.50,-5.9270,7.2257,-1.2681,9.4312
1,6,1,3,2,24.696,24696,-6.6300,7.3100,-1.8400,10.0389,-0.0567,-0.0862,-0.6490,39.50,101.75,31.56,-6.0196,7.2368,-1.3435,9.5085
1,6,1,3,2,24.826,24826,-6.8200,7.7000,-1.7200,10.4288,-0.0524,-0.0894,-0.1800,41.69,103.19,29.69,-6.1251,7.2978,-1.3931,9.6289
1,6,1,3,2,24.956,24956,-7.5700,6.9500,-1.8300,10.4382,-0.0360,-0.0098,-0.5803,44.00,104.25,27.38,-6.3155,7.2520,-1.4507,9.7253
1,6,1,3,2,25.086,25086,-9.0500,7.1100,-2.0200,11.6848,-0.0818,0.0360,-0.0415,46.63,105.31,24.81,-6.6758,7.2333,-1.5257,9.9607
1,6,1,3,2,25.216,25216,-7.9800,8.2400,-2.3600,11.7110,-0.0993,0.0829,0.2258,44.56,104.94,26.25,-6.8477,7.3659,-1.6356,10.1894
1,6,1,3,2,25.389,25389,-8.8000,6.5400,-1.8200,11.1141,-0.0971,0.0753,-0.2749,47.25,106.00,22.50,-7.1050,7.2571,-1.6599,10.2908
1,7,1,3,2,25.520,25520,-7.3100,6.3500,-1.7600,9.8416,-0.1244,0.1385,0.3371,46.31,105.69,22.19,-7.1320,7.1376,-1.6731,10.2279
1,7,1,3,2,25.650,25650,-6.3600,6.4000,-1.6200,9.1670,-0.1025,0.1036,0.1811,45.13,105.25,22.13,-7.0303,7.0404,-1.6661,10.0880
1,7,1,3,2,25.780,25780,-6.2800,6.9500,-1.9100,9.5598,-0.0382,0.0480,0.1342,43.94,104.88,22.50,-6.9314,7.0285,-1.6983,10.0164
1,7,1,3,2,25.910,25910,-5.9100,6.9200,-2.0100,9.3196,0.0840,-0.0022,0.0022,43.13,104.56,23.38,-6.7968,7.0142,-1.7393,9.9207
1,7,1,3,2,26.040,26040,-6.7100,6.4200,-1.8500,9.4691,0.1963,0.0098,0.0720,43.50,103.56,23.75,-6.7854,6.9359,-1.7539,9.8602
1,7,1,3,2,26.170,26170,-6.4100,6.9900,-1.2900,9.5714,0.2345,0.0458,0.2989,42.06,101.56,26.31,-6.7359,6.9430,-1.6928,9.8205
1,7,1,3,2,26.300,26300,-5.7900,7.1900,-0.9800,9.2834,0.1800,-0.0076,-0.0982,40.69,99.56,28.75,-6.6113,6.9756,-1.5989,9.7429
1,7,1,3,2,26.473,26473,-5.0200,5.1300,-0.7500,7.2166,-0.0698,-0.1953,-0.1440,41.31,99.94,29.25,-6.4016,6.7324,-1.4870,9.4083
1,7,1,3,2,26.603,26603,-6.5900,7.0300,-1.8600,9.8137,-0.1887,-0.2585,0.2018,40.94,102.56,30.00,-6.4264,6.7716,-1.5362,9.4611
1,7,1,3,2,26.733,26733,-5.9100,7.2200,-1.9700,9.5361,-0.1614,-0.1789,-0.0338,39.06,104.81,31.94,-6.3583,6.8307,-1.5933,9.4671
1,7,1,3,2,26.863,26863,-6.6600,7.3500,-2.1600,10.1510,-0.0993,-0.0611,0.0425,39.69,106.56,31.06,-6.3981,6.8991,-1.6680,9.5559
1,7,1,3,2,26.993,26993,-6.3600,7.3100,-2.1100,9.9165,-0.0720,-0.0153,0.0556,39.13,107.19,31.31,-6.3931,6.9532,-1.7262,9.6020
1,7,1,3,2,27.123,27123,-6.5900,7.3200,-2.4300,10.1447,-0.0535,0.0120,0.0829,38.94,107.50,31.13,-6.4190,7.0016,-1.8190,9.6713
1,7,1,3,2,27.254,27254,-5.1100,7.1200,-2.1000,9.0120,-0.0556,-0.0022,0.0807,37.25,107.50,32.56,-6.2465,7.0172,-1.8560,9.5763
1,7,1,3,2,27.384,27384,-6.7300,7.1500,-2.4600,10.1226,-0.0338,0.0295,-0.0185,38.31,108.06,31.13,-6.3102,7.0347,-1.9356,9.6464
1,7,1,3,2,27.557,27557,-5.6500,7.1000,-2.2100,9.3390,-0.0055,0.0207,0.0611,37.06,107.69,32.13,-6.2232,7.0433,-1.9718,9.6034
1,7,1,3,2,27.687,27687,-4.9900,7.3300,-2.4800,9.2076,-0.0109,-0.0098,0.1407,36.31,107.44,32.81,-6.0607,7.0811,-2.0387,9.5410
1,7,1,3,2,27.817,27817,-4.5700,6.5700,-2.4000,8.3552,-0.0447,-0.1156,-0.2083,36.19,108.50,33.13,-5.8643,7.0137,-2.0863,9.3774
1,7,1,3,2,27.947,27947,-5.2800,6.3000,-2.2200,8.5145,-0.0513,-0.1364,-0.2334,37.88,110.13,31.69,-5.7873,6.9197,-2.1040,9.2629
1,7,1,3,2,28.077,28077,-5.2200,6.3100,-2.7400,8.6355,0.0022,-0.1462,-0.0207,38.44,111.44,31.63,-5.7125,6.8393,-2.1878,9.1758
1,7,1,3,2,28.208,28208,-5.4500,7.0300,-2.6700,9.2872,0.0360,-0.0774,-0.1309,38.25,112.06,32.38,-5.6779,6.8645,-2.2513,9.1885
1,7,1,3,2,28.338,28338,-6.4300,6.5100,-2.6300,9.5206,0.0513,-0.0065,-0.5258,40.56,112.63,30.44,-5.7770,6.8178,-2.3012,9.2278
1,7,1,3,2,28.469,28469,-7.1200,6.0900,-2.6400,9.7341,0.0044,0.0251,-0.2280,43.63,113.50,27.25,-5.9540,6.7219,-2.3459,9.2810
1,7,1,3,2,28.642,28642,-6.8300,6.6200,-2.7800,9.9097,0.0611,0.0873,-0.1560,43.44,112.44,27.44,-6.0694,6.7084,-2.4031,9.3603
1,7,1,3,2,28.773,28773,-7.5700,5.9400,-2.7200,9.9993,-0.0022,0.0458,-0.2989,45.94,112.69,24.69,-6.2672,6.6072,-2.4448,9.4292
1,7,1,3,2,28.903,28903,-7.7300,6.9600,-2.8400,10.7824,-0.0644,-0.0371,0.2149,46.06,112.94,24.25,-6.4599,6.6537,-2.4969,9.6040
1,7,1,3,2,29.034,29034,-8.0600,7.3300,-3.1800,11.3492,-0.0611,-0.1156,-0.0840,45.25,113.75,24.94,-6.6708,6.7428,-2.5869,9.8314
1,7,1,3,2,29.164,29164,-9.0800,7.6400,-3.4400,12.3551,-0.0033,-0.1058,-0.2793,45.81,115.25,24.50,-6.9883,6.8610,-2.6993,10.1585
1,7,1,3,2,29.295,29295,-8.7700,6.4600,-3.4400,11.4227,0.0382,-0.0011,-0.1167,47.00,116.13,23.50,-7.2230,6.8082,-2.7969,10.3124
1,7,1,3,2,29.426,29426,-8.4100,5.8500,-3.2000,10.7327,0.0196,0.0894,-0.0622,48.06,116.06,22.38,-7.3795,6.6819,-2.8500,10.3551
1,8,1,3,2,29.556,29556,-7.6900,6.0900,-2.8500,10.2150,0.0284,0.1211,0.1778,48.31,115.06,21.88,-7.4204,6.6039,-2.8500,10.3342
1,8,1,3,2,29.729,29729,-7.3700,5.7800,-2.5800,9.7150,0.0785,0.1254,0.1407,47.63,112.69,22.75,-7.4137,6.4953,-2.8145,10.2506
1,8,1,3,2,29.863,29863,-6.5100,5.9200,-2.1600,9.0605,0.0524,0.1091,0.3436,46.00,110.63,24.50,-7.2947,6.4195,-2.7282,10.0928
1,8,1,3,2,29.995,29995,-6.2600,6.2800,-1.9300,9.0747,0.0611,0.1254,0.3109,44.38,108.56,26.19,-7.1583,6.4011,-2.6230,9.9547
1,8,1,3,2,30.126,30126,-5.0400,5.9000,-1.6000,7.9229,0.0513,0.0862,0.1724,42.44,106.75,28.19,-6.8792,6.3351,-2.4882,9.6772
1,8,1,3,2,30.256,30256,-5.3000,5.7300,-1.8100,8.0124,-0.0131,0.0284,-0.0305,42.06,106.19,28.44,-6.6711,6.2554,-2.3988,9.4545
1,8,1,3,2,30.386,30386,-6.5200,7.1900,-1.9500,9.8999,0.0011,0.0218,0.4407,41.06,105.81,29.38,-6.6512,6.3785,-2.3397,9.5078
1,8,1,3,2,30.517,30517,-5.7500,7.5200,-1.8600,9.6474,0.0142,0.0044,0.1538,38.13,104.94,32.38,-6.5324,6.5289,-2.2765,9.5122
1,8,1,3,2,30.647,30647,-5.7200,7.3600,-1.8700,9.5071,0.0196,-0.0087,0.1113,37.63,104.69,33.00,-6.4254,6.6385,-2.2229,9.5024
1,8,1,3,2,30.820,30820,-5.5100,7.6300,-1.8400,9.5897,0.0535,-0.0076,0.0731,36.38,104.00,34.69,-6.3047,6.7691,-2.1725,9.5021
1,8,1,3,2,30.950,30950,-5.7200,7.5700,-1.8800,9.6725,0.0327,-0.0153,-0.1200,36.44,103.75,34.88,-6.2277,6.8747,-2.1339,9.5183
1,8,1,3,2,31.080,31080,-5.8800,7.2900,-1.7600,9.5297,0.0164,-0.0207,-0.0884,37.19,103.81,34.38,-6.1819,6.9294,-2.0847,9.5172
1,8,1,3,2,31.210,31210,-6.0200,7.3000,-1.7700,9.6262,-0.0273,-0.0076,-0.0698,37.69,104.00,33.88,-6.1605,6.9782,-2.0432,9.5301
1,8,1,3,2,31.340,31340,-6.0100,7.3600,-1.8200,9.6748,-0.0447,-0.0120,0.0742,37.81,104.31,33.56,-6.1407,7.0285,-2.0138,9.5480
1,8,1,3,2,31.470,31470,-6.0600,7.4600,-1.8800,9.7933,-0.0284,-0.0044,-0.0327,37.44,104.50,33.81,-6.1301,7.0854,-1.9961,9.5794
1,8,1,3,2,31.601,31601,-6.0000,7.4500,-1.9400,9.7604,-0.0207,0.0076,0.0502,37.50,104.69,33.56,-6.1129,7.1334,-1.9888,9.6025
1,8,1,3,2,31.732,31732,-5.8800,7.4400,-2.0100,9.6937,-0.0185,0.0175,-0.0185,37.19,104.69,33.75,-6.0822,7.1738,-1.9916,9.6137
1,8,1,3,2,31.904,31904,-6.1000,7.3500,-1.8300,9.7253,-0.0218,0.0142,-0.0011,37.69,104.88,32.94,-6.0846,7.1970,-1.9703,9.6282
1,8,1,3,2,32.034,32034,-5.8200,7.3900,-1.9200,9.6006,-0.0164,0.0109,0.0840,37.25,104.88,33.25,-6.0497,7.2225,-1.9636,9.6239
1,8,1,3,2,32.164,32164,-5.6000,7.2200,-1.9800,9.3493,-0.0218,0.0065,0.0142,36.88,104.94,33.50,-5.9905,7.2221,-1.9658,9.5869
1,8,1,3,2,32.294,32294,-4.9200,6.9000,-1.8800,8.6805,-0.0338,-0.0055,-0.0022,36.88,105.19,33.31,-5.8494,7.1797,-1.9545,9.4649
1,8,1,3,2,32.424,32424,-3.6600,5.3800,-1.3700,6.6496,-0.0502,-0.0545,-0.4363,38.13,105.88,31.94,-5.5609,6.9425,-1.8775,9.0911
1,8,1,3,2,32.554,32554,-5.6500,7.2000,-2.4600,9.4770,-0.0305,-0.0774,0.1920,38.63,106.69,31.50,-5.5726,6.9765,-1.9542,9.1403
1,8,1,3,2,32.685,32685,-6.2200,6.4000,-1.9200,9.1288,-0.0545,-0.0742,-0.6840,39.81,107.88,30.38,-5.6579,6.9005,-1.9497,9.1340
1,8,1,3,2,32.815,32815,-6.3000,6.6400,-2.4800,9.4831,-0.0611,-0.0382,0.2193,42.25,109.31,27.25,-5.7425,6.8662,-2.0196,9.1761
1,8,1,3,2,32.988,32988,-6.8500,7.7800,-2.8800,10.7585,0.0927,0.0982,0.0153,41.19,108.81,28.13,-5.8885,6.9866,-2.1330,9.3828
1,8,1,3,2,33.118,33118,-7.0700,7.1500,-2.5500,10.3735,0.1407,0.1374,-0.0982,42.63,107.31,26.81,-6.0442,7.0081,-2.1879,9.5096
1,8,1,3,2,33.248,33248,-7.9100,7.5100,-2.1300,11.1133,0.1254,0.1494,0.0240,43.13,105.69,26.56,-6.2900,7.0743,-2.1803,9.7141
1,8,1,3,2,33.378,33378,-8.3000,7.5600,-1.8000,11.3703,0.1047,0.1811,-0.0633,43.56,103.63,26.06,-6.5549,7.1383,-2.1302,9.9227
1,8,1,3,2,33.508,33508,-7.1100,8.2400,-1.6500,11.0078,0.0709,0.1156,0.5378,42.25,101.81,27.25,-6.6281,7.2834,-2.0669,10.0624
1,8,1,3,2,33.639,33639,-7.5100,8.3200,-1.3700,11.2916,0.0284,0.0622,-0.1593,40.69,100.81,28.88,-6.7443,7.4200,-1.9751,10.2197
1,8,1,3,2,33.769,33769,-7.1000,7.5400,-1.8000,10.5120,-0.0709,0.0349,-0.0578,42.13,100.94,27.00,-6.7911,7.4358,-1.9520,10.2578
1,8,1,3,2,33.899,33899,-7.5500,8.1900,-1.7800,11.2804,0.0305,0.0982,-0.3567,43.69,101.06,24.94,-6.8911,7.5352,-1.9293,10.3918
1,9,1,3,2,34.072,34072,-6.9700,6.1500,-1.0400,9.3533,0.0644,0.0753,0.3262,45.56,99.38,23.13,-6.9015,7.3527,-1.8121,10.2458
1,9,1,3,2,34.202,34202,-5.8500,6.5800,-0.6000,8.8249,-0.0164,0.0305,0.3338,43.06,98.44,25.63,-6.7630,7.2509,-1.6524,10.0520
1,9,1,3,2,34.332,34332,-5.9000,6.5000,-0.7400,8.8095,-0.0818,-0.0927,-0.3185,42.88,99.06,25.63,-6.6493,7.1519,-1.5322,9.8848
1,9,1,3,2,34.462,34462,-5.8100,5.3500,-0.6500,7.9247,-0.0916,-0.1167,0.2596,43.13,100.50,25.31,-6.5387,6.9145,-1.4159,9.6213
1,9,1,3,2,34.593,34593,-5.2200,5.8100,-1.3800,7.9315,-0.1364,-0.1462,0.5323,39.75,101.63,28.75,-6.3649,6.7689,-1.4112,9.3980
1,9,1,3,2,34.723,34723,-5.2700,7.4900,-1.4400,9.2707,-0.0949,-0.0513,0.5727,35.38,102.38,33.13,-6.2206,6.8640,-1.4150,9.3708
1,9,1,3,2,34.853,34853,-5.0300,8.5800,-2.0300,10.1508,0.0109,0.0273,0.5912,31.56,102.06,36.44,-6.0637,7.0901,-1.4960,9.4486
1,9,1,3,2,34.984,34984,-3.5600,8.8000,-1.9000,9.6811,0.0535,0.0535,-0.0469,28.94,101.38,38.00,-5.7338,7.3154,-1.5493,9.4229
1,9,1,3,2,35.156,35156,-4.6500,8.0800,-1.7100,9.4780,0.0000,-0.0033,0.2596,31.19,101.06,35.00,-5.5910,7.4162,-1.5704,9.4194
1,9,1,3,2,35.286,35286,-3.9600,8.5100,-1.3000,9.4758,-0.0164,-0.0654,0.1276,29.38,101.06,37.00,-5.3761,7.5603,-1.5348,9.4030
1,9,1,3,2,35.416,35416,-5.6100,8.1900,-1.5800,10.0521,-0.0393,-0.0862,-0.5683,31.25,101.88,35.19,-5.4069,7.6433,-1.5408,9.4883
1,9,1,3,2,35.546,35546,-5.4000,8.3200,-1.8600,10.0917,-0.0065,-0.1124,0.0207,32.00,102.56,34.69,-5.4060,7.7325,-1.5828,9.5666
1,9,1,3,2,35.676,35676,-5.3000,8.1700,-1.9700,9.9358,0.0382,-0.0709,0.0022,31.69,102.75,35.38,-5.3920,7.7901,-1.6339,9.6140
1,9,1,3,2,35.807,35807,-4.9400,8.0600,-1.8300,9.6289,0.0305,-0.0404,0.0175,31.06,102.75,36.56,-5.3324,7.8257,-1.6597,9.6141
1,9,1,3,2,35.937,35937,-4.7800,8.1600,-1.9300,9.6519,0.0295,-0.0011,-0.0044,31.38,102.63,36.38,-5.2597,7.8697,-1.6953,9.6162
1,9,1,3,2,36.067,36067,-5.1000,8.2800,-1.5900,9.8538,0.0382,0.0229,-0.0393,31.25,102.31,36.50,-5.2386,7.9238,-1.6814,9.6466
1,9,1,3,2,36.240,36240,-5.2600,7.8100,-1.4500,9.5271,0.0218,0.0502,-0.3251,32.75,101.88,34.94,-5.2414,7.9088,-1.6509,9.6305
1,9,1,3,2,36.370,36370,-5.1600,6.9800,-1.4700,8.8038,-0.0076,0.0524,-0.2138,34.56,101.81,32.81,-5.2307,7.7864,-1.6271,9.5203
1,9,1,3,2,36.500,36500,-5.5700,8.4000,-1.5400,10.1959,-0.0305,0.0720,0.1385,33.69,101.56,33.19,-5.2754,7.8673,-1.6156,9.6091
1,9,1,3,2,36.630,36630,-5.4600,7.4000,-1.6400,9.3414,-0.0578,0.0589,-0.1647,34.56,101.75,31.75,-5.2997,7.8057,-1.6188,9.5727
1,9,1,3,2,36.760,36760,-5.0700,7.9200,-1.6000,9.5389,-0.0731,0.0720,0.2574,33.69,101.75,31.88,-5.2695,7.8208,-1.6164,9.5679
1,9,1,3,2,36.891,36891,-5.3600,7.7500,-1.6500,9.5663,-0.1134,0.0349,-0.1134,33.75,102.25,31.13,-5.2814,7.8114,-1.6208,9.5676
1,9,1,3,2,37.021,37021,-5.3200,7.5400,-1.6500,9.3742,-0.1527,-0.0087,0.0033,34.25,103.19,29.81,-5.2865,7.7757,-1.6246,9.5419
1,9,1,3,2,37.152,37152,-5.5500,7.9400,-2.0900,9.9103,-0.1625,-0.0578,0.0698,34.00,104.56,29.44,-5.3212,7.7973,-1.6860,9.5894
1,9,1,3,2,37.324,37324,-5.4500,8.0800,-2.2800,10.0094,-0.0676,-0.0371,-0.0262,33.56,105.88,29.56,-5.3382,7.8346,-1.7642,9.6431
1,9,1,3,2,37.454,37454,-5.4000,7.8800,-2.2600,9.8164,0.0011,-0.0044,0.0644,33.38,106.13,29.69,-5.3463,7.8406,-1.8296,9.6646
1,9,1,3,2,37.584,37584,-5.2200,7.9000,-2.3800,9.7633,0.0196,0.0120,0.0338,32.88,105.94,30.31,-5.3297,7.8484,-1.9021,9.6758
1,9,1,3,2,37.714,37714,-4.6800,7.6700,-2.1600,9.2410,0.0109,0.0055,0.0316,32.50,105.75,30.75,-5.2441,7.8249,-1.9361,9.6165
1,9,1,3,2,37.844,37844,-4.2800,7.0800,-1.9100,8.4908,-0.0120,-0.0185,-0.0796,32.38,105.75,30.94,-5.1170,7.7267,-1.9326,9.4669
1,9,1,3,2,37.975,37975,-3.5300,6.6200,-1.7400,7.7015,-0.0207,-0.0513,-0.1516,32.25,106.13,31.25,-4.9079,7.5809,-1.9073,9.2301
1,9,1,3,2,38.106,38106,-5.0900,6.2100,-1.9900,8.2724,0.0000,-0.0425,-0.1931,34.63,106.94,29.06,-4.9319,7.4002,-1.9182,9.0976
1,9,1,3,2,38.236,38236,-4.7100,7.4100,-2.3600,9.0919,-0.1080,-0.0982,0.6283,32.25,107.19,31.63,-4.9027,7.4015,-1.9764,9.0953
1,9,1,3,2,38.409,38409,-5.5300,7.7000,-2.6200,9.8354,-0.1113,-0.0676,-0.4505,31.94,108.75,31.81,-4.9853,7.4409,-2.0612,9.1907
1,9,1,3,2,38.540,38540,-6.3300,7.8600,-3.1700,10.5782,-0.0818,-0.0840,-0.2160,34.06,110.31,29.38,-5.1625,7.4961,-2.2073,9.3656
1,9,1,3,2,38.671,38671,-5.1200,8.0000,-2.6600,9.8636,-0.1407,-0.1233,0.3894,34.13,111.56,29.31,-5.1569,7.5625,-2.2670,9.4300
1,9,1,3,2,38.801,38801,-5.6600,8.0600,-3.2700,10.3775,-0.0938,-0.1451,-0.1778,33.50,113.00,29.94,-5.2232,7.6281,-2.3991,9.5512
1,9,1,3,2,38.936,38936,-6.1500,8.5800,-3.4800,11.1153,0.0175,-0.1276,-0.0556,34.06,114.19,29.81,-5.3453,7.7535,-2.5416,9.7544
1,9,1,3,2,39.067,39067,-7.1900,8.8100,-4.0100,12.0579,0.1265,0.0011,-0.4265,35.06,114.31,29.56,-5.5884,7.8927,-2.7351,10.0502
1,9,1,3,2,39.199,39199,-8.0300,8.4800,-4.3000,12.4451,0.0142,0.0829,-0.2727,37.56,114.19,27.00,-5.9102,7.9701,-2.9413,10.3491
1,9,1,3,2,39.330,39330,-8.0400,7.5300,-3.6100,11.5920,-0.0382,0.1124,-0.2105,39.94,114.75,23.81,-6.1908,7.9121,-3.0294,10.4931
1,10,1,3,2,39.502,39502,-6.7900,6.6300,-3.1600,10.0023,0.0120,0.1571,0.0447,41.25,113.88,21.63,-6.2698,7.7432,-3.0466,10.4187
1,10,1,3,2,39.632,39632,-6.0900,6.1900,-2.8400,9.1362,0.0196,0.1200,0.0131,41.56,113.00,20.81,-6.2461,7.5385,-3.0194,10.2450
1,10,1,3,2,39.762,39762,-5.8500,6.4000,-2.4700,9.0157,0.0207,0.0480,0.0327,41.06,112.19,21.06,-6.1939,7.3885,-2.9470,10.0816
1,10,1,3,2,39.892,39892,-5.7100,6.1700,-2.4500,8.7565,0.0469,0.0076,-0.0109,41.00,111.81,21.31,-6.1301,7.2279,-2.8815,9.9058
1,10,1,3,2,40.022,40022,-6.2200,6.4800,-2.3700,9.2895,0.0600,0.0011,0.0873,40.44,111.25,22.25,-6.1420,7.1294,-2.8141,9.8219
1,10,1,3,2,40.153,40153,-5.5400,6.8400,-2.4000,9.1234,0.1102,-0.0185,0.2313,39.56,110.25,23.75,-6.0626,7.0912,-2.7595,9.7291
1,10,1,3,2,40.283,40283,-4.5700,5.2500,-1.8900,7.2125,0.1320,-0.0785,-0.0676,39.06,109.50,25.25,-5.8660,6.8486,-2.6449,9.3973
1,10,1,3,2,40.414,40414,-5.7100,7.6500,-2.5900,9.8911,0.1942,-0.0862,0.7210,35.63,107.94,30.31,-5.8454,6.9542,-2.6377,9.4598
1,10,1,3,2,40.586,40586,-5.0100,7.1400,-2.2600,9.0104,0.1898,-0.1200,-0.3600,33.81,106.31,34.38,-5.7353,6.9787,-2.5879,9.3965
1,10,1,3,2,40.716,40716,-5.6200,7.2200,-2.0400,9.3741,0.1134,-0.0927,0.2782,34.63,105.94,34.88,-5.7201,7.0105,-2.5157,9.3912
1,10,1,3,2,40.846,40846,-5.1900,8.6300,-2.0200,10.2710,0.0894,-0.1014,0.4865,31.50,105.25,39.13,-5.6503,7.2239,-2.4504,9.4929
1,10,1,3,2,40.976,40976,-4.6900,7.9500,-2.0400,9.4531,0.1385,-0.0796,-0.0251,29.75,104.38,42.19,-5.5237,7.3196,-2.3963,9.4779
1,10,1,3,2,41.106,41106,-4.7600,8.0000,-1.9500,9.5111,0.0938,-0.0665,0.1396,29.38,103.75,43.56,-5.4231,7.4092,-2.3375,9.4747
1,10,1,3,2,41.236,41236,-4.7200,8.1600,-1.8100,9.5990,0.0436,-0.0415,-0.0611,28.81,103.44,44.75,-5.3304,7.5082,-2.2680,9.4831
1,10,1,3,2,41.367,41367,-5.3300,8.1600,-1.9100,9.9319,0.0142,0.0065,-0.0829,29.75,103.44,44.13,-5.3304,7.5941,-2.2208,9.5402
1,10,1,3,2,41.498,41498,-5.1500,8.3200,-1.9300,9.9735,0.0905,0.1178,0.0447,29.75,102.75,44.00,-5.3066,7.6897,-2.1825,9.5945
1,10,1,3,2,41.670,41670,-4.8300,8.0600,-1.6600,9.5419,0.0142,0.1538,0.0393,29.88,101.31,43.19,-5.2438,7.7385,-2.1136,9.5838
1,10,1,3,2,41.800,41800,-5.3600,8.7100,-1.4600,10.3308,0.0415,0.1985,-0.0654,30.63,100.63,41.38,-5.2591,7.8665,-2.0275,9.6774
1,10,1,3,2,41.930,41930,-5.1200,8.2700,-1.4900,9.8401,0.1353,0.2367,0.1167,30.63,98.88,40.50,-5.2408,7.9197,-1.9567,9.6962
1,10,1,3,2,42.060,42060,-4.8700,7.3800,-1.1500,8.9165,0.1516,0.2585,-0.1080,29.50,96.63,40.75,-5.1919,7.8486,-1.8504,9.5906
1,10,1,3,2,42.190,42190,-4.6900,7.8100,-0.9300,9.1574,-0.0796,0.1604,-0.0818,30.81,95.56,38.13,-5.1258,7.8435,-1.7291,9.5281
1,10,1,3,2,42.321,42321,-4.8600,8.3900,-0.8000,9.7289,-0.1189,0.0393,0.5596,29.19,96.00,38.81,-5.0908,7.9155,-1.6067,9.5474
1,10,1,3,2,42.451,42451,-3.5500,9.2000,-0.5600,9.8770,-0.0087,-0.0098,0.5661,24.56,96.13,43.06,-4.8877,8.0848,-1.4687,9.5609
1,10,1,3,2,42.581,42581,-3.0500,9.0100,-0.8200,9.5475,0.0196,-0.0513,0.1418,21.50,95.75,45.88,-4.6456,8.2067,-1.3833,9.5312
1,10,1,3,2,42.754,42754,-3.3300,8.9600,-0.8100,9.5930,0.0055,-0.0840,0.0371,21.13,95.94,46.50,-4.4722,8.3060,-1.3077,9.5236
1,10,1,3,2,42.884,42884,-2.9500,8.5200,-0.7100,9.0442,0.0044,-0.0796,-0.1418,21.13,96.00,46.56,-4.2716,8.3342,-1.2290,9.4454
1,10,1,3,2,43.014,43014,-3.3400,6.9500,-1.0400,7.7807,-0.0153,-0.0796,-0.5770,24.06,96.31,43.94,-4.1489,8.1518,-1.2041,9.2257
1,10,1,3,2,43.144,43144,-4.3400,6.2700,-0.8500,7.6727,-0.0676,-0.0796,-0.3796,28.06,97.19,40.25,-4.1740,7.9038,-1.1574,9.0129
1,10,1,3,2,43.274,43274,-3.9400,8.7400,-1.3300,9.6788,-0.0774,-0.0502,0.3851,26.44,97.81,42.06,-4.1432,8.0140,-1.1801,9.0985
1,10,1,3,2,43.405,43405,-4.0700,7.5200,-1.3400,8.6551,-0.1418,-0.0120,0.1025,24.63,98.50,43.81,-4.1336,7.9489,-1.2012,9.0396
1,10,1,3,2,43.535,43535,-5.1700,8.8600,-0.9600,10.3029,-0.2269,0.0284,0.1025,24.13,99.88,43.44,-4.2701,8.0690,-1.1694,9.2038
1,10,1,3,2,43.666,43666,-3.9700,9.1000,-1.9200,10.1122,-0.1734,0.0404,0.2869,22.31,101.00,44.31,-4.2306,8.2048,-1.2683,9.3180
1,10,1,3,2,43.838,43838,-3.9700,10.6800,-2.4300,11.6502,-0.2760,-0.0393,0.3600,19.56,103.13,45.88,-4.1962,8.5310,-1.4214,9.6128
1,10,1,3,2,43.968,43968,-3.4700,12.3400,-2.7600,13.1124,-0.0938,-0.0131,0.3676,16.88,104.38,48.19,-4.1005,9.0329,-1.5978,10.0479
1,10,1,3,2,44.098,44098,-3.0000,12.1100,-2.8800,12.8042,0.0818,-0.0011,-0.1429,15.69,104.13,48.81,-3.9555,9.4384,-1.7668,10.3851
