participant,rep,equipment_code,exercise_code,quality_code,timestamp,timestamp_ms,accelX,accelY,accelZ,accelMag,gyroX,gyroY,gyroZ,roll,pitch,yaw,filteredX,filteredY,filteredZ,filteredMag
3,1,1,3,2,00.000,0,1.9900,9.7500,0.3800,9.9583,-0.0055,-0.0044,0.1167,-11.75,87.25,20.19,1.9496,9.7451,0.3857,9.9457
3,1,1,3,2,00.133,133,1.6100,9.5800,0.4900,9.7267,-0.0120,0.0065,0.0633,-12.06,87.25,20.50,1.9049,9.7234,0.3995,9.9162
3,1,1,3,2,00.264,264,2.6000,9.7700,0.6000,10.1278,-0.0229,0.0175,-0.0578,-12.88,87.44,21.19,1.9965,9.7295,0.4259,9.9414
3,1,1,3,2,00.394,394,2.3700,9.3900,0.4500,9.6949,-0.0262,0.0229,0.0665,-13.06,87.63,21.25,2.0457,9.6848,0.4291,9.9078
3,1,1,3,2,00.567,567,2.9300,8.7500,0.2600,9.2312,-0.0251,0.0273,-0.1844,-13.69,87.94,21.69,2.1622,9.5616,0.4068,9.8115
3,1,1,3,2,00.697,697,0.8700,8.2800,0.0600,8.3258,-0.0447,0.0284,-0.1276,-10.69,88.25,18.69,1.9920,9.3927,0.3611,9.6084
3,1,1,3,2,00.828,828,2.1800,8.6500,0.2900,8.9252,-0.0175,0.0567,0.4069,-11.44,88.56,19.13,2.0167,9.2948,0.3517,9.5176
3,1,1,3,2,00.958,958,1.7000,10.1500,0.1900,10.2931,-0.0709,0.0556,-0.0065,-11.94,89.00,19.38,1.9750,9.4075,0.3304,9.6183
3,1,1,3,2,01.089,1089,3.2800,9.1400,0.3100,9.7157,-0.0393,0.0578,0.0109,-12.44,89.50,19.50,2.1470,9.3723,0.3277,9.6206
3,1,1,3,2,01.220,1220,1.0600,9.7000,-0.0100,9.7578,-0.0774,0.0524,-0.2705,-10.75,90.19,17.56,2.0037,9.4155,0.2832,9.6305
3,1,1,3,2,01.350,1350,2.5300,9.6400,-0.0500,9.9666,-0.0229,0.0524,0.4712,-11.25,90.56,17.69,2.0731,9.4450,0.2393,9.6728
3,1,1,3,2,01.481,1481,1.1300,10.1000,-0.3000,10.1674,-0.0524,0.0371,-0.0840,-10.44,90.94,16.69,1.9488,9.5314,0.1682,9.7300
3,1,1,3,2,01.658,1658,1.1200,10.8200,-0.5000,10.8893,-0.1080,0.0513,0.0545,-11.50,91.63,17.44,1.8396,9.7012,0.0802,9.8744
3,1,1,3,2,01.789,1789,3.4700,11.2600,-0.2500,11.7852,-0.1156,0.0633,-0.3829,-12.31,92.75,18.00,2.0544,9.9066,0.0367,10.1174
3,1,1,3,2,01.920,1920,1.3500,10.6200,-0.5000,10.7171,-0.1069,0.0753,0.2891,-9.63,93.69,15.06,1.9616,10.0006,-0.0340,10.1912
3,1,1,3,2,02.050,2050,1.5400,10.5500,-0.8100,10.6925,-0.0894,0.0436,-0.4134,-9.25,94.38,14.31,1.9061,10.0730,-0.1363,10.2526
3,1,1,3,2,02.180,2180,2.0100,10.5800,-0.8500,10.8027,-0.0545,0.0436,0.1876,-9.19,94.94,14.00,1.9197,10.1398,-0.2303,10.3225
3,1,1,3,2,02.311,2311,2.2000,10.9200,-0.9200,11.1773,-0.0240,0.0109,-0.0578,-9.44,95.19,14.13,1.9567,10.2426,-0.3212,10.4328
3,1,1,3,2,02.441,2441,2.3900,11.3200,-0.9500,11.6085,0.0305,-0.0044,0.1113,-10.38,95.13,15.06,2.0138,10.3846,-0.4041,10.5858
3,1,1,3,2,02.572,2572,2.7600,11.3100,-0.9800,11.6831,0.0524,-0.0251,-0.2596,-10.19,94.81,14.88,2.1121,10.5065,-0.4800,10.7275
3,1,1,3,2,02.744,2744,1.3300,9.6900,-0.6900,9.8052,-0.0207,-0.0327,-0.1298,-6.88,94.69,11.88,2.0090,10.3989,-0.5076,10.6034
3,1,1,3,2,02.874,2874,0.5500,9.7000,-0.8000,9.7485,-0.0371,-0.0327,-0.1025,-5.69,94.94,11.00,1.8168,10.3068,-0.5462,10.4800
3,1,1,3,2,03.004,3004,0.9300,9.8000,-0.9500,9.8898,-0.0742,-0.0316,-0.0851,-6.13,95.31,11.63,1.6999,10.2400,-0.5994,10.3975
3,1,1,3,2,03.134,3134,1.6300,9.4600,-0.7500,9.6287,0.0196,-0.0305,0.0709,-6.31,95.50,12.13,1.6907,10.1373,-0.6192,10.2959
3,1,1,3,2,03.264,3264,2.0100,8.3600,-0.6800,8.6251,0.0360,-0.0382,0.0665,-5.50,95.31,11.50,1.7328,9.9031,-0.6272,10.0731
3,1,1,3,2,03.394,3394,1.4100,7.6600,-0.4400,7.8011,0.0687,-0.0447,-0.3163,-6.25,94.88,12.50,1.6903,9.6075,-0.6026,9.7736
3,1,1,3,2,03.525,3525,-1.4100,8.6600,-0.8200,8.8123,0.0513,-0.0207,0.0153,-2.06,94.44,8.56,1.2817,9.4826,-0.6312,9.5897
3,2,1,3,2,03.655,3655,1.3800,10.0100,-0.7300,10.1310,0.0458,-0.0349,-0.3774,-5.31,94.00,11.94,1.2947,9.5521,-0.6442,9.6610
3,2,1,3,2,03.828,3828,0.9000,9.8100,-0.5200,9.8649,0.0665,-0.0044,0.4701,-5.69,93.38,12.38,1.2427,9.5861,-0.6279,9.6867
3,2,1,3,2,03.958,3958,1.8700,10.2900,-0.3900,10.4658,0.0938,-0.0087,0.3163,-8.25,92.81,14.88,1.3253,9.6789,-0.5965,9.7874
3,2,1,3,2,04.088,4088,0.2800,9.4900,-0.4400,9.5043,0.0785,-0.0087,-0.1996,-7.25,92.19,13.88,1.1876,9.6540,-0.5759,9.7438
3,2,1,3,2,04.218,4218,2.4600,9.9400,-0.1300,10.2407,0.0753,0.0076,0.0360,-9.44,91.56,15.88,1.3553,9.6917,-0.5171,9.7996
3,2,1,3,2,04.348,4348,1.7800,9.7400,0.0600,9.9015,0.0611,0.0098,-0.0164,-8.75,91.00,15.13,1.4112,9.6980,-0.4411,9.8101
3,2,1,3,2,04.478,4478,0.9500,9.3100,-0.1000,9.3589,0.0044,0.0327,0.1320,-7.75,90.69,13.94,1.3504,9.6469,-0.3961,9.7490
3,2,1,3,2,04.608,4608,1.2500,9.7000,-0.1400,9.7812,-0.0513,0.0458,0.0556,-8.88,90.88,14.81,1.3372,9.6539,-0.3624,9.7528
3,2,1,3,2,04.738,4738,1.7900,9.0300,-0.1000,9.2062,-0.0796,0.0524,0.1789,-9.94,91.38,15.56,1.3969,9.5717,-0.3278,9.6786
3,2,1,3,2,04.911,4911,1.0300,8.5000,-0.3000,8.5674,-0.1516,0.0469,-0.1811,-9.69,92.50,15.06,1.3485,9.4305,-0.3241,9.5319
3,2,1,3,2,05.041,5041,1.6700,8.3900,-0.6600,8.5800,-0.1505,0.0436,-0.0644,-9.13,93.75,14.44,1.3909,9.2934,-0.3684,9.4041
3,2,1,3,2,05.171,5171,1.5800,9.0600,-0.7900,9.2306,-0.1614,0.0360,-0.1724,-9.06,94.88,14.19,1.4158,9.2626,-0.4240,9.3798
3,2,1,3,2,05.301,5301,2.2100,9.5200,-1.0600,9.8305,-0.0633,0.0295,0.1058,-9.56,95.75,14.63,1.5205,9.2965,-0.5078,9.4337
3,2,1,3,2,05.431,5431,2.0900,10.3600,-1.3300,10.6521,-0.0676,0.0207,-0.1920,-9.44,96.38,14.38,1.5955,9.4367,-0.6161,9.5904
3,2,1,3,2,05.561,5561,1.3300,10.1100,-0.8300,10.2308,0.0055,-0.0022,-0.2225,-7.06,96.44,12.00,1.5605,9.5254,-0.6443,9.6739
3,2,1,3,2,05.692,5692,2.6200,10.1100,-1.3600,10.5321,0.1440,0.0087,0.3840,-8.38,95.94,13.25,1.7001,9.6024,-0.7386,9.7797
3,2,1,3,2,05.822,5822,2.4300,10.0200,-0.7300,10.3363,0.1265,-0.0065,-0.0589,-7.94,94.94,12.69,1.7963,9.6575,-0.7375,9.8507
3,2,1,3,2,05.995,5995,1.5900,10.4800,-0.5900,10.6163,0.1778,0.0175,0.1920,-7.00,93.50,11.44,1.7691,9.7658,-0.7180,9.9507
3,2,1,3,2,06.125,6125,0.5400,10.7900,-0.9100,10.8418,0.1636,0.0251,0.0153,-7.31,92.31,11.44,1.6072,9.9008,-0.7433,10.0579
3,2,1,3,2,06.255,6255,2.9600,10.7800,-0.3300,11.1839,0.1200,0.0316,-0.0316,-9.00,91.31,12.75,1.7854,10.0167,-0.6889,10.1978
3,2,1,3,2,06.385,6385,1.3600,9.6100,-0.1400,9.7068,0.0851,0.0316,-0.1331,-7.69,90.56,11.06,1.7294,9.9631,-0.6165,10.1308
3,2,1,3,2,06.515,6515,1.0400,9.0700,0.0400,9.1295,0.0262,0.0436,-0.1265,-7.00,90.31,10.06,1.6385,9.8454,-0.5300,9.9949
3,2,1,3,2,06.645,6645,1.6800,9.9200,0.0000,10.0613,-0.0524,0.0491,0.1189,-7.44,90.44,10.13,1.6440,9.8552,-0.4602,10.0020
3,2,1,3,2,06.776,6776,2.5300,11.1000,0.2500,11.3874,-0.0633,0.0404,0.0654,-9.19,90.94,11.63,1.7607,10.0192,-0.3666,10.1794
3,2,1,3,2,06.906,6906,2.1400,10.7500,-0.7100,10.9839,-0.1145,0.0262,-0.0960,-9.63,91.63,11.88,1.8107,10.1155,-0.4119,10.2846
3,2,1,3,2,07.079,7079,1.5700,10.2100,-0.6700,10.3517,-0.1800,0.0109,-0.1407,-7.69,93.00,10.06,1.7790,10.1280,-0.4459,10.2927
3,2,1,3,2,07.210,7210,-0.0400,10.3600,-0.8800,10.3974,-0.2029,-0.0327,-0.3392,-6.31,94.31,8.94,1.5393,10.1586,-0.5031,10.2868
3,2,1,3,2,07.341,7341,1.6100,9.9700,-1.0700,10.1557,-0.1636,-0.0349,0.1145,-6.19,95.63,9.19,1.5486,10.1337,-0.5778,10.2676
3,2,1,3,2,07.471,7471,0.3600,10.8700,-1.4000,10.9657,-0.1320,-0.0535,0.1636,-6.19,96.63,9.69,1.3920,10.2307,-0.6861,10.3478
3,2,1,3,2,07.602,7602,1.7900,10.0200,-0.8600,10.2149,0.0120,-0.0491,0.1429,-6.94,97.00,10.88,1.4444,10.2030,-0.7090,10.3291
3,2,1,3,2,07.732,7732,2.1100,9.5100,-1.2500,9.8211,0.0131,-0.0764,-0.0894,-7.88,96.94,12.25,1.5321,10.1117,-0.7803,10.2568
3,2,1,3,2,07.865,7865,-0.9700,5.7800,-0.6900,5.9013,0.0360,-0.0905,-1.0788,-3.00,96.44,7.94,1.2024,9.5409,-0.7684,9.6470
3,3,1,3,2,07.996,7996,1.9400,10.4700,-1.1500,10.7101,0.0687,-0.0185,1.1868,-5.81,96.00,11.00,1.2996,9.6633,-0.8187,9.7846
3,3,1,3,2,08.170,8170,-0.4800,9.2300,-0.7500,9.2729,0.0665,-0.0524,-0.1298,-4.13,95.13,9.88,1.0651,9.6062,-0.8097,9.6989
3,3,1,3,2,08.300,8300,0.6000,9.9800,-1.0000,10.0479,0.0753,-0.0284,0.0982,-5.94,94.50,11.81,1.0038,9.6555,-0.8347,9.7433
3,3,1,3,2,08.431,8431,1.8600,9.8700,-0.6700,10.0661,0.0316,-0.0316,-0.2334,-6.31,93.94,12.38,1.1166,9.6837,-0.8130,9.7817
3,3,1,3,2,08.562,8562,0.5300,9.3300,-0.4100,9.3540,0.0087,-0.0065,-0.0524,-5.13,93.69,11.25,1.0393,9.6371,-0.7599,9.7227
3,3,1,3,2,08.693,8693,0.9100,10.0900,-0.6900,10.1544,0.0033,0.0087,0.1549,-6.56,93.63,12.63,1.0223,9.6968,-0.7507,9.7794
3,3,1,3,2,08.823,8823,1.2700,9.6400,-0.5700,9.7400,-0.0458,0.0087,-0.2531,-5.94,93.81,11.94,1.0549,9.6893,-0.7269,9.7736
3,3,1,3,2,08.953,8953,1.7100,9.7100,-0.5300,9.8737,-0.0535,0.0284,0.1734,-6.63,94.13,12.50,1.1413,9.6920,-0.7009,9.7841
3,3,1,3,2,09.084,9084,0.9900,10.1300,-0.7700,10.2073,-0.0164,0.0327,0.2760,-7.44,94.44,13.19,1.1213,9.7497,-0.7100,9.8397
3,3,1,3,2,09.256,9256,1.2800,9.8300,-0.7700,9.9428,0.0098,0.0175,0.0131,-7.44,94.56,13.00,1.1422,9.7603,-0.7179,9.8531
3,3,1,3,2,09.386,9386,1.4100,8.8700,-0.6700,9.0063,0.0098,0.0196,0.0120,-7.38,94.50,12.75,1.1775,9.6430,-0.7116,9.7407
3,3,1,3,2,09.516,9516,1.1600,8.5300,-0.5000,8.6230,0.0011,0.0076,-0.1418,-7.63,94.44,12.94,1.1752,9.4963,-0.6837,9.5932
3,3,1,3,2,09.646,9646,0.7100,9.2800,-0.9800,9.3586,-0.0229,0.0142,0.1025,-7.00,94.56,12.31,1.1139,9.4678,-0.7228,9.5605
3,3,1,3,2,09.776,9776,1.0900,8.8300,-0.4100,8.9065,0.0033,-0.0044,-0.2443,-6.88,94.50,12.13,1.1108,9.3838,-0.6816,9.4738
3,3,1,3,2,09.906,9906,2.0900,9.3400,-0.8300,9.6069,-0.0131,-0.0065,0.2378,-7.50,94.63,12.75,1.2398,9.3780,-0.7011,9.4856
3,3,1,3,2,10.037,10037,1.5700,9.5600,-0.8100,9.7219,-0.0469,-0.0153,0.1145,-6.50,94.81,11.88,1.2833,9.4020,-0.7155,9.5161
3,3,1,3,2,10.168,10168,0.6300,10.4500,-1.1700,10.5341,-0.0044,0.0022,0.4603,-6.25,95.06,11.75,1.1972,9.5401,-0.7754,9.6461
3,3,1,3,2,10.340,10340,0.5600,10.9200,-1.2300,11.0033,0.0120,-0.0164,0.1636,-6.50,95.19,12.19,1.1133,9.7219,-0.8353,9.8210
3,3,1,3,2,10.470,10470,1.4500,10.5800,-0.6300,10.6975,0.0305,-0.0447,-0.0196,-7.00,95.00,13.00,1.1576,9.8350,-0.8082,9.9358
3,3,1,3,2,10.600,10600,-0.5400,10.7500,-1.1500,10.8248,0.0425,-0.0360,0.0316,-6.13,94.69,12.44,0.9339,9.9556,-0.8533,10.0356
3,3,1,3,2,10.730,10730,2.6200,10.5200,-0.8100,10.8716,0.0338,-0.0295,-0.0905,-8.31,94.31,14.75,1.1561,10.0300,-0.8476,10.1319
3,3,1,3,2,10.860,10860,1.8600,10.9400,-0.8200,11.1272,-0.0022,-0.0371,-0.3131,-8.25,94.13,14.88,1.2489,10.1499,-0.8439,10.2612
3,3,1,3,2,10.990,10990,1.6600,9.6500,-0.4000,9.7999,0.0087,-0.0044,-0.0687,-7.69,94.00,14.44,1.3030,10.0840,-0.7854,10.1981
3,3,1,3,2,11.121,11121,1.1800,9.5600,-0.7100,9.6587,-0.0469,0.0055,-0.1484,-6.25,94.19,13.00,1.2868,10.0150,-0.7755,10.1270
3,3,1,3,2,11.251,11251,0.7900,10.0300,-0.5500,10.0761,-0.0731,0.0120,-0.4614,-6.13,94.56,12.81,1.2214,10.0169,-0.7458,10.1186
3,3,1,3,2,11.424,11424,1.4500,10.5600,-1.4100,10.7519,-0.1473,0.0469,0.0589,-6.88,95.63,13.31,1.2515,10.0885,-0.8333,10.1999
3,3,1,3,2,11.555,11555,1.1200,11.1600,-1.2400,11.2844,-0.1636,0.0502,-0.2465,-6.19,96.88,12.38,1.2342,10.2297,-0.8869,10.3420
3,3,1,3,2,11.685,11685,0.6700,10.5400,-1.1800,10.6270,-0.0993,0.0284,-0.2138,-4.63,97.88,10.63,1.1598,10.2706,-0.9255,10.3772
3,3,1,3,2,11.816,11816,1.0300,11.2100,-1.3900,11.3427,0.0087,0.0251,0.0982,-4.56,98.31,10.38,1.1427,10.3944,-0.9867,10.5034
3,3,1,3,2,11.946,11946,1.4700,9.6400,-1.7500,9.9072,0.0447,0.0044,-0.2247,-3.44,97.94,9.19,1.1858,10.2950,-1.0873,10.4199
3,3,1,3,2,12.077,12077,-1.1900,10.1000,-1.6400,10.3012,-0.0360,0.0033,-0.4200,-1.88,97.75,7.50,0.8728,10.2693,-1.1601,10.3714
3,3,1,3,2,12.208,12208,0.6700,9.7300,-1.3700,9.8488,-0.0218,0.0349,0.2836,-2.75,98.06,8.19,0.8460,10.1982,-1.1878,10.3020
3,3,1,3,2,12.338,12338,3.7000,6.5400,-0.9900,7.5790,-0.1025,-0.0044,-0.2803,-4.75,98.63,10.13,1.2221,9.7162,-1.1617,9.8614
3,3,1,3,2,12.512,12512,-2.0600,10.0800,-1.0200,10.3388,0.0513,0.0404,1.4824,0.00,99.06,5.44,0.7896,9.7641,-1.1431,9.8624
3,3,1,3,2,12.645,12645,3.9400,10.2900,-1.7000,11.1489,0.1724,-0.0807,-0.3512,-10.50,97.88,15.94,1.2048,9.8334,-1.2164,9.9813
3,3,1,3,2,12.776,12776,0.5600,8.9400,-1.0600,9.0200,0.1527,-0.0360,0.2683,-7.88,96.63,13.56,1.1198,9.7157,-1.1958,9.8528
3,3,1,3,2,12.907,12907,2.4500,10.1600,-1.0200,10.5009,0.1516,-0.0295,0.3480,-10.06,95.69,15.81,1.2951,9.7742,-1.1727,9.9291
3,3,1,3,2,13.037,13037,1.5800,9.6900,-0.8500,9.8547,0.1178,-0.0349,-0.1985,-9.94,94.63,15.69,1.3326,9.7631,-1.1301,9.9183
3,3,1,3,2,13.167,13167,1.4600,9.7400,-0.5600,9.8647,0.1473,-0.0284,0.3207,-10.00,93.63,15.88,1.3494,9.7601,-1.0550,9.9092
3,3,1,3,2,13.298,13298,1.9200,9.9600,-0.4200,10.1521,0.1484,-0.0491,0.1113,-11.44,92.50,17.38,1.4246,9.7864,-0.9713,9.9372
3,3,1,3,2,13.428,13428,1.9900,9.3600,-0.3100,9.5742,0.1385,-0.0665,-0.1167,-11.88,91.38,18.00,1.4991,9.7302,-0.8842,9.8847
3,3,1,3,2,13.601,13601,2.2900,9.4800,0.0600,9.7529,0.0884,-0.0415,0.0796,-12.50,90.19,18.94,1.6033,9.6973,-0.7598,9.8582
3,3,1,3,2,13.731,13731,2.4800,9.4400,0.2000,9.7624,0.0556,-0.0338,0.0458,-13.13,89.63,19.63,1.7189,9.6634,-0.6333,9.8354
3,3,1,3,2,13.861,13861,2.5800,9.5300,0.2100,9.8753,0.0273,-0.0207,0.0196,-13.31,89.25,20.00,1.8323,9.6458,-0.5222,9.8322
3,3,1,3,2,13.991,13991,2.5000,9.2600,0.2300,9.5943,0.0022,-0.0044,0.0513,-13.44,89.06,20.25,1.9203,9.5949,-0.4231,9.7944
3,3,1,3,2,14.121,14121,1.8700,8.6500,0.1100,8.8505,-0.0305,0.0164,0.0665,-13.19,89.25,20.00,1.9137,9.4704,-0.3528,9.6683
3,3,1,3,2,14.251,14251,2.2600,8.2100,-0.1400,8.5165,-0.1582,0.0600,0.0840,-13.94,90.00,20.63,1.9593,9.3043,-0.3248,9.5139
3,3,1,3,2,14.381,14381,1.8200,8.9500,0.0100,9.1332,-0.1724,0.0862,0.1233,-13.94,91.38,20.44,1.9410,9.2576,-0.2807,9.4631
3,3,1,3,2,14.512,14512,2.1800,8.6400,-0.1300,8.9117,-0.1767,0.0698,-0.1876,-13.69,92.63,19.94,1.9725,9.1763,-0.2608,9.3895
3,4,1,3,2,14.685,14685,3.1300,9.4900,-0.5700,10.0091,-0.1298,0.0589,-0.0491,-13.94,94.19,19.94,2.1250,9.2176,-0.3015,9.4642
3,4,1,3,2,14.816,14816,2.6300,9.6600,-0.7500,10.0397,-0.0807,0.0633,0.0665,-12.81,95.19,18.63,2.1915,9.2759,-0.3606,9.5381
3,4,1,3,2,14.946,14946,2.6800,9.6800,-0.7900,10.0752,-0.0807,0.0393,-0.2673,-11.63,95.88,17.25,2.2559,9.3291,-0.4172,9.6071
3,4,1,3,2,15.077,15077,1.9300,10.6800,-1.3100,10.9318,0.0447,0.0142,-0.1680,-10.50,96.06,16.00,2.2130,9.5072,-0.5349,9.7760
3,4,1,3,2,15.207,15207,1.0000,11.0200,-1.2300,11.1334,0.0175,-0.0087,-0.2683,-9.38,95.75,14.81,2.0531,9.7065,-0.6265,9.9410
3,4,1,3,2,15.340,15340,1.5800,10.8100,-0.7300,10.9492,0.0982,0.0425,0.4331,-9.06,95.25,14.31,1.9908,9.8519,-0.6401,10.0714
3,4,1,3,2,15.471,15471,2.5900,10.7700,-0.8800,11.1119,0.0654,0.0404,-0.0251,-10.19,94.81,15.06,2.0697,9.9729,-0.6717,10.2075
3,4,1,3,2,15.605,15605,0.4600,10.4800,-1.0200,10.5396,0.0425,0.0709,0.2334,-8.75,94.44,13.13,1.8576,10.0397,-0.7176,10.2353
3,4,1,3,2,15.778,15778,1.0400,9.8100,-0.7500,9.8934,0.0229,0.0502,-0.2269,-9.13,94.19,12.88,1.7499,10.0095,-0.7219,10.1869
3,4,1,3,2,15.908,15908,1.7800,10.7700,-0.6800,10.9373,0.0044,0.0513,0.0829,-10.31,94.13,13.56,1.7538,10.1097,-0.7164,10.2857
3,4,1,3,2,16.038,16038,3.5600,12.0700,-0.4200,12.5911,0.0785,0.0545,0.9261,-12.31,93.94,15.19,1.9919,10.3680,-0.6773,10.5793
3,4,1,3,2,16.168,16168,2.8500,10.7400,-0.7100,11.1344,0.0873,-0.0404,-0.6163,-13.50,93.31,16.19,2.1049,10.4170,-0.6816,10.6494
3,4,1,3,2,16.298,16298,-0.6300,9.4700,-0.4900,9.5036,0.0578,-0.0360,-0.0654,-8.13,92.69,11.06,1.7445,10.2922,-0.6564,10.4596
3,4,1,3,2,16.428,16428,2.5900,9.4100,-0.3100,9.7649,0.0469,-0.0458,0.0731,-9.88,92.19,13.00,1.8559,10.1760,-0.6107,10.3618
3,4,1,3,2,16.559,16559,2.1400,10.0400,-0.3300,10.2708,-0.0109,-0.0644,0.1724,-9.50,92.06,13.06,1.8934,10.1581,-0.5737,10.3489
3,4,1,3,2,16.689,16689,1.9900,8.8700,-0.7400,9.1206,-0.1025,-0.0349,0.4167,-8.75,92.44,12.81,1.9061,9.9883,-0.5956,10.1860
3,4,1,3,2,16.862,16862,2.2600,9.7900,-0.8300,10.0817,-0.1254,0.0000,0.3916,-10.00,93.81,14.56,1.9527,9.9622,-0.6265,10.1711
3,4,1,3,2,16.993,16993,1.7800,9.4400,-0.5200,9.6204,-0.1854,-0.0142,-0.0033,-11.25,95.00,16.06,1.9300,9.8934,-0.6125,10.0985
3,4,1,3,2,17.124,17124,0.3700,4.8900,-0.7000,4.9537,-0.1244,-0.0338,-1.0788,-10.31,95.75,15.38,1.7244,9.2341,-0.6240,9.4144
3,5,1,3,2,17.254,17254,1.9600,10.6900,-1.4900,10.9699,-0.0764,0.0709,2.0835,-10.56,96.56,15.75,1.7555,9.4259,-0.7381,9.6164
3,5,1,3,2,17.385,17385,2.7100,9.6500,-1.2800,10.1047,-0.1113,0.0055,-0.6272,-14.75,97.38,19.94,1.8812,9.4554,-0.8095,9.6747
3,5,1,3,2,17.516,17516,2.4000,9.2900,-1.0100,9.6480,-0.0894,0.0425,0.4091,-13.63,98.19,18.88,1.9496,9.4336,-0.8360,9.6692
3,5,1,3,2,17.651,17651,2.7900,9.6500,-1.5600,10.1656,-0.1036,0.0240,0.0262,-14.56,98.94,19.88,2.0603,9.4622,-0.9314,9.7286
3,5,1,3,2,17.782,17782,2.5600,9.7000,-1.3300,10.1199,-0.0404,0.0076,0.0578,-14.69,99.50,20.00,2.1262,9.4935,-0.9839,9.7783
3,5,1,3,2,17.955,17955,3.0900,9.9400,-1.4700,10.5125,0.0556,-0.0349,0.0644,-15.69,99.31,21.06,2.2532,9.5523,-1.0480,9.8703
3,5,1,3,2,18.085,18085,2.9200,9.7800,-1.3400,10.2942,0.1211,-0.0611,-0.0993,-15.75,98.44,21.31,2.3411,9.5823,-1.0864,9.9238
3,5,1,3,2,18.215,18215,3.1200,9.6100,-1.1000,10.1635,0.1691,-0.0894,-0.0502,-15.69,97.19,21.44,2.4437,9.5860,-1.0882,9.9522
3,5,1,3,2,18.345,18345,2.4900,8.8800,-0.7500,9.2529,0.2018,-0.0927,-0.1887,-14.88,95.56,20.94,2.4498,9.4929,-1.0437,9.8594
3,5,1,3,2,18.475,18475,2.3700,8.4500,-0.7400,8.8072,0.1593,-0.0720,-0.2694,-13.38,94.19,19.63,2.4393,9.3555,-1.0036,9.7202
3,5,1,3,2,18.605,18605,2.7600,8.3700,-0.6800,8.8395,0.0774,-0.0644,-0.3262,-12.63,93.19,19.06,2.4816,9.2256,-0.9610,9.6018
3,5,1,3,2,18.735,18735,0.9100,9.2800,-0.6500,9.3471,0.0698,-0.0338,0.1418,-10.75,92.69,17.44,2.2745,9.2328,-0.9200,9.5532
3,5,1,3,2,18.866,18866,1.8400,8.4600,-0.2600,8.6617,0.0589,-0.0404,0.1658,-11.00,92.19,18.00,2.2172,9.1310,-0.8330,9.4332
3,5,1,3,2,19.039,19039,2.8300,9.0100,-0.1200,9.4448,0.0545,-0.0502,-0.0633,-10.81,91.69,18.19,2.2980,9.1150,-0.7391,9.4292
3,5,1,3,2,19.169,19169,0.9400,10.8000,-0.4800,10.8515,-0.0295,-0.0382,-0.1200,-9.63,91.50,17.31,2.1190,9.3371,-0.7049,9.6004
3,5,1,3,2,19.299,19299,2.0000,9.0100,0.4000,9.2380,0.0589,-0.0109,0.1014,-8.50,91.31,16.31,2.1033,9.2940,-0.5593,9.5454
3,5,1,3,2,19.429,19429,0.1000,10.2900,-0.3600,10.2968,-0.0687,-0.0044,-0.1473,-8.25,91.50,16.13,1.8393,9.4252,-0.5331,9.6178
3,5,1,3,2,19.559,19559,1.4500,9.9700,-0.5100,10.0878,-0.0807,0.0142,0.0829,-8.25,91.88,16.19,1.7880,9.4970,-0.5300,9.6784
3,5,1,3,2,19.689,19689,2.1700,10.9300,-0.3400,11.1485,-0.1080,0.0273,0.3087,-9.13,92.69,17.06,1.8384,9.6858,-0.5050,9.8717
3,5,1,3,2,19.819,19819,1.2900,10.9300,-0.9500,11.0468,-0.1396,0.0240,-0.1167,-8.50,93.69,16.50,1.7661,9.8498,-0.5636,10.0227
3,5,1,3,2,19.950,19950,0.7000,10.1900,-1.0100,10.2638,-0.1494,0.0371,-0.0055,-7.44,94.69,15.31,1.6256,9.8946,-0.6224,10.0466
3,5,1,3,2,20.123,20123,1.2700,10.0000,-0.8000,10.1120,-0.1527,0.0687,-0.0480,-7.88,96.19,15.44,1.5788,9.9085,-0.6458,10.0543
3,5,1,3,2,20.254,20254,1.3600,9.9400,-1.3200,10.1191,-0.1342,0.0731,0.0447,-7.94,97.25,15.13,1.5499,9.9127,-0.7347,10.0600
3,5,1,3,2,20.384,20384,1.4100,10.1500,-1.6700,10.3827,-0.1233,0.0698,0.0175,-8.06,98.25,14.88,1.5315,9.9439,-0.8579,10.0977
3,5,1,3,2,20.514,20514,1.6800,10.6400,-1.7300,10.9099,-0.0894,0.0676,0.0545,-8.94,99.06,15.31,1.5511,10.0357,-0.9728,10.2013
3,5,1,3,2,20.645,20645,1.6300,10.5900,-1.8400,10.8716,-0.0098,0.0480,0.0709,-9.13,99.38,15.19,1.5615,10.1087,-1.0871,10.2862
3,5,1,3,2,20.775,20775,4.6200,11.7400,-1.7500,12.7371,0.0425,0.0207,0.1265,-12.13,99.44,17.88,1.9645,10.3237,-1.1745,10.5743
3,5,1,3,2,20.907,20907,1.1600,10.4900,-1.5900,10.6730,0.0633,-0.0251,-0.5563,-8.94,98.94,14.56,1.8585,10.3456,-1.2292,10.5828
3,5,1,3,2,21.037,21037,1.1800,10.1500,-1.7400,10.3654,0.0960,-0.0076,0.1963,-7.94,98.31,13.56,1.7691,10.3198,-1.2965,10.5503
3,5,1,3,2,21.213,21213,1.4900,9.8900,-1.4300,10.1033,0.0916,-0.0327,-0.1025,-7.31,97.31,13.06,1.7323,10.2632,-1.3141,10.4910
3,5,1,3,2,21.344,21344,-0.5700,10.7000,-1.7700,10.8604,0.1058,-0.0316,0.2160,-6.69,96.56,12.56,1.4289,10.3207,-1.3742,10.5094
3,5,1,3,2,21.475,21475,2.1100,8.2800,-0.6100,8.5664,0.0785,-0.0393,-0.2094,-7.06,95.88,13.19,1.5187,10.0518,-1.2735,10.2454
3,5,1,3,2,21.605,21605,2.5300,6.6300,-0.4700,7.1119,0.0185,-0.0327,-0.3840,-7.88,95.63,14.06,1.6519,9.6009,-1.1676,9.8117
3,5,1,3,2,21.736,21736,-1.3300,5.6600,-0.4700,5.8331,-0.0873,-0.0273,-0.7243,-1.63,95.69,8.13,1.2590,9.0816,-1.0757,9.2313
3,6,1,3,2,21.866,21866,3.7700,10.8700,-1.0100,11.5495,-0.0055,0.0087,0.8781,-8.25,95.94,14.63,1.5899,9.3173,-1.0670,9.5120
3,6,1,3,2,21.996,21996,0.5500,9.9200,-0.8700,9.9733,-0.0229,-0.0142,-0.2793,-7.38,96.13,13.88,1.4529,9.3967,-1.0411,9.5652
3,6,1,3,2,22.127,22127,2.6000,9.4400,-1.0500,9.8476,-0.0240,0.0022,0.2422,-9.75,96.25,16.25,1.6040,9.4024,-1.0422,9.5950
3,6,1,3,2,22.300,22300,2.1400,9.6500,-1.1100,9.9466,-0.0273,-0.0120,-0.0993,-11.19,96.50,17.75,1.6746,9.4350,-1.0512,9.6400
3,6,1,3,2,22.430,22430,2.4000,10.0700,-1.0300,10.4032,-0.0055,-0.0142,0.0654,-11.56,96.63,18.25,1.7702,9.5187,-1.0484,9.7385
3,6,1,3,2,22.561,22561,2.0200,9.6300,-1.1300,9.9043,0.0033,-0.0218,-0.0055,-11.63,96.63,18.44,1.8031,9.5334,-1.0591,9.7600
3,6,1,3,2,22.691,22691,2.1200,9.6200,-1.0200,9.9035,0.0218,-0.0338,-0.0175,-12.25,96.50,19.19,1.8449,9.5448,-1.0540,9.7784
3,6,1,3,2,22.821,22821,2.4700,9.6100,-1.0800,9.9810,0.0098,-0.0295,-0.0076,-12.69,96.38,19.88,1.9273,9.5534,-1.0574,9.8030
3,6,1,3,2,22.951,22951,2.3900,9.6800,-1.0200,10.0227,0.0076,-0.0218,-0.0415,-12.63,96.31,19.94,1.9882,9.5701,-1.0525,9.8309
3,6,1,3,2,23.081,23081,1.7300,9.5400,-0.9600,9.7430,0.0065,-0.0240,-0.0022,-12.19,96.25,19.69,1.9542,9.5661,-1.0403,9.8189
3,6,1,3,2,23.211,23211,2.7000,9.4000,-0.8200,9.8144,0.0076,-0.0185,-0.0393,-12.88,96.13,20.50,2.0525,9.5442,-1.0113,9.8147
3,6,1,3,2,23.384,23384,2.0100,8.7300,-0.9900,9.0129,-0.0142,-0.0196,-0.1756,-11.81,96.06,19.56,2.0469,9.4369,-1.0085,9.7089
3,6,1,3,2,23.516,23516,0.7600,8.6900,-1.1300,8.7961,-0.0295,-0.0098,-0.3414,-10.25,96.19,18.13,1.8773,9.3385,-1.0245,9.5803
3,6,1,3,2,23.646,23646,1.8500,8.6000,-0.8700,8.8396,-0.0502,-0.0011,-0.0153,-10.19,96.44,18.06,1.8737,9.2412,-1.0041,9.4825
3,6,1,3,2,23.779,23779,0.5400,8.9400,-1.1900,9.0350,-0.0316,-0.0022,-0.2007,-9.06,96.81,17.00,1.6980,9.2015,-1.0286,9.4132
3,6,1,3,2,23.910,23910,3.0400,9.1000,-0.9300,9.6393,-0.1374,0.0251,-0.0993,-10.69,97.38,18.63,1.8748,9.1881,-1.0156,9.4323
3,6,1,3,2,24.043,24043,-0.1700,10.6900,-1.5700,10.8060,-0.0436,0.0436,0.1494,-9.31,98.19,17.19,1.6054,9.3860,-1.0887,9.5844
3,6,1,3,2,24.174,24174,2.9400,10.0400,-1.4700,10.5644,-0.0458,0.0098,-0.5389,-9.50,98.63,17.13,1.7812,9.4722,-1.1389,9.7053
3,6,1,3,2,24.304,24304,1.2100,11.5100,-1.6400,11.6890,0.0709,0.0011,-0.0709,-9.06,98.38,16.56,1.7060,9.7407,-1.2050,9.9621
3,6,1,3,2,24.477,24477,1.5700,10.3800,-1.1500,10.5609,0.2116,0.0109,0.1931,-8.25,96.69,15.50,1.6880,9.8250,-1.1977,10.0406
3,6,1,3,2,24.607,24607,1.3000,10.5000,-1.0800,10.6351,0.2411,0.0185,-0.0436,-8.50,95.06,15.44,1.6369,9.9139,-1.1822,10.1175
3,6,1,3,2,24.737,24737,1.3800,10.3500,-0.8700,10.4778,0.1582,0.0251,-0.1025,-7.75,93.63,14.25,1.6031,9.9714,-1.1411,10.1637
3,6,1,3,2,24.867,24867,1.7100,10.2300,-0.3700,10.3785,0.1178,0.0262,0.0796,-7.94,92.63,14.13,1.6171,10.0055,-1.0395,10.1885
3,6,1,3,2,24.997,24997,1.3900,9.5100,-0.1000,9.6116,0.0851,0.0284,0.0545,-7.50,91.94,13.38,1.5872,9.9402,-0.9157,10.1077
3,6,1,3,2,25.127,25127,0.8300,9.9200,-0.3900,9.9623,-0.0033,0.0055,-0.2487,-7.25,91.69,13.00,1.4874,9.9375,-0.8464,10.0838
3,6,1,3,2,25.258,25258,1.5100,11.2700,-0.4200,11.3785,-0.0262,0.0196,0.3534,-8.13,91.75,13.69,1.4904,10.1131,-0.7902,10.2528
3,6,1,3,2,25.388,25388,2.9900,11.8100,-0.1500,12.1835,-0.0480,0.0196,0.0033,-11.13,92.13,16.56,1.6880,10.3367,-0.7058,10.4974
3,7,1,3,2,25.561,25561,-0.7900,9.6300,-0.8500,9.6997,-0.1244,-0.0251,-0.5138,-7.63,92.88,13.19,1.3615,10.2436,-0.7248,10.3591
3,7,1,3,2,25.691,25691,1.6800,10.7600,-0.4200,10.8985,-0.1047,-0.0316,-0.2225,-9.88,93.50,15.63,1.4034,10.3116,-0.6847,10.4292
3,7,1,3,2,25.821,25821,3.0900,9.7400,-0.9600,10.2634,-0.0676,-0.0262,0.2683,-9.69,94.06,15.75,1.6257,10.2363,-0.7209,10.3896
3,7,1,3,2,25.951,25951,2.1800,10.3900,-0.8500,10.6502,-0.1244,-0.0469,0.2280,-10.50,94.69,17.06,1.6987,10.2566,-0.7380,10.4224
3,7,1,3,2,26.081,26081,2.9400,8.3200,-0.2900,8.8289,0.0065,-0.0502,0.1484,-11.81,95.19,18.81,1.8623,10.0014,-0.6789,10.1959
3,7,1,3,2,26.211,26211,-1.0300,4.7900,-0.3000,4.9087,-0.0469,-0.0600,-1.0156,-7.25,95.25,14.63,1.4812,9.3146,-0.6290,9.4526
3,7,1,3,2,26.341,26341,4.2700,10.6600,-0.9000,11.5186,0.0295,0.0207,1.7366,-11.63,95.44,19.13,1.8487,9.4919,-0.6647,9.6931
3,7,1,3,2,26.472,26472,2.6200,9.4700,-0.8900,9.8660,0.0098,-0.0305,-0.5934,-13.44,95.31,21.00,1.9503,9.4890,-0.6944,9.7122
3,7,1,3,2,26.645,26645,2.9000,9.9100,-0.7800,10.3550,0.0338,-0.0076,0.2476,-12.31,95.06,20.00,2.0755,9.5445,-0.7057,9.7930
3,7,1,3,2,26.776,26776,1.6500,9.8100,-0.8700,9.9858,0.0393,-0.0065,0.2563,-12.31,94.81,20.06,2.0194,9.5795,-0.7273,9.8170
3,7,1,3,2,26.907,26907,2.3600,9.8800,-0.8300,10.1918,0.0535,0.0022,0.2225,-13.19,94.44,20.94,2.0643,9.6191,-0.7409,9.8660
3,7,1,3,2,27.037,27037,2.0200,9.6200,-0.7800,9.8607,0.0644,0.0153,0.0622,-13.69,94.13,21.31,2.0584,9.6192,-0.7460,9.8652
3,7,1,3,2,27.168,27168,1.9400,9.7700,-0.5500,9.9759,0.0491,0.0338,-0.0687,-14.00,93.81,21.38,2.0428,9.6391,-0.7202,9.8795
3,7,1,3,2,27.299,27299,2.9000,9.5900,-0.5400,10.0334,0.0556,0.0633,0.0349,-14.38,93.56,21.25,2.1558,9.6326,-0.6964,9.8954
3,7,1,3,2,27.434,27434,3.5200,9.2100,-0.3600,9.8663,0.0840,0.0894,0.1745,-15.00,93.31,21.25,2.3356,9.5769,-0.6521,9.8791
3,7,1,3,2,27.564,27564,2.3300,9.3500,-0.5400,9.6511,0.0349,0.1102,-0.0785,-14.19,93.25,19.69,2.3348,9.5470,-0.6373,9.8490
3,7,1,3,2,27.737,27737,1.6800,9.2900,-0.3300,9.4464,0.0393,0.1036,-0.0916,-11.63,93.19,16.06,2.2485,9.5132,-0.5968,9.7935
3,7,1,3,2,27.867,27867,1.7900,9.0200,-0.7400,9.2256,0.0055,0.0731,-0.1113,-10.69,93.06,14.50,2.1881,9.4482,-0.6157,9.7178
3,7,1,3,2,27.997,27997,1.2700,8.6700,-0.3300,8.7687,0.0251,0.0502,-0.0502,-9.38,93.00,12.75,2.0671,9.3456,-0.5781,9.5889
3,7,1,3,2,28.127,28127,1.9200,9.6200,-0.7100,9.8354,0.0338,0.0480,0.2989,-9.31,93.06,12.38,2.0477,9.3818,-0.5954,9.6211
3,7,1,3,2,28.258,28258,1.9600,9.4400,-0.2800,9.6454,-0.0185,0.0164,-0.0349,-9.19,93.06,12.06,2.0362,9.3895,-0.5539,9.6236
3,7,1,3,2,28.388,28388,1.4000,9.2400,-0.6100,9.3653,-0.0153,0.0033,-0.3567,-8.75,93.19,11.63,1.9523,9.3698,-0.5613,9.5874
3,7,1,3,2,28.519,28519,2.5600,9.4100,-0.6500,9.7736,-0.0774,0.0295,0.1963,-9.88,93.50,12.63,2.0324,9.3751,-0.5730,9.6099
3,7,1,3,2,28.649,28649,0.7700,9.6200,-0.6300,9.6713,-0.0556,0.0175,-0.1865,-10.25,94.00,12.88,1.8661,9.4073,-0.5805,9.6082
3,7,1,3,2,28.822,28822,0.5900,10.7300,-0.9700,10.7899,-0.0720,-0.0055,-0.6698,-8.50,94.63,11.06,1.6979,9.5816,-0.6318,9.7514
3,7,1,3,2,28.952,28952,2.5800,10.9500,-0.8100,11.2790,-0.0142,0.0065,0.2116,-9.25,94.81,11.81,1.8141,9.7619,-0.6553,9.9507
3,7,1,3,2,29.082,29082,1.4100,10.4400,-0.7400,10.5607,-0.0371,0.0011,0.0218,-7.81,95.00,10.44,1.7609,9.8513,-0.6665,10.0296
3,7,1,3,2,29.212,29212,1.5100,10.4400,-0.8500,10.5828,-0.0142,0.0033,0.0011,-8.25,95.25,10.88,1.7278,9.9289,-0.6906,10.1017
3,7,1,3,2,29.342,29342,1.5500,10.3300,-0.7900,10.4755,-0.0393,0.0011,-0.1494,-8.25,95.44,10.94,1.7044,9.9817,-0.7037,10.1506
3,7,1,3,2,29.472,29472,0.7800,10.0200,-1.0200,10.1019,-0.0284,-0.0044,-0.0207,-7.63,95.63,10.31,1.5826,9.9868,-0.7454,10.1388
3,7,1,3,2,29.602,29602,1.1800,10.0700,-1.1500,10.2039,-0.0065,-0.0065,-0.0142,-8.06,95.69,10.75,1.5295,9.9977,-0.7987,10.1456
3,7,1,3,2,29.733,29733,3.3200,11.7200,-1.1100,12.2316,-0.0022,-0.0207,0.1451,-9.13,95.69,11.94,1.7655,10.2247,-0.8397,10.4099
3,7,1,3,2,29.906,29906,1.9000,11.0000,-0.9100,11.1999,0.0556,-0.0393,-0.0884,-7.38,95.50,10.50,1.7832,10.3269,-0.8490,10.5140
3,7,1,3,2,30.038,30038,0.3900,10.3700,-0.8500,10.4121,0.0371,-0.0633,-0.1265,-5.88,95.25,9.38,1.5996,10.3325,-0.8491,10.4901
3,7,1,3,2,30.169,30169,1.5300,10.6300,-0.9000,10.7772,0.0207,-0.0665,0.2760,-7.00,94.94,10.88,1.5904,10.3717,-0.8558,10.5278
3,7,1,3,2,30.304,30304,0.8900,10.7700,-1.0100,10.8538,0.0022,-0.0731,0.1876,-7.94,94.88,12.38,1.4981,10.4242,-0.8761,10.5677
3,8,1,3,2,30.435,30435,2.9400,8.9600,-0.7600,9.4606,0.0600,-0.0764,0.1702,-9.81,94.69,14.81,1.6881,10.2313,-0.8608,10.4053
3,8,1,3,2,30.566,30566,2.3000,4.9100,-0.3100,5.4309,0.0425,-0.1222,-0.8705,-9.38,94.19,14.94,1.7688,9.5301,-0.7883,9.7248
3,8,1,3,2,30.696,30696,-1.2600,9.2000,-1.0200,9.3417,0.0098,-0.0600,0.6338,-6.13,93.94,12.31,1.3697,9.4866,-0.8188,9.6198
3,8,1,3,2,30.826,30826,4.0900,10.7000,-0.7000,11.4764,0.0316,-0.0665,-0.0305,-12.19,93.63,18.63,1.7281,9.6465,-0.8031,9.8329
3,8,1,3,2,30.999,30999,1.4200,9.3400,-0.5600,9.4639,0.0065,-0.0284,0.2716,-10.06,93.44,17.00,1.6875,9.6061,-0.7711,9.7836
3,8,1,3,2,31.130,31130,2.0000,9.8200,-0.5300,10.0356,-0.0371,-0.0284,-0.0022,-11.88,93.50,19.00,1.7287,9.6343,-0.7393,9.8160
3,8,1,3,2,31.260,31260,2.5900,9.6800,-0.4000,10.0285,0.0065,-0.0229,-0.1276,-12.44,93.50,19.75,1.8422,9.6403,-0.6946,9.8393
3,8,1,3,2,31.391,31391,2.3100,10.0500,-0.2000,10.3140,0.0742,-0.0415,0.1625,-12.75,93.19,20.19,1.9038,9.6943,-0.6294,9.8995
3,8,1,3,2,31.522,31522,2.9600,10.0400,-0.4100,10.4753,0.1178,-0.0785,0.0000,-13.81,92.31,21.56,2.0430,9.7398,-0.6005,9.9699
3,8,1,3,2,31.652,31652,2.4900,9.7500,-0.0900,10.0633,0.1953,-0.0960,-0.0796,-13.63,90.88,21.63,2.1019,9.7412,-0.5332,9.9796
3,8,1,3,2,31.783,31783,2.5900,9.4100,0.2000,9.7620,0.2793,-0.1298,-0.1996,-13.00,89.00,21.44,2.1662,9.6975,-0.4366,9.9461
3,8,1,3,2,31.914,31914,1.4800,9.4400,0.1400,9.5563,0.3087,-0.1494,-0.3818,-11.00,86.69,20.00,2.0758,9.6636,-0.3606,9.8906
3,8,1,3,2,32.088,32088,1.3600,8.9500,0.4500,9.0639,0.3305,-0.1200,-0.1625,-9.13,83.31,18.94,1.9815,9.5696,-0.2538,9.7759
3,8,1,3,2,32.221,32221,0.6400,7.8600,1.2200,7.9798,0.2476,-0.0698,-0.1909,-7.06,80.94,17.31,1.8047,9.3443,-0.0596,9.5172
3,8,1,3,2,32.351,32351,1.5800,9.0100,1.8600,9.3347,0.1953,-0.0076,0.3742,-7.75,79.44,18.06,1.7751,9.3002,0.1933,9.4701
3,8,1,3,2,32.482,32482,1.4300,9.4300,2.1100,9.7684,0.0513,0.0065,-0.0927,-8.13,78.56,18.38,1.7296,9.3173,0.4459,9.4870
3,8,1,3,2,32.612,32612,0.7800,9.5500,1.9200,9.7723,-0.0305,0.0305,-0.0578,-6.31,78.44,16.44,1.6045,9.3480,0.6402,9.5063
3,8,1,3,2,32.743,32743,1.0400,9.6300,1.8300,9.8574,-0.0644,0.0447,-0.1167,-7.13,78.69,17.00,1.5301,9.3852,0.7970,9.5424
3,8,1,3,2,32.873,32873,1.0200,10.5300,1.8300,10.7364,-0.0829,0.0676,0.0524,-6.63,79.25,16.13,1.4629,9.5360,0.9331,9.6926
3,8,1,3,2,33.003,33003,-0.0600,10.0100,1.7700,10.1655,-0.0785,0.0884,-0.1473,-5.69,79.81,14.69,1.2622,9.5985,1.0434,9.7372
3,8,1,3,2,33.176,33176,1.5600,10.8500,2.0700,11.1553,-0.1014,0.0971,-0.1625,-7.75,80.75,15.81,1.3014,9.7634,1.1786,9.9200
3,8,1,3,2,33.306,33306,1.7200,10.7400,1.4600,10.9744,-0.1364,0.0993,0.0927,-7.13,81.81,14.56,1.3566,9.8921,1.2157,10.0584
3,8,1,3,2,33.436,33436,1.0600,10.3600,1.2400,10.4876,-0.0905,0.0567,-0.1320,-5.69,82.69,12.63,1.3175,9.9537,1.2189,10.1143
3,8,1,3,2,33.566,33566,1.5900,10.7500,0.8500,10.9001,-0.0207,0.0164,-0.1047,-6.06,83.13,12.75,1.3534,10.0587,1.1703,10.2166
3,8,1,3,2,33.696,33696,0.8700,10.9400,1.3600,11.0585,0.0044,-0.0131,-0.0578,-4.75,83.13,11.50,1.2897,10.1748,1.1953,10.3256
3,8,1,3,2,33.826,33826,1.9800,11.8700,0.9300,12.0699,0.0131,-0.0251,0.3905,-6.44,82.94,13.31,1.3807,10.3982,1.1603,10.5534
3,8,1,3,2,33.957,33957,-1.9400,10.9700,1.1800,11.2025,0.0273,-0.0720,-0.4909,-3.38,82.81,10.69,0.9431,10.4735,1.1629,10.5800
3,9,1,3,2,34.087,34087,1.7700,10.3100,1.3100,10.5425,0.0393,-0.0774,0.2138,-5.56,82.25,13.31,1.0521,10.4520,1.1823,10.5711
3,9,1,3,2,34.260,34260,0.8100,10.4900,1.2000,10.5894,0.0055,-0.0884,0.3567,-6.25,82.00,14.81,1.0202,10.4570,1.1846,10.5732
3,9,1,3,2,34.391,34391,2.4200,9.5200,1.4400,9.9278,-0.0207,-0.0818,0.2182,-7.19,82.13,16.50,1.2046,10.3335,1.2183,10.4746
3,9,1,3,2,34.526,34526,2.6800,6.7400,1.1500,7.3439,-0.0535,-0.0905,-0.1473,-7.88,82.38,17.81,1.3990,9.8600,1.2093,10.0319
3,9,1,3,2,34.659,34659,-2.5500,6.5300,0.8200,7.0580,-0.0633,-0.0578,0.2814,-5.00,82.81,15.69,0.8787,9.4212,1.1580,9.5327
3,9,1,3,2,34.789,34789,3.5000,9.5100,2.2200,10.3739,-0.0305,-0.0142,1.0767,-11.00,83.13,22.00,1.2241,9.4329,1.2979,9.6001
3,9,1,3,2,34.920,34920,0.4100,9.9600,0.1400,9.9694,-0.1298,-0.0142,-0.5727,-8.56,84.06,19.88,1.1168,9.5023,1.1454,9.6361
3,9,1,3,2,35.050,35050,1.2200,10.0200,0.8000,10.1257,-0.1800,0.0240,0.0774,-8.69,85.06,20.06,1.1304,9.5706,1.0998,9.6996
3,9,1,3,2,35.181,35181,2.1300,9.9600,0.3200,10.1902,-0.0862,0.0415,0.2673,-10.06,86.06,21.25,1.2621,9.6219,0.9971,9.7554
3,9,1,3,2,35.353,35353,2.1400,9.9500,0.6500,10.1983,-0.0502,0.0404,-0.0251,-10.88,87.00,21.88,1.3778,9.6651,0.9513,9.8091
3,9,1,3,2,35.484,35484,1.9900,9.7900,0.2300,9.9929,-0.0709,0.0545,0.0611,-11.06,87.44,21.81,1.4585,9.6816,0.8563,9.8282
3,9,1,3,2,35.614,35614,1.8100,9.9900,0.4100,10.1609,-0.0076,0.0611,0.0818,-11.19,87.81,21.56,1.5048,9.7222,0.7975,9.8703
3,9,1,3,2,35.745,35745,2.2500,10.3500,0.5500,10.6060,0.0360,0.0720,0.2476,-12.06,87.88,22.00,1.6030,9.8049,0.7649,9.9645
3,9,1,3,2,35.875,35875,2.7000,9.9300,0.4600,10.3008,0.1134,0.0338,-0.2498,-12.50,87.31,21.88,1.7476,9.8214,0.7247,10.0020
3,9,1,3,2,36.006,36006,2.4000,9.2500,0.7300,9.5841,0.1767,0.0240,-0.0960,-12.00,86.25,20.94,1.8335,9.7461,0.7254,9.9436
3,9,1,3,2,36.137,36137,1.5300,8.9700,0.8000,9.1346,0.1702,0.0131,-0.3076,-10.44,85.06,19.00,1.7935,9.6438,0.7352,9.8367
3,9,1,3,2,36.267,36267,2.2900,8.1600,0.7500,8.5084,0.1811,0.0218,0.0709,-9.13,83.88,17.38,1.8590,9.4483,0.7372,9.6576
3,9,1,3,2,36.440,36440,1.1400,8.6900,0.9500,8.8158,0.1734,0.0207,-0.1854,-7.00,82.44,14.88,1.7642,9.3484,0.7652,9.5441
3,9,1,3,2,36.574,36574,2.2700,9.3000,1.4800,9.6868,0.0611,0.0065,0.1484,-7.38,81.63,15.13,1.8309,9.3420,0.8594,9.5584
3,9,1,3,2,36.705,36705,-0.3300,10.4300,1.1600,10.4995,0.0894,0.0087,0.1942,-5.88,81.31,13.56,1.5461,9.4854,0.8990,9.6525
3,9,1,3,2,36.836,36836,2.0300,9.0200,1.5100,9.3681,-0.0338,-0.0011,-0.1920,-5.38,81.25,13.06,1.6099,9.4241,0.9795,9.6106
3,9,1,3,2,36.966,36966,2.1000,11.4000,1.7000,11.7158,0.0905,0.0349,0.8083,-6.63,81.06,14.31,1.6745,9.6844,1.0745,9.8867
3,9,1,3,2,37.096,37096,0.5300,9.9100,1.4700,10.0324,-0.0011,0.0240,-0.1876,-5.44,80.81,13.00,1.5237,9.7142,1.1266,9.8973
3,9,1,3,2,37.227,37227,1.8100,11.3100,1.7100,11.5809,0.0458,0.0065,-0.0327,-6.69,80.63,14.06,1.5614,9.9245,1.2035,10.1183
3,9,1,3,2,37.357,37357,-0.0100,10.8200,1.8600,10.9787,0.0262,0.0207,0.1811,-5.06,80.50,12.38,1.3543,10.0425,1.2900,10.2151
3,9,1,3,2,37.530,37530,1.8900,10.2700,1.7200,10.5832,-0.0524,-0.0109,0.1145,-6.63,80.44,13.94,1.4249,10.0724,1.3466,10.2615
3,9,1,3,2,37.661,37661,0.5900,10.0100,2.1800,10.2616,-0.0567,-0.0207,0.0807,-5.69,80.81,13.19,1.3149,10.0642,1.4565,10.2537
3,9,1,3,2,37.792,37792,1.6100,11.5000,1.7300,11.7403,-0.0676,-0.0371,0.2280,-7.50,81.19,15.19,1.3538,10.2534,1.4925,10.4495
3,9,1,3,2,37.922,37922,1.7700,11.5600,1.5400,11.7957,-0.0578,-0.0513,-0.0633,-9.06,81.56,17.19,1.4086,10.4256,1.4988,10.6265
3,9,1,3,2,38.053,38053,1.5400,10.4700,1.4700,10.6843,0.0076,-0.0742,-0.3218,-7.31,81.81,15.94,1.4259,10.4314,1.4950,10.6341
3,10,1,3,2,38.183,38183,2.0500,9.4700,1.6300,9.8255,0.0720,-0.0829,0.1287,-6.56,81.56,15.75,1.5082,10.3047,1.5128,10.5238
3,10,1,3,2,38.316,38316,0.3800,10.8300,1.7500,10.9771,-0.0207,-0.0982,-0.0425,-6.56,81.38,16.38,1.3595,10.3740,1.5440,10.5760
3,10,1,3,2,38.447,38447,2.4200,8.6600,1.4400,9.1063,-0.0142,-0.0720,0.1963,-7.13,81.44,17.56,1.4993,10.1481,1.5303,10.3718
3,10,1,3,2,38.622,38622,-0.8200,5.0400,0.7900,5.1670,-0.0360,-0.0611,-0.0982,-4.69,81.81,15.94,1.1936,9.4750,1.4328,9.6568
3,10,1,3,2,38.752,38752,0.4800,9.0700,0.7300,9.1120,-0.0884,-0.0240,0.6621,-7.69,82.19,19.31,1.0996,9.4216,1.3402,9.5798
3,10,1,3,2,38.883,38883,3.9200,10.5100,2.1200,11.4158,-0.0993,-0.0360,-0.3632,-11.13,82.75,23.06,1.4713,9.5650,1.4429,9.7845
3,10,1,3,2,39.013,39013,0.6200,9.1700,1.0400,9.2496,-0.1058,-0.0065,0.0960,-8.25,83.56,20.44,1.3591,9.5130,1.3898,9.7096
3,10,1,3,2,39.144,39144,1.7200,10.3100,1.0100,10.5012,-0.0840,0.0240,0.3742,-10.19,84.25,22.50,1.4066,9.6180,1.3398,9.8122
3,10,1,3,2,39.274,39274,1.2400,9.7900,0.6900,9.8923,-0.0894,0.0229,-0.1898,-10.38,84.94,22.63,1.3847,9.6407,1.2542,9.8200
3,10,1,3,2,39.404,39404,1.8100,10.0400,0.8000,10.2332,-0.0262,0.0382,0.0753,-11.31,85.31,23.38,1.4407,9.6933,1.1943,9.8723
3,10,1,3,2,39.535,39535,2.0400,9.9400,0.6800,10.1699,0.0044,0.0327,-0.1189,-11.75,85.44,23.50,1.5197,9.7258,1.1265,9.9081
3,10,1,3,2,39.708,39708,2.1900,9.8300,0.8100,10.1035,0.0185,0.0447,0.0153,-12.13,85.38,23.44,1.6080,9.7395,1.0848,9.9308
3,10,1,3,2,39.838,39838,2.0500,9.5300,0.9200,9.7913,0.0316,0.0458,0.0807,-12.56,85.19,23.56,1.6663,9.7119,1.0631,9.9110
3,10,1,3,2,39.968,39968,2.2400,9.5900,0.8100,9.8814,0.0262,0.0316,-0.0851,-12.75,85.06,23.44,1.7419,9.6959,1.0298,9.9048
3,10,1,3,2,40.098,40098,2.6000,9.2500,0.9500,9.6553,0.0033,0.0305,-0.1538,-12.63,84.94,23.00,1.8549,9.6371,1.0192,9.8668
3,10,1,3,2,40.228,40228,2.5100,8.6000,0.8200,8.9962,0.0273,0.0338,-0.0709,-12.81,84.88,22.94,1.9413,9.5004,0.9930,9.7475
3,10,1,3,2,40.358,40358,1.0000,8.6800,0.6700,8.7631,-0.0153,0.0349,-0.0109,-10.19,85.00,20.13,1.8172,9.3923,0.9504,9.6136
3,10,1,3,2,40.488,40488,1.9700,9.0300,0.8000,9.2769,-0.0164,0.0295,0.0240,-10.75,85.06,20.44,1.8374,9.3446,0.9306,9.5689
3,10,1,3,2,40.619,40619,2.2900,9.3000,0.7100,9.6041,0.0033,0.0087,-0.0807,-11.50,85.13,21.06,1.8970,9.3387,0.9015,9.5720
3,10,1,3,2,40.791,40791,2.4500,9.6900,1.0000,10.0448,-0.0087,0.0055,-0.0502,-11.44,85.19,20.94,1.9699,9.3850,0.9145,9.6330
3,10,1,3,2,40.921,40921,1.8700,9.6900,0.8600,9.9062,-0.0011,-0.0229,-0.4287,-10.25,85.19,19.81,1.9567,9.4252,0.9073,9.6688
3,10,1,3,2,41.051,41051,3.1500,9.7400,1.2000,10.3068,0.0916,-0.0207,-0.0065,-10.13,84.81,19.75,2.1140,9.4667,0.9459,9.7458
3,10,1,3,2,41.182,41182,1.2900,9.8600,0.8500,9.9803,0.1233,-0.0305,0.3523,-9.13,84.25,18.88,2.0054,9.5185,0.9333,9.7721
3,10,1,3,2,41.312,41312,1.2500,10.3900,0.8600,10.5002,0.0415,-0.0153,-0.1036,-7.75,83.69,17.69,1.9058,9.6333,0.9236,9.8634
3,10,1,3,2,41.442,41442,1.9900,11.2900,1.2700,11.5342,0.0055,0.0109,0.2367,-8.44,83.44,18.38,1.9169,9.8517,0.9692,10.0831
3,10,1,3,2,41.572,41572,1.1800,10.6000,1.3500,10.7506,-0.0305,0.0098,-0.0458,-8.38,83.56,18.25,1.8198,9.9503,1.0194,10.1665
3,10,1,3,2,41.702,41702,1.5500,10.3800,1.0200,10.5445,-0.1320,0.0207,-0.0022,-8.44,84.13,18.25,1.7843,10.0069,1.0195,10.2157
3,10,1,3,2,41.875,41875,0.1200,11.0400,0.8100,11.0703,-0.1254,0.0305,0.3054,-8.25,85.31,18.00,1.5650,10.1430,0.9919,10.3109
3,10,1,3,2,42.006,42006,2.4100,11.4700,0.7500,11.7444,-0.0905,0.0349,0.5563,-11.75,86.06,21.44,1.6763,10.3179,0.9600,10.4972
3,10,1,3,2,42.136,42136,1.8000,10.9700,0.4800,11.1271,-0.0949,0.0185,0.0022,-14.38,86.69,24.00,1.6926,10.4038,0.8968,10.5787
3,10,1,3,2,42.267,42267,1.0200,9.8100,0.4900,9.8750,-0.0251,-0.0065,-0.2618,-12.19,87.00,21.81,1.6040,10.3256,0.8432,10.4834
3,10,1,3,2,42.397,42397,2.8900,9.8900,0.9200,10.3446,0.0196,-0.0240,-0.1331,-12.19,87.06,21.94,1.7734,10.2682,0.8533,10.4551
3,10,1,3,2,42.530,42530,1.4000,10.2000,0.2700,10.2992,0.0207,-0.0393,-0.0742,-10.88,87.13,20.94,1.7242,10.2592,0.7764,10.4320
3,10,1,3,2,42.661,42661,2.8700,9.7600,0.4200,10.1819,-0.0491,-0.0360,0.0644,-11.56,87.19,21.88,1.8752,10.1934,0.7295,10.3901
3,10,1,3,2,42.795,42795,1.2000,11.0700,0.5100,11.1465,-0.0207,-0.0338,0.1287,-13.50,87.31,24.06,1.7862,10.3089,0.7005,10.4860
3,10,1,3,2,42.968,42968,-1.7700,5.3100,0.5100,5.6204,-0.0044,-0.0753,-1.0123,-7.31,86.88,18.38,1.3176,9.6502,0.6754,9.7631
