participant,rep,equipment_code,exercise_code,quality_code,timestamp,timestamp_ms,accelX,accelY,accelZ,accelMag,gyroX,gyroY,gyroZ,roll,pitch,yaw,filteredX,filteredY,filteredZ,filteredMag
7,1,1,3,2,00.000,0,-3.4500,8.6900,-0.0100,9.3498,0.0545,-0.0305,0.0251,23.00,89.94,53.25,-3.8649,8.8317,-0.0019,9.6404
7,1,1,3,2,00.130,130,-3.8000,8.6500,-0.0900,9.4483,0.0491,-0.0720,-0.2498,24.00,89.75,52.69,-3.8564,8.8078,-0.0135,9.6150
7,1,1,3,2,00.260,260,-3.4300,7.9400,0.5500,8.6667,0.0644,-0.1200,-0.1713,24.94,89.75,52.56,-3.8002,8.6934,0.0607,9.4879
7,1,1,3,2,00.390,390,-3.5600,7.5800,0.1400,8.3755,0.0349,-0.1080,0.4549,24.69,89.88,53.75,-3.7685,8.5467,0.0712,9.3409
7,1,1,3,2,00.520,520,-3.0900,7.5700,-0.0900,8.1769,0.0000,-0.0654,0.3502,21.13,90.00,58.19,-3.6791,8.4180,0.0499,9.1870
7,1,1,3,2,00.651,651,-3.1000,8.3700,-0.2100,8.9281,-0.0185,-0.0425,0.6730,17.44,90.38,62.13,-3.6028,8.4117,0.0157,9.1508
7,1,1,3,2,00.823,823,-1.2800,9.0100,-0.3700,9.1080,-0.0218,0.0065,0.8159,9.00,90.75,69.94,-3.2967,8.4905,-0.0351,9.1082
7,1,1,3,2,00.953,953,-0.5600,9.8300,-0.3100,9.8508,-0.0011,0.0644,0.3643,5.25,90.81,73.44,-2.9361,8.6670,-0.0714,9.1511
7,1,1,3,2,01.083,1083,-1.8100,10.0700,-0.1700,10.2328,0.0469,0.1254,0.0567,4.69,90.50,72.56,-2.7877,8.8519,-0.0844,9.2809
7,1,1,3,2,01.213,1213,-0.5300,9.8100,0.3500,9.8305,0.0916,0.1025,0.3523,2.31,89.94,73.56,-2.4902,8.9782,-0.0271,9.3171
7,1,1,3,2,01.343,1343,-0.0600,10.6900,0.3900,10.6973,0.0633,0.0731,-0.4701,2.50,89.06,71.75,-2.1700,9.2037,0.0279,9.4561
7,1,1,3,2,01.474,1474,-1.7300,12.7600,0.1800,12.8780,-0.0513,0.0524,-0.4931,7.50,89.00,65.88,-2.1120,9.6724,0.0479,9.9004
7,1,1,3,2,01.604,1604,-2.0800,14.1600,0.2800,14.3147,-0.0862,-0.0055,0.0142,8.88,89.56,64.25,-2.1078,10.2637,0.0785,10.4782
7,1,1,3,2,01.735,1735,-1.1000,8.6200,0.1400,8.6910,-0.1920,-0.0851,0.3251,7.19,90.44,66.00,-1.9750,10.0471,0.0866,10.2398
7,1,1,3,2,01.908,1908,-0.7500,9.9200,-0.7300,9.9751,-0.5345,-0.1713,-0.1189,5.31,94.19,68.56,-1.8135,10.0304,-0.0210,10.1930
7,1,1,3,2,02.039,2039,-1.8300,11.6900,-1.8000,11.9685,-0.3949,-0.1702,-0.0993,6.38,97.94,67.38,-1.8157,10.2491,-0.2554,10.4118
7,1,1,3,2,02.169,2169,-0.5500,11.0300,-1.9400,11.2128,0.0851,-0.0753,0.4647,4.50,99.06,69.94,-1.6489,10.3520,-0.4774,10.4933
7,1,1,3,2,02.299,2299,-0.0600,8.5500,-1.2800,8.6455,0.3971,-0.0698,-0.0033,2.63,97.06,71.81,-1.4395,10.1145,-0.5832,10.2331
7,1,1,3,2,02.429,2429,-0.5600,6.8600,-0.5900,6.9081,0.4145,-0.0415,-0.0774,3.19,94.00,71.56,-1.3236,9.6857,-0.5841,9.7931
7,1,1,3,2,02.559,2559,-0.1900,7.1700,-0.3000,7.1788,0.1963,-0.0229,0.2553,2.25,91.88,72.56,-1.1743,9.3542,-0.5466,9.4434
7,1,1,3,2,02.689,2689,0.5500,9.0500,-0.0100,9.0667,0.0535,-0.0175,0.3862,-0.31,91.13,75.31,-0.9470,9.3141,-0.4759,9.3742
7,1,1,3,2,02.819,2819,0.3900,9.9000,-0.0500,9.9078,0.0393,-0.0055,-0.1113,-1.06,90.88,75.94,-0.7709,9.3913,-0.4198,9.4322
7,1,1,3,2,02.992,2992,0.3200,9.3100,-0.0700,9.3158,-0.0218,-0.0098,0.0033,0.00,90.63,74.56,-0.6271,9.3806,-0.3737,9.4089
7,1,1,3,2,03.122,3122,0.0300,9.4400,-0.2100,9.4424,-0.0938,-0.0295,-0.1080,0.25,91.06,74.38,-0.5405,9.3884,-0.3521,9.4105
7,1,1,3,2,03.252,3252,-0.3500,9.2600,-0.3000,9.2715,-0.0665,-0.0207,-0.1669,1.19,91.69,73.63,-0.5154,9.3715,-0.3453,9.3920
7,1,1,3,2,03.382,3382,-0.2600,8.7500,-0.1400,8.7550,-0.0305,-0.0098,-0.0633,2.00,92.00,72.88,-0.4818,9.2896,-0.3182,9.3075
7,1,1,3,2,03.512,3512,-0.2800,8.3500,-0.4800,8.3685,-0.0731,-0.0229,-0.0556,2.31,92.31,72.63,-0.4552,9.1658,-0.3395,9.1833
7,2,1,3,2,03.642,3642,-0.1900,9.4100,-0.4300,9.4217,-0.1669,-0.0327,-0.0938,3.00,93.25,72.13,-0.4202,9.1980,-0.3515,9.2143
7,2,1,3,2,03.773,3773,-1.0900,9.5500,-0.8400,9.6486,-0.1876,-0.0142,-0.3589,4.44,94.56,70.81,-0.5085,9.2443,-0.4158,9.2677
7,2,1,3,2,03.903,3903,-0.7700,10.8200,-0.7300,10.8719,0.1931,0.0916,0.2105,5.00,94.63,69.94,-0.5429,9.4520,-0.4572,9.4786
7,2,1,3,2,04.076,4076,-1.1300,10.1900,-0.5100,10.2651,0.5280,0.1407,-0.0916,5.31,91.00,68.94,-0.6203,9.5492,-0.4642,9.5806
7,2,1,3,2,04.206,4206,-1.4800,8.9400,0.4500,9.0728,0.5792,0.2182,-0.1854,6.56,86.69,66.75,-0.7336,9.4689,-0.3437,9.5035
7,2,1,3,2,04.336,4336,-1.5300,8.0000,1.0800,8.2163,0.3567,0.2367,-0.1844,7.81,83.06,64.19,-0.8385,9.2754,-0.1561,9.3145
7,2,1,3,2,04.466,4466,-1.6700,9.3900,1.8100,9.7076,0.0993,0.1593,-0.0185,8.50,81.31,62.25,-0.9481,9.2905,0.1030,9.3393
7,2,1,3,2,04.596,4596,-0.8500,11.2500,2.1100,11.4777,-0.0894,0.0349,0.1462,7.13,81.31,62.94,-0.9352,9.5487,0.3674,9.6014
7,2,1,3,2,04.727,4727,-1.2100,14.2100,1.4800,14.3380,-0.1342,-0.0993,0.0960,6.63,82.31,63.63,-0.9714,10.1629,0.5141,10.2222
7,2,1,3,2,04.857,4857,-1.5500,11.9200,1.6400,12.1317,-0.0153,-0.1134,-0.0807,6.69,82.88,64.38,-1.0476,10.3945,0.6624,10.4681
7,2,1,3,2,04.987,4987,-1.6700,9.4400,1.2400,9.6664,-0.0567,-0.0709,0.1102,6.69,83.06,64.94,-1.1296,10.2687,0.7385,10.3570
7,2,1,3,2,05.160,5160,-1.3300,9.7300,0.8900,9.8607,-0.0851,-0.0436,0.2323,5.56,84.06,66.56,-1.1560,10.1977,0.7585,10.2910
7,2,1,3,2,05.290,5290,-0.5100,9.5100,0.9300,9.5690,-0.0185,-0.0556,0.3000,3.38,84.50,69.06,-1.0709,10.1071,0.7811,10.1936
7,2,1,3,2,05.420,5420,0.2300,7.5000,0.6800,7.5343,0.0022,-0.0774,0.1734,1.44,84.56,71.50,-0.8995,9.7635,0.7678,9.8349
7,2,1,3,2,05.550,5550,0.3500,7.4000,0.7700,7.4482,-0.0545,-0.0807,0.0055,0.63,84.75,72.88,-0.7348,9.4521,0.7681,9.5117
7,2,1,3,2,05.681,5681,-0.3500,7.9900,0.5800,8.0187,-0.1385,-0.0447,-0.1407,1.63,85.50,72.38,-0.6841,9.2594,0.7433,9.3144
7,2,1,3,2,05.811,5811,-0.4100,9.1800,0.5900,9.2081,-0.1789,-0.0207,0.1985,1.50,86.75,72.69,-0.6480,9.2490,0.7231,9.2998
7,2,1,3,2,05.941,5941,0.5100,10.2900,0.5300,10.3163,-0.1549,-0.0196,0.3382,-0.63,88.00,75.06,-0.4954,9.3861,0.6976,9.4251
7,2,1,3,2,06.072,6072,0.4500,9.5800,0.1800,9.5923,-0.0513,-0.0164,-0.1822,-1.44,88.63,75.94,-0.3708,9.4117,0.6294,9.4400
7,2,1,3,2,06.245,6245,0.3700,7.9200,0.1800,7.9307,0.0055,-0.0076,-0.0884,-1.13,88.69,75.69,-0.2732,9.2151,0.5702,9.2368
7,2,1,3,2,06.375,6375,-0.4400,9.4300,0.2600,9.4438,-0.0524,-0.0044,-0.0502,-0.06,88.94,74.69,-0.2952,9.2434,0.5293,9.2633
7,2,1,3,2,06.506,6506,0.0700,8.4800,0.0700,8.4806,-0.0654,0.0109,-0.1058,0.19,89.38,74.38,-0.2471,9.1428,0.4688,9.1582
7,3,1,3,2,06.636,6636,0.0500,9.4000,-0.1700,9.4017,-0.0851,0.0295,-0.0262,0.75,89.88,73.69,-0.2079,9.1767,0.3846,9.1871
7,3,1,3,2,06.766,6766,0.3700,9.0800,-0.2200,9.0902,-0.1189,0.0076,-0.0109,0.50,90.75,73.75,-0.1318,9.1640,0.3049,9.1700
7,3,1,3,2,06.896,6896,0.3700,9.3500,-0.3700,9.3646,-0.1113,-0.0284,-0.0327,0.50,91.63,73.81,-0.0656,9.1885,0.2160,9.1913
7,3,1,3,2,07.026,7026,-0.2600,9.7600,-0.4200,9.7725,-0.0578,-0.0447,-0.1931,1.25,92.31,73.38,-0.0913,9.2638,0.1322,9.2652
7,3,1,3,2,07.156,7156,-0.8800,9.7200,-0.3600,9.7664,0.0218,-0.0785,-0.1276,2.56,92.44,72.50,-0.1952,9.3239,0.0673,9.3262
7,3,1,3,2,07.329,7329,-0.6600,9.4500,0.0500,9.4732,-0.0676,-0.0873,-0.0436,2.44,92.06,73.44,-0.2564,9.3405,0.0651,9.3443
7,3,1,3,2,07.459,7459,-1.3100,11.2100,-0.8700,11.3198,-0.1156,-0.0851,-0.0011,4.00,92.81,72.38,-0.3953,9.5869,-0.0582,9.5952
7,3,1,3,2,07.589,7589,-0.6400,11.2300,-1.0300,11.2953,-0.1494,-0.0807,0.1702,3.06,93.69,73.94,-0.4275,9.8034,-0.1862,9.8145
7,3,1,3,2,07.719,7719,0.4100,11.9500,-1.1700,12.0141,-0.2149,-0.1047,-0.1091,1.63,94.88,76.00,-0.3172,10.0863,-0.3159,10.0962
7,3,1,3,2,07.849,7849,-2.0900,13.0500,-1.7900,13.3370,-0.1658,-0.1222,-0.4538,5.56,96.50,73.19,-0.5508,10.4768,-0.5101,10.5037
7,3,1,3,2,07.979,7979,-1.2300,12.0900,-1.6100,12.2586,0.0207,-0.1309,0.4658,4.63,97.19,75.31,-0.6403,10.6894,-0.6551,10.7286
7,3,1,3,2,08.110,8110,-0.5400,10.1800,-1.3500,10.2833,0.2193,-0.1080,0.3327,1.88,96.25,79.50,-0.6271,10.6223,-0.7466,10.6669
7,3,1,3,2,08.241,8241,-0.6600,9.6800,-1.1000,9.7646,0.2683,0.0295,-0.0142,0.88,94.50,80.75,-0.6314,10.4981,-0.7932,10.5469
7,3,1,3,2,08.413,8413,0.2200,7.9700,-0.1200,7.9739,0.1865,0.1516,0.1658,1.00,92.31,79.63,-0.5192,10.1650,-0.7045,10.2026
7,3,1,3,2,08.543,8543,0.3700,7.9400,-0.1000,7.9492,0.0764,0.1036,0.0338,0.25,91.31,79.38,-0.4020,9.8718,-0.6248,9.8997
7,3,1,3,2,08.673,8673,0.0500,8.0100,0.0000,8.0102,0.0731,0.0665,-0.1102,0.38,90.75,78.50,-0.3425,9.6264,-0.5425,9.6478
7,3,1,3,2,08.803,8803,-0.2400,8.5900,-0.0900,8.5938,0.1254,0.0589,-0.0524,1.00,89.94,77.25,-0.3290,9.4899,-0.4829,9.5078
7,3,1,3,2,08.933,8933,0.0000,9.7700,0.0500,9.7701,0.1473,0.1069,0.0305,0.31,88.88,77.19,-0.2856,9.5268,-0.4126,9.5400
7,3,1,3,2,09.063,9063,-0.8100,9.5400,0.0100,9.5743,0.1396,0.1134,-0.1811,2.13,87.81,74.44,-0.3547,9.5285,-0.3570,9.5418
7,3,1,3,2,09.194,9194,0.4700,7.9300,0.6700,7.9721,0.0687,0.0982,0.0578,0.94,87.13,74.94,-0.2460,9.3179,-0.2216,9.3238
7,3,1,3,2,09.325,9325,-0.4700,9.2800,0.6500,9.3146,-0.0524,0.0469,-0.2956,2.31,87.13,73.19,-0.2756,9.3129,-0.1068,9.3176
7,3,1,3,2,09.497,9497,-0.0400,8.8400,0.1000,8.8407,-0.0927,-0.0229,-0.1178,3.00,87.81,72.31,-0.2445,9.2506,-0.0795,9.2541
7,3,1,3,2,09.627,9627,-0.9000,9.0200,0.3000,9.0698,-0.0578,-0.0469,-0.4527,4.69,88.38,70.94,-0.3309,9.2202,-0.0295,9.2262
7,4,1,3,2,09.757,9757,-1.7500,9.8100,-0.1500,9.9660,0.0055,-0.0207,-0.2880,7.19,88.56,68.69,-0.5179,9.2979,-0.0454,9.3124
7,4,1,3,2,09.887,9887,-1.1600,10.0100,0.0200,10.0770,0.0796,-0.0175,-0.0196,7.56,88.31,68.50,-0.6025,9.3917,-0.0368,9.4111
7,4,1,3,2,10.017,10017,-1.0800,9.9300,0.4900,10.0006,0.2607,-0.0393,-0.0960,8.06,87.19,68.44,-0.6654,9.4627,0.0326,9.4861
7,4,1,3,2,10.148,10148,-1.6100,9.2600,1.0100,9.4530,0.3229,-0.0142,-0.0556,9.25,84.88,67.75,-0.7899,9.4360,0.1614,9.4703
7,4,1,3,2,10.278,10278,-2.3000,9.0700,1.0800,9.4192,0.2596,0.0349,-0.0458,9.81,82.88,67.50,-0.9889,9.3877,0.2825,9.4439
7,4,1,3,2,10.408,10408,-1.6800,9.3600,1.2100,9.5862,0.2771,0.0840,0.1233,9.38,81.19,67.75,-1.0800,9.3841,0.4047,9.4547
7,4,1,3,2,10.581,10581,-1.7800,9.8000,2.0400,10.1671,0.1473,0.0556,-0.1538,9.69,78.81,66.94,-1.1722,9.4389,0.6202,9.5316
7,4,1,3,2,10.711,10711,-1.1000,9.9600,2.4300,10.3110,-0.0087,0.0098,0.1538,9.00,78.38,67.44,-1.1627,9.5076,0.8587,9.6168
7,4,1,3,2,10.841,10841,-2.3700,13.1800,2.4600,13.6155,-0.1134,-0.0120,-0.2749,10.81,78.75,65.56,-1.3218,9.9915,1.0697,10.1352
7,4,1,3,2,10.971,10971,-2.1300,11.9700,2.2700,12.3681,-0.1505,-0.0305,0.2836,10.81,79.75,65.56,-1.4283,10.2522,1.2279,10.4238
7,4,1,3,2,11.102,11102,-2.3900,10.2400,1.6700,10.6470,-0.1833,-0.0567,0.0916,10.00,81.13,66.50,-1.5550,10.2506,1.2861,10.4473
7,4,1,3,2,11.232,11232,-1.8200,9.1700,1.2200,9.4281,-0.1571,-0.0698,0.1462,8.63,82.44,68.19,-1.5899,10.1082,1.2774,10.3119
7,4,1,3,2,11.362,11362,-0.9400,7.9200,0.9900,8.0368,-0.1582,-0.0578,0.0622,7.88,83.63,69.25,-1.5043,9.8199,1.2395,10.0114
7,4,1,3,2,11.493,11493,-1.2200,8.1200,0.7500,8.2453,-0.1876,-0.0709,-0.1724,8.50,84.94,68.94,-1.4668,9.5959,1.1750,9.7782
7,4,1,3,2,11.666,11666,-0.8300,9.4500,0.4100,9.4952,-0.1691,-0.0774,0.3371,6.94,86.75,71.06,-1.3829,9.5766,1.0742,9.7354
7,4,1,3,2,11.796,11796,-0.2400,9.0600,0.3000,9.0681,-0.1342,-0.0513,0.0185,5.06,87.88,73.25,-1.2323,9.5086,0.9722,9.6372
7,4,1,3,2,11.926,11926,-1.3200,9.0900,0.1800,9.1871,-0.0698,-0.0240,0.0218,5.75,88.69,72.75,-1.2439,9.4534,0.8678,9.5743
7,4,1,3,2,12.056,12056,-0.5600,8.7100,0.0000,8.7280,-0.0273,0.0131,0.1604,4.38,89.06,74.13,-1.1537,9.3554,0.7534,9.4564
7,4,1,3,2,12.186,12186,-0.3500,9.6500,0.2000,9.6584,-0.0175,-0.0065,0.0338,3.38,89.19,75.06,-1.0478,9.3943,0.6805,9.4770
7,4,1,3,2,12.316,12316,-0.4000,9.9900,0.1200,9.9987,-0.0185,-0.0382,0.0284,3.13,89.31,75.56,-0.9625,9.4728,0.6067,9.5408
7,4,1,3,2,12.447,12447,-0.6200,9.7700,0.0200,9.7897,0.0131,-0.0262,0.0785,2.88,89.31,76.00,-0.9173,9.5119,0.5294,9.5707
7,4,1,3,2,12.577,12577,-0.2100,9.6000,0.0700,9.6026,0.0196,0.0000,0.1014,2.13,89.19,76.88,-0.8241,9.5235,0.4688,9.5706
7,4,1,3,2,12.750,12750,-0.1100,9.5800,0.1400,9.5817,-0.0469,-0.0065,0.0131,1.69,89.31,77.31,-0.7300,9.5310,0.4255,9.5684
7,4,1,3,2,12.880,12880,-0.0300,9.5000,0.0900,9.5005,-0.0654,-0.0065,-0.0295,1.38,89.69,77.63,-0.6378,9.5269,0.3813,9.5558
7,4,1,3,2,13.010,13010,-0.5300,9.6500,0.0200,9.6646,-0.1080,-0.0044,-0.3229,2.94,90.31,76.00,-0.6236,9.5431,0.3337,9.5693
7,4,1,3,2,13.140,13140,-0.8400,9.1500,-0.1600,9.1899,-0.1396,-0.0175,-0.3000,4.75,91.19,74.25,-0.6521,9.4913,0.2686,9.5175
7,4,1,3,2,13.270,13270,-0.3800,8.3800,-0.2600,8.3926,-0.2203,-0.0240,0.0327,5.31,92.56,73.75,-0.6162,9.3449,0.1990,9.3673
7,4,1,3,2,13.401,13401,-1.4500,8.9100,-0.6500,9.0506,-0.2400,0.0022,-0.0164,5.69,94.38,73.25,-0.7261,9.2876,0.0871,9.3163
7,4,1,3,2,13.531,13531,-0.7400,9.1700,-1.0000,9.2540,-0.2029,0.0273,0.0818,5.31,96.00,73.31,-0.7279,9.2721,-0.0562,9.3008
7,5,1,3,2,13.662,13662,-0.9300,9.4000,-1.2200,9.5244,-0.1396,0.0164,0.0513,5.38,97.25,73.00,-0.7546,9.2889,-0.2095,9.3219
7,5,1,3,2,13.834,13834,-0.3200,9.5100,-1.4400,9.6237,-0.0676,0.0229,0.0545,4.13,98.25,73.94,-0.6973,9.3181,-0.3717,9.3515
7,5,1,3,2,13.964,13964,-0.5300,9.6700,-1.6100,9.8174,-0.0164,0.0076,0.0120,4.13,98.69,73.81,-0.6753,9.3644,-0.5349,9.4040
7,5,1,3,2,14.094,14094,-0.8400,9.6000,-1.4100,9.7393,0.0371,-0.0338,0.0033,4.25,98.56,73.81,-0.6970,9.3955,-0.6502,9.4437
7,5,1,3,2,14.224,14224,-0.4100,9.3400,-1.2100,9.4270,-0.0262,-0.0589,0.1244,3.06,98.44,75.31,-0.6591,9.3882,-0.7239,9.4391
7,5,1,3,2,14.354,14354,-0.6900,9.8200,-1.6200,9.9766,-0.1527,-0.0894,-0.1527,3.44,99.19,75.44,-0.6632,9.4451,-0.8420,9.5057
7,5,1,3,2,14.485,14485,-1.0700,9.7700,-1.3900,9.9262,-0.1636,-0.0993,-0.0240,4.63,100.44,74.88,-0.7168,9.4879,-0.9142,9.5588
7,5,1,3,2,14.616,14616,-1.0600,10.6000,-2.1700,10.8716,-0.0665,-0.0949,-0.1473,4.88,101.44,75.19,-0.7620,9.6344,-1.0797,9.7247
7,5,1,3,2,14.746,14746,-0.8400,10.9700,-2.6800,11.3238,-0.0360,-0.0480,-0.0393,5.06,101.94,75.50,-0.7723,9.8104,-1.2906,9.9251
7,5,1,3,2,14.919,14919,-2.0600,13.2900,-2.7900,13.7351,0.1058,0.0305,-0.0873,6.88,101.88,73.88,-0.9420,10.2689,-1.4882,10.4189
7,5,1,3,2,15.049,15049,-1.7200,12.1500,-2.5400,12.5313,0.1996,0.1080,-0.1167,7.25,100.75,73.06,-1.0445,10.5168,-1.6268,10.6930
7,5,1,3,2,15.179,15179,-2.4900,9.8800,-1.7300,10.3348,0.2956,0.1374,-0.2040,8.88,98.75,70.81,-1.2350,10.4329,-1.6404,10.6330
7,5,1,3,2,15.309,15309,-2.0700,9.5500,-1.3200,9.8605,0.2607,0.1494,0.2749,9.06,96.69,69.94,-1.3450,10.3166,-1.5982,10.5259
7,5,1,3,2,15.439,15439,-0.7300,9.4400,-0.5400,9.4836,0.2934,0.0851,0.3523,6.44,94.50,72.00,-1.2640,10.2011,-1.4587,10.3821
7,5,1,3,2,15.570,15570,-0.5400,8.2400,-0.2800,8.2624,0.2553,0.0938,-0.0731,5.31,92.38,72.75,-1.1686,9.9426,-1.3034,10.0956
7,5,1,3,2,15.700,15700,-1.0500,7.6200,0.0200,7.6920,0.1527,0.1473,-0.2073,7.13,90.75,70.19,-1.1530,9.6366,-1.1290,9.7707
7,5,1,3,2,15.830,15830,-1.1100,7.3700,-0.1600,7.4548,0.0578,0.1713,0.1702,7.50,89.81,68.81,-1.1473,9.3379,-1.0013,9.4612
7,6,1,3,2,16.003,16003,-0.0900,10.3100,0.1700,10.3118,-0.0284,0.0938,0.4287,4.94,89.69,70.06,-1.0080,9.4660,-0.8470,9.5571
7,6,1,3,2,16.134,16134,-0.9900,9.8000,-0.0900,9.8503,-0.0087,0.0589,-0.3971,4.06,89.81,70.50,-1.0056,9.5100,-0.7472,9.5922
7,6,1,3,2,16.264,16264,-0.5800,10.1200,-0.0300,10.1367,0.0873,0.0665,0.0905,5.19,89.44,68.88,-0.9495,9.5904,-0.6527,9.6594
7,6,1,3,2,16.395,16395,-0.0300,9.5300,0.3200,9.5354,0.1451,0.0175,0.0327,4.63,88.56,69.25,-0.8283,9.5824,-0.5245,9.6325
7,6,1,3,2,16.526,16526,-0.5000,9.5300,0.5700,9.5601,0.1025,-0.0513,0.0404,4.94,87.81,69.19,-0.7851,9.5755,-0.3803,9.6152
7,6,1,3,2,16.656,16656,-0.3800,9.6300,0.3000,9.6422,0.1614,-0.0567,0.3153,3.38,86.88,71.19,-0.7317,9.5827,-0.2907,9.6150
7,6,1,3,2,16.787,16787,-0.7300,8.9600,0.6500,9.0132,0.1833,-0.0578,-0.2160,3.50,85.63,71.56,-0.7315,9.5006,-0.1667,9.5302
7,6,1,3,2,16.917,16917,-0.6800,8.9500,0.7400,9.0062,0.2105,-0.0425,-0.0840,4.50,84.38,71.00,-0.7247,9.4281,-0.0472,9.4560
7,6,1,3,2,17.090,17090,-0.5200,8.6100,1.3200,8.7261,0.1200,0.0109,-0.0415,5.06,82.75,70.75,-0.6977,9.3203,0.1329,9.3473
7,6,1,3,2,17.225,17225,-1.4700,8.9000,1.2800,9.1109,-0.0076,0.0404,-0.1374,6.06,82.31,69.56,-0.7995,9.2649,0.2841,9.3037
7,6,1,3,2,17.356,17356,-0.5800,9.6700,1.0300,9.7420,0.0262,0.0044,0.0142,6.06,82.31,69.38,-0.7706,9.3183,0.3824,9.3579
7,6,1,3,2,17.486,17486,-0.5400,9.4300,1.1000,9.5093,0.1298,-0.0415,-0.1614,6.38,82.00,69.19,-0.7402,9.3330,0.4770,9.3744
7,6,1,3,2,17.617,17617,-1.6500,9.0400,1.8300,9.3698,0.1320,-0.0491,-0.2574,8.75,80.94,67.25,-0.8601,9.2944,0.6552,9.3571
7,6,1,3,2,17.747,17747,-2.4800,9.0000,1.9800,9.5431,0.0458,-0.0458,-0.2236,10.25,80.19,66.19,-1.0735,9.2556,0.8298,9.3545
7,6,1,3,2,17.878,17878,-2.2200,10.2100,2.1700,10.6715,-0.0676,-0.0578,0.0840,10.69,80.38,66.06,-1.2246,9.3814,1.0064,9.5143
7,6,1,3,2,18.008,18008,-1.5600,11.7300,1.8100,11.9709,-0.0382,-0.1222,0.0415,10.13,81.00,67.25,-1.2688,9.6909,1.1123,9.8367
7,6,1,3,2,18.181,18181,-3.4000,13.9100,2.1200,14.4756,0.1036,-0.1004,0.0709,11.50,80.75,67.06,-1.5496,10.2468,1.2451,10.4379
7,6,1,3,2,18.311,18311,-1.8200,12.4900,1.7300,12.7399,0.0862,-0.0295,0.3185,9.13,80.25,70.00,-1.5853,10.5424,1.3090,10.7410
7,6,1,3,2,18.441,18441,-2.8500,9.5000,2.0200,10.1219,0.0131,-0.0415,-0.4211,10.19,79.94,69.19,-1.7519,10.4051,1.4027,10.6443
7,6,1,3,2,18.571,18571,-1.8500,8.3000,1.5200,8.6385,-0.0207,-0.0262,0.2051,10.25,79.88,69.31,-1.7649,10.1277,1.4181,10.3776
7,6,1,3,2,18.701,18701,-1.0900,8.3400,1.5800,8.5580,-0.1385,-0.0393,0.2585,9.31,80.63,70.44,-1.6759,9.8921,1.4395,10.1358
7,6,1,3,2,18.832,18832,-2.2000,8.6400,1.1400,8.9883,-0.2029,-0.0087,0.2454,8.13,82.06,71.75,-1.7450,9.7271,1.4000,9.9811
7,6,1,3,2,18.962,18962,-0.2900,7.8700,0.5800,7.8967,-0.1974,0.0807,0.4821,4.06,83.50,75.38,-1.5533,9.4824,1.2920,9.6952
7,6,1,3,2,19.092,19092,-1.0900,7.3700,0.8800,7.5020,-0.1462,0.0873,-0.2891,4.31,84.50,74.31,-1.4922,9.2040,1.2377,9.4060
7,6,1,3,2,19.265,19265,-0.4400,8.8000,1.2600,8.9006,-0.1353,0.1484,0.2934,2.31,85.38,75.00,-1.3536,9.1508,1.2406,9.3332
7,7,1,3,2,19.396,19396,1.4400,10.4300,0.6200,10.5472,-0.0600,0.0960,0.2869,-0.25,85.94,76.00,-0.9854,9.3194,1.1588,9.4427
7,7,1,3,2,19.526,19526,0.5000,10.1800,0.4400,10.2018,0.0753,-0.0480,-0.2847,0.19,85.75,75.06,-0.7897,9.4328,1.0641,9.5254
7,7,1,3,2,19.656,19656,-0.8300,9.0500,0.8500,9.1276,0.0164,-0.0578,0.1265,1.25,85.25,74.44,-0.7950,9.3823,1.0359,9.4728
7,7,1,3,2,19.786,19786,-0.0400,8.8600,0.7900,8.8952,-0.2029,0.0033,0.3000,-0.50,85.88,76.38,-0.6955,9.3135,1.0035,9.3932
7,7,1,3,2,19.916,19916,0.4200,9.1500,0.6400,9.1820,-0.3632,0.0262,-0.2302,-0.75,88.25,75.94,-0.5485,9.2920,0.9556,9.3571
7,7,1,3,2,20.046,20046,0.3400,9.1300,-0.0500,9.1365,-0.2716,0.0164,-0.1625,0.81,90.63,73.94,-0.4314,9.2706,0.8231,9.3171
7,7,1,3,2,20.177,20177,-0.2900,8.7500,-0.1000,8.7554,-0.1047,-0.0109,-0.0360,1.56,91.81,73.06,-0.4128,9.2020,0.7014,9.2379
7,7,1,3,2,20.349,20349,0.1700,9.2100,-0.3400,9.2178,-0.1451,-0.0196,0.0316,1.19,92.88,73.50,-0.3360,9.2031,0.5642,9.2265
7,7,1,3,2,20.479,20479,0.2900,9.5400,-0.5400,9.5597,-0.2531,-0.0687,-0.2171,1.13,94.31,73.88,-0.2535,9.2475,0.4187,9.2604
7,7,1,3,2,20.609,20609,-0.9800,9.8400,-1.1200,9.9519,-0.2651,-0.0829,-0.1713,3.19,96.31,72.31,-0.3492,9.3255,0.2159,9.3346
7,7,1,3,2,20.739,20739,-0.6200,9.8700,-1.3400,9.9798,-0.2083,-0.0644,0.1833,3.13,98.00,72.75,-0.3849,9.3973,0.0109,9.4052
7,7,1,3,2,20.870,20870,-0.4200,9.1600,-1.5800,9.3048,-0.1625,-0.0905,-0.1287,2.81,99.38,73.63,-0.3895,9.3660,-0.1987,9.3762
7,7,1,3,2,21.000,21000,-0.9200,9.3400,-1.7000,9.5379,-0.1069,-0.0316,-0.3305,4.31,100.44,72.38,-0.4594,9.3626,-0.3966,9.3822
7,7,1,3,2,21.131,21131,-1.1600,10.2500,-1.9400,10.4963,0.1309,0.0327,-0.1844,6.50,100.38,70.13,-0.5518,9.4795,-0.5999,9.5145
7,7,1,3,2,21.261,21261,-1.1500,11.4100,-1.5900,11.5775,0.3949,0.0316,-0.2563,7.63,98.38,69.56,-0.6306,9.7339,-0.7304,9.7816
7,7,1,3,2,21.434,21434,-3.2500,12.1100,-1.4300,12.6198,0.4265,0.0469,-0.2793,11.69,94.44,66.44,-0.9758,10.0470,-0.8226,10.1278
7,7,1,3,2,21.565,21565,-3.0100,12.6200,-0.4000,12.9802,0.4091,0.1353,0.5323,10.94,91.19,68.50,-1.2438,10.3861,-0.7669,10.4884
7,7,1,3,2,21.696,21696,-1.6600,11.2500,0.2400,11.3743,0.2280,0.1822,0.1396,8.13,88.63,70.69,-1.2987,10.4999,-0.6342,10.5989
7,7,1,3,2,21.826,21826,-2.0000,8.8100,0.7200,9.0628,0.0382,0.1342,-0.1865,8.63,87.56,69.19,-1.3911,10.2772,-0.4558,10.3810
7,7,1,3,2,21.957,21957,-1.3600,9.2000,0.3900,9.3082,-0.1538,-0.0142,0.1996,8.69,87.81,68.75,-1.3870,10.1353,-0.3443,10.2355
7,7,1,3,2,22.087,22087,-0.7100,9.5200,0.2000,9.5485,-0.1462,-0.0742,-0.1407,7.88,89.13,69.69,-1.2978,10.0542,-0.2726,10.1413
7,7,1,3,2,22.218,22218,-1.7800,9.0000,0.2900,9.1789,-0.0185,-0.0916,-0.3992,10.00,89.75,68.13,-1.3613,9.9153,-0.1985,10.0103
7,7,1,3,2,22.349,22349,-1.9000,7.9300,-0.0400,8.1545,0.0196,-0.0513,0.1145,11.06,89.81,67.75,-1.4323,9.6537,-0.1776,9.7610
7,7,1,3,2,22.526,22526,-2.0700,8.8400,-0.2000,9.0813,0.0415,-0.0142,-0.1113,11.44,89.75,67.81,-1.5163,9.5465,-0.1805,9.6678
7,7,1,3,2,22.656,22656,-0.9800,7.9700,-0.6200,8.0539,0.1145,0.0273,1.0025,6.44,89.25,72.94,-1.4457,9.3387,-0.2384,9.4530
7,7,1,3,2,22.787,22787,0.9600,10.5000,0.5000,10.5556,0.1287,0.0633,0.4614,1.13,88.56,77.56,-1.1287,9.4917,-0.1411,9.5597
7,7,1,3,2,22.917,22917,-0.6500,9.1400,0.2400,9.1662,0.1505,0.0687,-1.3145,5.31,87.44,72.56,-1.0656,9.4454,-0.0909,9.5057
7,7,1,3,2,23.048,23048,-1.7500,9.5100,0.4500,9.6801,0.1549,0.1014,0.6578,7.75,86.31,69.56,-1.1558,9.4539,-0.0196,9.5243
7,7,1,3,2,23.179,23179,0.2800,9.6100,0.8400,9.6507,0.1233,0.0469,0.5018,1.50,85.31,75.19,-0.9666,9.4745,0.0936,9.5241
7,7,1,3,2,23.309,23309,0.2300,9.4200,0.8900,9.4647,0.0960,0.0273,-0.0862,0.13,84.50,75.63,-0.8089,9.4673,0.1986,9.5039
7,7,1,3,2,23.440,23440,-0.5900,9.0500,1.0200,9.1264,0.1124,0.0731,-0.3742,2.19,83.81,73.00,-0.7801,9.4123,0.3068,9.4496
7,7,1,3,2,23.612,23612,-1.1600,9.1400,1.1300,9.2824,0.2149,0.0949,-0.1854,4.69,82.25,69.44,-0.8301,9.3764,0.4153,9.4223
7,7,1,3,2,23.742,23742,-0.7200,9.1200,1.5300,9.2754,0.1931,0.0851,0.1756,4.38,80.75,69.13,-0.8156,9.3426,0.5622,9.3950
7,7,1,3,2,23.872,23872,-0.3200,9.2400,1.8500,9.4288,0.1625,0.0600,0.0862,3.06,79.44,69.81,-0.7503,9.3291,0.7319,9.3878
7,7,1,3,2,24.002,24002,-1.2000,8.9900,1.8500,9.2565,0.1211,0.0622,-0.1080,3.56,78.38,68.75,-0.8096,9.2844,0.8792,9.3610
7,7,1,3,2,24.132,24132,-0.6800,8.6200,1.9800,8.8706,0.0382,0.1134,0.2214,3.31,77.75,68.06,-0.7925,9.1969,1.0243,9.2876
7,8,1,3,2,24.263,24263,0.4300,9.3100,1.9900,9.5300,-0.0055,0.0742,0.1865,1.31,77.63,69.13,-0.6314,9.2118,1.1515,9.3049
7,8,1,3,2,24.393,24393,-1.0300,9.4800,1.9800,9.7392,-0.0164,0.0262,-0.6120,3.25,77.69,66.81,-0.6839,9.2471,1.2607,9.3577
7,8,1,3,2,24.524,24524,-0.9800,9.4100,2.3000,9.7365,-0.0371,0.0153,-0.0600,4.56,77.81,65.38,-0.7229,9.2686,1.3977,9.4012
7,8,1,3,2,24.697,24697,-1.4800,9.7300,1.9800,10.0391,-0.1625,0.0087,-0.2236,5.94,78.56,63.88,-0.8227,9.3294,1.4744,9.4809
7,8,1,3,2,24.827,24827,-1.4000,11.2000,1.9100,11.4476,-0.2596,0.0076,0.1887,6.56,80.06,63.13,-0.8988,9.5759,1.5318,9.7392
7,8,1,3,2,24.957,24957,-1.1500,15.5800,2.2700,15.7864,-0.1702,-0.0076,0.2563,5.31,81.75,64.19,-0.9319,10.3671,1.6291,10.5356
7,8,1,3,2,25.087,25087,-0.4800,12.1500,1.3900,12.2387,-0.0371,-0.0207,-0.0753,3.94,82.38,65.63,-0.8723,10.6020,1.5976,10.7571
7,8,1,3,2,25.217,25217,-1.7700,9.5900,1.1500,9.8195,-0.0284,-0.0349,-0.3796,6.13,82.56,63.63,-0.9906,10.4687,1.5386,10.6274
7,8,1,3,2,25.347,25347,-2.1200,9.2400,1.2000,9.5557,-0.0393,-0.0305,-0.0055,7.88,82.75,62.13,-1.1394,10.3068,1.4940,10.4766
7,8,1,3,2,25.478,25478,-0.9700,8.3900,1.0400,8.5097,-0.1189,-0.0338,0.3414,6.88,83.38,63.38,-1.1171,10.0542,1.4342,10.2172
7,8,1,3,2,25.608,25608,-0.9500,9.2600,0.7400,9.3380,-0.1462,-0.0349,0.0164,5.75,84.56,64.69,-1.0951,9.9495,1.3427,10.0993
7,8,1,3,2,25.781,25781,-1.0900,7.3800,0.4200,7.4719,-0.0545,0.0665,0.0425,6.13,85.56,64.00,-1.0944,9.6109,1.2211,9.7498
7,8,1,3,2,25.912,25912,-1.2700,8.5800,0.2800,8.6780,-0.0316,0.1265,0.2694,5.44,85.75,63.94,-1.1176,9.4751,1.0971,9.6036
7,8,1,3,2,26.042,26042,1.3000,10.4600,0.8700,10.5763,0.0415,0.1254,0.7189,0.44,85.63,67.88,-0.7990,9.6049,1.0672,9.6969
7,8,1,3,2,26.173,26173,1.4100,9.5300,0.6600,9.6563,0.0131,0.0393,-0.3665,-1.31,85.44,68.19,-0.5079,9.5950,1.0135,9.6617
7,8,1,3,2,26.303,26303,-0.1100,9.7000,0.8200,9.7352,0.0033,-0.0240,-0.3022,0.81,85.38,65.69,-0.4555,9.6088,0.9880,9.6702
7,8,1,3,2,26.434,26434,-0.5700,9.3700,0.9800,9.4383,-0.0109,-0.0469,0.0295,1.75,85.44,64.75,-0.4706,9.5774,0.9870,9.6396
7,8,1,3,2,26.564,26564,0.4000,9.2000,0.5500,9.2251,-0.0447,-0.0731,0.1833,1.00,85.63,65.81,-0.3558,9.5276,0.9294,9.5795
7,8,1,3,2,26.694,26694,-0.4800,10.7000,0.8000,10.7406,-0.0633,-0.0567,-0.1614,0.56,86.13,66.75,-0.3722,9.6821,0.9123,9.7321
7,8,1,3,2,26.867,26867,-0.1000,10.3100,0.2700,10.3140,-0.0458,-0.0905,0.4331,1.38,86.56,66.50,-0.3363,9.7649,0.8277,9.8056
7,8,1,3,2,26.999,26999,0.3700,9.5900,0.4600,9.6082,0.0469,-0.1091,-0.0316,-0.44,86.44,68.94,-0.2433,9.7418,0.7792,9.7760
7,8,1,3,2,27.130,27130,-0.2700,8.9000,0.6800,8.9300,-0.0065,-0.0840,-0.0927,0.88,86.25,68.31,-0.2468,9.6309,0.7662,9.6645
7,8,1,3,2,27.264,27264,-0.4900,8.5000,0.7800,8.5498,-0.0491,-0.0644,-0.1331,2.19,86.38,67.50,-0.2788,9.4819,0.7680,9.5170
7,9,1,3,2,27.395,27395,-0.2800,9.9100,0.4700,9.9251,-0.0709,-0.1004,0.0731,2.00,86.88,68.50,-0.2790,9.5383,0.7287,9.5701
7,9,1,3,2,27.525,27525,-0.2700,10.1100,0.2700,10.1172,-0.0240,-0.0971,-0.1113,2.00,87.25,69.19,-0.2778,9.6136,0.6683,9.6408
7,9,1,3,2,27.656,27656,-0.5800,9.8800,0.2400,9.8999,0.0011,-0.0415,-0.1189,2.81,87.50,68.94,-0.3176,9.6487,0.6118,9.6733
7,9,1,3,2,27.786,27786,-0.7900,8.9100,0.5800,8.9637,0.0109,-0.0185,-0.0916,3.50,87.44,68.38,-0.3799,9.5514,0.6076,9.5782
7,9,1,3,2,27.959,27959,-0.1400,8.3700,0.2500,8.3749,-0.1200,0.0033,0.0251,3.13,87.94,68.81,-0.3483,9.3957,0.5605,9.4188
7,9,1,3,2,28.089,28089,-0.2300,9.4400,-0.1100,9.4434,-0.2454,0.0185,-0.2040,3.31,89.38,68.50,-0.3327,9.4015,0.4722,9.4193
7,9,1,3,2,28.219,28219,-1.4900,9.9300,-0.4300,10.0504,-0.2400,-0.0131,-0.3622,5.94,91.13,65.69,-0.4852,9.4712,0.3533,9.4902
7,9,1,3,2,28.349,28349,-1.2800,9.4500,-0.5000,9.5494,-0.1385,-0.0425,0.3927,6.31,92.50,65.38,-0.5899,9.4684,0.2408,9.4898
7,9,1,3,2,28.479,28479,0.1600,10.5900,-0.0300,10.5913,-0.0742,-0.0982,0.4396,1.75,93.19,70.56,-0.4911,9.6162,0.2051,9.6309
7,9,1,3,2,28.610,28610,-0.2500,10.8800,-0.1100,10.8834,-0.0382,-0.1451,-0.0600,2.63,93.44,70.75,-0.4593,9.7827,0.1636,9.7949
7,9,1,3,2,28.740,28740,-0.5400,10.8100,-0.7700,10.8508,-0.0807,-0.1516,-0.1865,3.06,93.81,71.56,-0.4700,9.9181,0.0406,9.9293
7,9,1,3,2,28.871,28871,-1.6600,13.4100,-1.2700,13.5719,-0.1244,-0.0938,-0.0262,4.38,94.75,71.44,-0.6268,10.3782,-0.1321,10.3980
7,9,1,3,2,29.044,29044,0.5800,12.3700,-1.6700,12.4957,0.0404,-0.0545,0.4461,0.50,95.31,76.44,-0.4678,10.6407,-0.3348,10.6562
7,9,1,3,2,29.174,29174,-0.6100,9.9900,-0.6200,10.0278,0.1669,-0.0578,-0.2509,0.31,94.56,77.13,-0.4865,10.5550,-0.3724,10.5727
7,9,1,3,2,29.304,29304,-1.3200,9.6500,-0.5800,9.7571,0.2051,-0.0044,-0.1614,2.00,93.19,75.81,-0.5963,10.4357,-0.3997,10.4604
7,9,1,3,2,29.434,29434,-0.9100,9.3600,-0.1200,9.4049,0.2258,0.0818,0.1909,2.31,91.56,75.19,-0.6377,10.2940,-0.3629,10.3201
7,9,1,3,2,29.564,29564,0.2900,7.7600,-0.0700,7.7657,0.1582,0.1385,-0.1724,1.69,90.13,75.06,-0.5154,9.9600,-0.3243,9.9786
7,9,1,3,2,29.694,29694,-0.7300,7.6600,-0.0600,7.6949,0.0949,0.1233,-0.2913,4.06,89.19,71.56,-0.5437,9.6570,-0.2894,9.6766
7,9,1,3,2,29.825,29825,-0.3900,7.7800,0.2200,7.7929,0.0785,0.1407,0.3840,2.81,88.44,71.88,-0.5234,9.4096,-0.2223,9.4268
7,9,1,3,2,29.955,29955,0.4100,9.3100,0.5300,9.3341,0.1047,0.1549,0.3382,0.63,87.63,73.06,-0.4004,9.3965,-0.1232,9.4058
7,9,1,3,2,30.128,30128,0.9600,9.1900,0.3300,9.2459,0.0774,0.0589,-0.4276,-1.19,86.75,73.81,-0.2212,9.3693,-0.0635,9.3721
7,10,1,3,2,30.258,30258,0.1100,10.0700,0.4900,10.0825,0.0644,0.0164,0.1418,0.38,86.38,71.94,-0.1775,9.4616,0.0095,9.4633
7,10,1,3,2,30.388,30388,0.0300,9.7300,0.5800,9.7473,0.0295,-0.0098,0.1036,-0.19,86.06,72.56,-0.1502,9.4970,0.0847,9.4986
7,10,1,3,2,30.518,30518,0.2800,9.4800,0.6200,9.5044,0.0404,-0.0262,0.0371,-0.69,85.88,73.25,-0.0935,9.4947,0.1552,9.4965
7,10,1,3,2,30.648,30648,0.6400,8.4600,0.7400,8.5164,0.0818,-0.0349,-0.0055,-0.94,85.44,73.69,0.0032,9.3584,0.2323,9.3613
7,10,1,3,2,30.778,30778,-0.1200,8.9100,0.8200,8.9485,0.1320,-0.0436,-0.3076,0.50,84.63,72.50,-0.0131,9.2993,0.3097,9.3045
7,10,1,3,2,30.909,30909,-0.0300,9.6000,1.0800,9.6606,0.1364,-0.0207,0.0240,1.50,83.63,71.75,-0.0153,9.3389,0.4112,9.3480
7,10,1,3,2,31.039,31039,-0.2500,9.8200,1.0500,9.8791,0.0818,0.0076,-0.1505,1.44,82.88,71.88,-0.0462,9.4023,0.4954,9.4155
7,10,1,3,2,31.212,31212,-0.7400,9.4800,1.2300,9.5881,0.0436,0.0556,-0.0949,3.25,82.38,69.75,-0.1376,9.4126,0.5922,9.4322
7,10,1,3,2,31.342,31342,-0.4500,9.6000,1.4600,9.7208,0.0404,0.0622,0.0676,3.31,82.00,69.25,-0.1788,9.4373,0.7065,9.4654
7,10,1,3,2,31.472,31472,-0.1700,8.9100,1.6900,9.0705,0.0065,0.0229,0.0011,2.88,81.81,69.38,-0.1776,9.3678,0.8361,9.4067
7,10,1,3,2,31.602,31602,-0.6100,9.0900,1.3600,9.2114,-0.0862,-0.0065,-0.1353,3.13,81.75,69.00,-0.2346,9.3312,0.9052,9.3779
7,10,1,3,2,31.732,31732,-0.8600,10.6700,1.0700,10.7579,-0.1036,-0.0393,0.0415,3.50,82.50,68.75,-0.3170,9.5076,0.9269,9.5579
7,10,1,3,2,31.862,31862,-0.1800,10.7800,1.4300,10.8759,0.0513,-0.0971,0.3043,1.94,82.69,70.88,-0.2990,9.6753,0.9932,9.7307
7,10,1,3,2,31.993,31993,0.7700,11.2200,1.3800,11.3307,0.0742,-0.1058,-0.1418,0.88,82.19,72.69,-0.1581,9.8788,1.0442,9.9351
7,10,1,3,2,32.123,32123,-0.4900,10.4000,1.3700,10.5013,0.1484,-0.1396,-0.5694,4.44,81.44,70.06,-0.2018,9.9475,1.0871,10.0088
7,10,1,3,2,32.296,32296,-2.5500,11.1900,2.0400,11.6568,0.3545,-0.0840,0.1025,8.69,79.06,67.13,-0.5113,10.1112,1.2127,10.1965
7,10,1,3,2,32.426,32426,-1.4100,12.2000,3.2600,12.7065,0.2891,0.0142,0.1865,6.31,76.63,70.00,-0.6297,10.3865,1.4825,10.5106
7,10,1,3,2,32.556,32556,-1.5800,11.1400,3.3800,11.7482,-0.0033,0.1102,-0.0022,6.38,75.69,69.44,-0.7549,10.4858,1.7325,10.6547
7,10,1,3,2,32.686,32686,-1.9100,8.4200,2.0500,8.8740,-0.1898,0.1745,-0.2443,6.88,76.31,67.81,-0.9071,10.2136,1.7743,10.4061
7,10,1,3,2,32.816,32816,-1.4000,9.3500,1.9200,9.6472,-0.2705,0.2105,0.2509,6.88,77.88,66.13,-0.9721,10.0998,1.7935,10.3037
7,10,1,3,2,32.946,32946,-1.0700,9.0000,1.6900,9.2196,-0.2716,0.1473,-0.0044,6.31,79.69,65.25,-0.9850,9.9548,1.7799,10.1606
7,10,1,3,2,33.077,33077,-0.9400,8.3900,1.3400,8.5482,-0.2793,0.0447,0.3098,4.88,81.56,65.88,-0.9791,9.7486,1.7219,9.9478
7,10,1,3,2,33.207,33207,0.4000,8.3100,0.7400,8.3525,-0.3632,0.0360,0.8149,0.50,83.81,70.00,-0.7973,9.5591,1.5925,9.7236
7,10,1,3,2,33.380,33380,0.9800,7.9700,0.1500,8.0314,-0.2705,-0.0764,-0.8312,-0.81,86.75,70.94,-0.5631,9.3497,1.4024,9.4710
7,11,1,3,2,33.511,33511,1.3700,10.5700,-0.3400,10.6638,-0.1004,-0.0982,0.4592,0.25,88.00,70.44,-0.3084,9.5105,1.1728,9.5875
7,11,1,3,2,33.642,33642,0.0900,11.1000,-0.3600,11.1062,0.0545,-0.1385,-0.1014,0.69,88.00,70.63,-0.2559,9.7199,0.9708,9.7716
7,11,1,3,2,33.772,33772,-0.8000,9.3800,0.5800,9.4319,0.1844,-0.1418,-0.0436,1.06,87.06,71.31,-0.3276,9.6751,0.9193,9.7242
7,11,1,3,2,33.903,33903,-0.1700,9.1700,0.6000,9.1912,0.0949,-0.0764,0.1953,0.06,86.13,73.06,-0.3068,9.6086,0.8773,9.6534
7,11,1,3,2,34.033,34033,-0.1100,9.1400,0.9200,9.1868,-0.0305,0.0098,0.0393,-0.19,85.94,73.63,-0.2809,9.5468,0.8829,9.5917
7,11,1,3,2,34.163,34163,0.4300,9.6400,0.8200,9.6844,-0.1200,0.0698,0.1025,-0.81,86.44,73.81,-0.1872,9.5591,0.8746,9.6009
7,11,1,3,2,34.293,34293,0.7900,9.6200,0.6000,9.6710,-0.1244,0.0458,-0.0371,-1.88,87.25,74.25,-0.0584,9.5671,0.8384,9.6040
7,11,1,3,2,34.466,34466,0.1500,7.0400,0.2300,7.0454,-0.0524,0.0229,-0.2073,-1.31,88.00,73.13,-0.0310,9.2341,0.7582,9.2652
7,11,1,3,2,34.597,34597,-0.5600,9.5900,-0.0700,9.6066,-0.0404,-0.0175,-0.1276,1.81,88.31,69.88,-0.1007,9.2810,0.6491,9.3042
7,11,1,3,2,34.730,34730,0.1700,10.6400,-0.1800,10.6429,-0.0731,-0.0327,0.0316,0.81,88.75,71.13,-0.0650,9.4601,0.5398,9.4757
7,11,1,3,2,34.861,34861,-0.2400,9.0000,-0.3100,9.0085,-0.0851,-0.0295,-0.2160,1.31,89.31,70.81,-0.0881,9.3995,0.4279,9.4096
7,11,1,3,2,34.994,34994,-0.5100,9.0400,-0.0500,9.0545,-0.0982,-0.0371,-0.1276,2.50,90.13,69.81,-0.1437,9.3521,0.3649,9.3603
7,11,1,3,2,35.125,35125,-0.9300,9.6000,-0.1600,9.6463,-0.1353,-0.0731,-0.1494,3.50,91.06,69.25,-0.2473,9.3848,0.2957,9.3927
7,11,1,3,2,35.255,35255,-0.6900,10.3000,-0.4800,10.3342,-0.1320,-0.1047,-0.0164,3.94,92.13,69.38,-0.3056,9.5054,0.1935,9.5122
7,11,1,3,2,35.386,35386,-1.1400,10.6700,-0.4500,10.7402,-0.1200,-0.1451,0.1102,4.38,93.06,69.81,-0.4156,9.6588,0.1087,9.6684
7,11,1,3,2,35.559,35559,-0.0400,10.7300,-1.0800,10.7843,-0.1233,-0.1233,0.0785,2.06,94.25,73.44,-0.3661,9.8000,-0.0479,9.8069
7,11,1,3,2,35.689,35689,-0.6300,10.6700,-1.1900,10.7546,-0.1396,-0.0513,-0.5301,3.50,95.44,72.56,-0.4009,9.9146,-0.1984,9.9247
7,11,1,3,2,35.819,35819,-1.9500,10.1700,-1.2500,10.4304,-0.1342,-0.0305,-0.4309,7.75,96.38,69.00,-0.6050,9.9483,-0.3370,9.9724
7,11,1,3,2,35.949,35949,-1.2900,12.2100,-1.7300,12.3992,-0.1680,-0.0142,0.4058,7.25,97.50,70.50,-0.6953,10.2463,-0.5206,10.2831
7,11,1,3,2,36.079,36079,-0.0900,14.0600,-2.2000,14.2314,-0.0218,-0.0720,0.1571,4.50,98.19,73.94,-0.6155,10.7489,-0.7419,10.7920
7,11,1,3,2,36.209,36209,-2.1100,10.5300,-1.1100,10.7965,0.1604,-0.1167,-0.4614,6.44,97.75,72.88,-0.8124,10.7200,-0.7904,10.7798
7,11,1,3,2,36.340,36340,-2.3300,9.2600,-1.5300,9.6704,0.2083,-0.0698,0.3185,6.56,96.38,74.31,-1.0124,10.5276,-0.8878,10.6134
7,11,1,3,2,36.470,36470,-0.8500,9.4100,-0.9700,9.4980,0.1538,-0.0273,0.3742,3.56,95.25,77.88,-0.9910,10.3804,-0.8987,10.4662
7,11,1,3,2,36.643,36643,0.2600,8.5100,-0.7400,8.5461,0.2422,-0.0382,-0.1505,2.31,93.50,79.50,-0.8262,10.1339,-0.8778,10.2053
7,11,1,3,2,36.774,36774,-1.4200,7.7400,-0.6000,7.8920,0.2847,0.0480,-0.4254,5.19,91.50,76.81,-0.9044,9.8184,-0.8412,9.8958
7,11,1,3,2,36.904,36904,-1.6500,7.7800,-0.3900,7.9626,0.2869,0.2389,0.1702,6.81,89.31,74.44,-1.0027,9.5498,-0.7817,9.6341
7,11,1,3,2,37.034,37034,-0.2900,9.0300,-0.0300,9.0347,0.2367,0.2967,0.3163,4.44,87.25,75.00,-0.9088,9.4813,-0.6827,9.5492
7,11,1,3,2,37.164,37164,0.0600,9.9300,1.0800,9.9887,0.1996,0.2694,0.0578,2.81,85.63,74.44,-0.7811,9.5404,-0.4504,9.5830
7,11,1,3,2,37.294,37294,-0.7200,9.2100,0.7200,9.2661,0.1298,0.2618,-0.2083,3.69,84.31,71.56,-0.7730,9.4969,-0.2962,9.5329
7,11,1,3,2,37.424,37424,0.1900,9.6300,0.7700,9.6626,0.0622,0.2553,0.1102,3.94,83.56,69.44,-0.6461,9.5144,-0.1557,9.5376
7,11,1,3,2,37.555,37555,-0.0800,9.2200,1.4200,9.3291,0.0393,0.1658,0.0284,3.13,83.06,68.69,-0.5715,9.4756,0.0520,9.4930
7,11,1,3,2,37.727,37727,0.2700,9.2400,1.1000,9.3092,-0.0305,0.1233,0.2247,2.25,83.06,68.31,-0.4606,9.4446,0.1901,9.4577
7,11,1,3,2,37.858,37858,-0.0700,8.8000,1.1500,8.8751,0.0196,0.0742,-0.2018,2.06,83.13,67.75,-0.4092,9.3597,0.3166,9.3739
7,12,1,3,2,37.988,37988,-0.5500,9.7500,1.4300,9.8696,0.1211,0.0524,-0.0436,3.31,82.56,66.13,-0.4277,9.4111,0.4633,9.4322
7,12,1,3,2,38.118,38118,0.8900,9.1500,1.1400,9.2636,0.2029,0.0644,-0.0142,2.63,81.25,66.50,-0.2541,9.3767,0.5525,9.3964
7,12,1,3,2,38.248,38248,-1.4600,9.3800,1.5100,9.6123,0.2498,0.0316,-0.6774,5.69,79.56,63.13,-0.4130,9.3771,0.6786,9.4107
7,12,1,3,2,38.378,38378,-2.4700,8.6700,1.7400,9.1814,0.2171,0.0709,-0.0338,8.13,77.69,60.31,-0.6841,9.2839,0.8185,9.3450
7,12,1,3,2,38.508,38508,-0.3600,7.5700,2.4100,7.9525,0.0960,0.0055,0.5160,5.50,76.69,62.75,-0.6414,9.0581,1.0282,9.1388
7,12,1,3,2,38.639,38639,0.2800,8.9500,2.3900,9.2678,-0.1756,-0.1374,0.1691,3.31,76.88,65.25,-0.5199,9.0438,1.2077,9.1389
7,12,1,3,2,38.811,38811,-1.3200,11.7300,1.4300,11.8903,-0.1571,-0.2814,-0.0273,4.38,79.00,66.19,-0.6254,9.3978,1.2370,9.4995
7,12,1,3,2,38.941,38941,-1.2500,11.8700,1.9800,12.0988,0.1516,-0.2073,0.0545,4.31,79.06,68.06,-0.7077,9.7236,1.3349,9.8403
7,12,1,3,2,39.071,39071,-1.1700,10.6200,2.3100,10.9311,0.2760,-0.1451,-0.2727,5.50,77.44,68.19,-0.7686,9.8417,1.4634,9.9795
7,12,1,3,2,39.201,39201,-1.9100,10.2800,2.3700,10.7212,0.3512,-0.1331,-0.1538,7.25,75.38,68.00,-0.9190,9.8995,1.5828,10.0672
7,12,1,3,2,39.331,39331,-2.1000,11.7700,3.9100,12.5790,0.3218,-0.0447,-0.0611,7.88,72.88,68.31,-1.0746,10.1460,1.8895,10.3762
7,12,1,3,2,39.462,39462,-1.4500,10.6800,4.5000,11.6797,-0.1025,0.0535,-0.0600,8.19,72.06,68.00,-1.1241,10.2163,2.2335,10.5179
7,12,1,3,2,39.593,39593,-2.7200,8.3000,2.8000,9.1722,-0.4603,0.0240,-0.3480,10.00,74.19,65.50,-1.3344,9.9638,2.3082,10.3143
7,12,1,3,2,39.723,39723,-2.2500,9.1800,1.5700,9.5812,-0.5247,0.0087,0.3731,9.75,78.00,65.13,-1.4550,9.8605,2.2109,10.2096
7,12,1,3,2,39.896,39896,-0.8400,9.5300,0.9100,9.6101,-0.3502,0.0076,0.2345,6.44,82.19,67.88,-1.3740,9.8170,2.0395,10.1203
7,12,1,3,2,40.026,40026,-0.1600,8.4200,0.4800,8.4352,-0.2073,-0.0327,-0.0349,5.31,84.19,68.94,-1.2140,9.6329,1.8340,9.8808
7,12,1,3,2,40.156,40156,-1.2300,8.6600,0.3600,8.7543,-0.1658,-0.0753,-0.0415,6.56,85.63,67.94,-1.2161,9.5047,1.6397,9.7215
7,12,1,3,2,40.286,40286,-0.7200,7.0900,0.3800,7.1366,-0.0502,-0.0404,0.2858,4.81,86.44,70.19,-1.1508,9.1865,1.4737,9.3748
7,13,1,3,2,40.416,40416,0.0000,9.8900,0.4700,9.9012,0.0415,0.0109,-0.1080,3.75,86.50,71.25,-0.9991,9.2792,1.3415,9.4287
7,13,1,3,2,40.546,40546,-0.9000,9.4900,0.4400,9.5427,0.0644,0.0022,-0.2127,4.94,86.06,70.06,-0.9861,9.3070,1.2227,9.4386
7,13,1,3,2,40.677,40677,-0.6400,9.7200,0.6900,9.7655,0.0535,-0.0011,0.4767,3.81,85.69,71.31,-0.9405,9.3614,1.1525,9.4788
7,13,1,3,2,40.808,40808,0.0100,9.5500,0.6400,9.5714,0.0316,-0.0142,0.2356,1.19,85.38,74.00,-0.8152,9.3863,1.0849,9.4838
7,13,1,3,2,40.980,40980,-0.3100,9.3400,0.7900,9.3785,-0.0753,-0.0153,0.1156,0.06,85.56,75.19,-0.7486,9.3802,1.0461,9.4679
7,13,1,3,2,41.110,41110,0.8000,8.9100,0.6400,8.9687,-0.1833,-0.0480,0.2749,-1.81,86.50,77.38,-0.5446,9.3182,0.9926,9.3867
7,13,1,3,2,41.240,41240,0.3600,8.6400,0.1300,8.6485,-0.2367,-0.1113,-0.2193,-2.00,88.00,77.38,-0.4254,9.2288,0.8789,9.2803
7,13,1,3,2,41.370,41370,-0.0200,8.4900,0.2600,8.4940,-0.2378,-0.0894,-0.2116,-0.75,89.88,76.19,-0.3719,9.1315,0.7974,9.1738
7,13,1,3,2,41.500,41500,-0.2600,9.4800,-0.2300,9.4864,-0.1604,-0.0393,-0.1494,0.31,91.25,75.38,-0.3572,9.1774,0.6620,9.2082
7,13,1,3,2,41.630,41630,-0.7200,9.2100,-0.1500,9.2393,-0.1353,-0.0207,-0.0578,1.13,92.13,74.31,-0.4050,9.1817,0.5550,9.2074
7,13,1,3,2,41.761,41761,-0.1900,9.0800,-0.3800,9.0899,-0.1887,0.0349,0.4025,0.06,93.19,75.06,-0.3767,9.1683,0.4318,9.1862
7,13,1,3,2,41.891,41891,1.1900,9.9200,-0.5600,10.0068,-0.2073,0.0393,0.0709,-2.13,94.63,76.75,-0.1702,9.2674,0.3011,9.2738
7,13,1,3,2,42.064,42064,-0.4000,10.2500,-1.2100,10.3289,-0.0175,-0.0578,-0.4222,2.38,95.88,72.19,-0.2005,9.3968,0.1020,9.3995
7,13,1,3,2,42.194,42194,-1.8100,10.6700,-0.9600,10.8649,0.1516,-0.0971,-0.1309,4.81,95.38,70.44,-0.4126,9.5646,-0.0380,9.5736
7,13,1,3,2,42.324,42324,-0.2600,10.4600,-1.2300,10.5353,0.1156,-0.0480,0.4865,2.56,94.25,73.63,-0.3925,9.6826,-0.1951,9.6925
7,13,1,3,2,42.454,42454,0.2100,10.4000,-0.9600,10.4463,-0.0862,-0.0305,-0.1549,1.00,94.31,75.63,-0.3131,9.7771,-0.2959,9.7866
7,13,1,3,2,42.584,42584,-1.1600,10.3900,-1.2400,10.5278,-0.2443,-0.0196,-0.4571,3.88,95.63,73.25,-0.4247,9.8579,-0.4203,9.8760
7,13,1,3,2,42.715,42715,-0.7900,14.2300,-1.9500,14.3847,-0.2323,-0.0076,0.5661,3.56,97.56,73.50,-0.4728,10.4340,-0.6219,10.4632
7,13,1,3,2,42.845,42845,0.8700,12.0300,-1.8600,12.2040,-0.1418,-0.0949,0.0305,0.38,99.00,77.06,-0.2959,10.6443,-0.7850,10.6773
7,13,1,3,2,42.976,42976,-2.2300,9.4400,-1.3200,9.7892,0.0033,-0.0851,-0.4134,4.00,99.38,74.19,-0.5507,10.4856,-0.8555,10.5349
7,13,1,3,2,43.148,43148,-1.3000,9.5500,-1.4800,9.7510,0.1058,0.0360,0.1789,3.94,98.88,74.31,-0.6495,10.3623,-0.9378,10.4249
7,13,1,3,2,43.278,43278,-0.0400,8.8300,-1.3400,8.9312,0.1985,0.0218,0.3251,1.88,97.81,76.25,-0.5692,10.1604,-0.9908,10.2245
7,13,1,3,2,43.408,43408,0.0100,8.1100,-1.2300,8.2027,0.3229,0.0425,-0.3883,2.06,95.88,75.88,-0.4928,9.8902,-1.0223,9.9551
7,13,1,3,2,43.538,43538,-0.3800,7.6400,-1.0400,7.7198,0.4014,0.0404,-0.0578,4.50,93.44,73.19,-0.4780,9.5937,-1.0246,9.6601
7,13,1,3,2,43.668,43668,-0.9600,8.7000,-0.3700,8.7606,0.3349,0.0142,0.3632,3.50,90.81,74.19,-0.5415,9.4759,-0.9384,9.5377
7,13,1,3,2,43.799,43799,0.5700,9.2500,0.3900,9.2757,0.1920,0.0349,0.3131,-0.06,88.81,77.69,-0.3950,9.4462,-0.7633,9.4852
7,13,1,3,2,43.930,43930,0.0400,9.6600,0.6400,9.6813,0.1429,0.0665,-0.2454,1.06,87.63,76.13,-0.3377,9.4743,-0.5784,9.4980
7,13,1,3,2,44.060,44060,-0.9600,9.4300,0.5100,9.4924,0.1200,0.1342,-0.4385,2.38,86.63,74.19,-0.4197,9.4685,-0.4350,9.4878
7,13,1,3,2,44.233,44233,-0.3000,9.6500,0.8600,9.6929,0.0905,0.1778,-0.0196,3.25,85.63,71.81,-0.4039,9.4924,-0.2643,9.5047
7,13,1,3,2,44.363,44363,-0.2500,9.9300,0.7200,9.9592,0.0327,0.1604,0.0262,2.75,85.06,71.13,-0.3836,9.5501,-0.1346,9.5587
7,13,1,3,2,44.493,44493,-0.1900,9.5500,0.9100,9.5951,0.0633,0.1298,-0.3578,3.06,84.69,69.75,-0.3581,9.5501,0.0030,9.5568
7,13,1,3,2,44.623,44623,-0.8300,10.5900,0.9500,10.6649,0.1331,0.0556,0.2891,4.06,83.94,68.13,-0.4203,9.6871,0.1278,9.6971
7,13,1,3,2,44.753,44753,-0.1100,9.7600,1.1100,9.8235,0.2029,0.0033,0.0524,2.13,82.69,69.94,-0.3794,9.6967,0.2572,9.7075
7,13,1,3,2,44.883,44883,-0.4400,7.7500,1.1700,7.8502,0.1571,-0.0011,-0.4483,3.88,81.44,68.19,-0.3874,9.4402,0.3775,9.4557
7,13,1,3,2,45.014,45014,-1.2900,7.8100,1.3100,8.0235,0.1811,0.0055,-0.3949,7.13,80.19,65.00,-0.5063,9.2254,0.5004,9.2528
7,13,1,3,2,45.144,45144,-1.0700,9.2000,1.6300,9.4043,0.2280,-0.0185,0.1418,7.81,78.63,64.56,-0.5806,9.2220,0.6492,9.2631
7,13,1,3,2,45.317,45317,-0.4100,9.0900,2.0400,9.3251,0.2171,-0.0436,0.4614,5.13,76.75,67.81,-0.5581,9.2046,0.8325,9.2590
7,13,1,3,2,45.447,45447,0.0000,8.9700,2.7100,9.3704,0.1920,-0.0218,-0.1756,2.88,75.25,70.50,-0.4846,9.1737,1.0799,9.2498
7,13,1,3,2,45.577,45577,-2.1500,8.9300,2.6600,9.5626,0.1004,0.0044,-0.4691,6.69,74.13,66.63,-0.7040,9.1416,1.2881,9.2587
7,13,1,3,2,45.707,45707,-1.0100,8.6100,2.0600,8.9104,0.0055,-0.0076,0.1985,7.06,73.69,66.81,-0.7444,9.0715,1.3898,9.2075
7,14,1,3,2,45.837,45837,-1.5500,10.4000,2.7800,10.8762,0.0327,-0.0196,-0.2236,7.69,73.69,66.31,-0.8505,9.2466,1.5730,9.4179
7,14,1,3,2,45.967,45967,-1.5900,11.2700,2.8500,11.7330,0.1778,-0.0393,-0.1898,8.75,73.13,65.69,-0.9480,9.5132,1.7413,9.7176
7,14,1,3,2,46.097,46097,-2.3500,10.3700,3.4800,11.1879,0.2094,-0.0371,-0.3327,11.00,71.69,64.38,-1.1327,9.6261,1.9704,9.8908
7,14,1,3,2,46.228,46228,-3.1800,9.8700,3.9800,11.1072,0.1036,0.0087,-0.0862,12.94,70.25,62.88,-1.4025,9.6583,2.2352,10.0123
7,14,1,3,2,46.401,46401,-1.7500,10.3600,4.5800,11.4616,-0.3142,0.0022,0.2880,11.44,71.31,64.88,-1.4483,9.7507,2.5442,10.1807
7,14,1,3,2,46.531,46531,-2.2000,8.8600,2.8000,9.5488,-0.5880,-0.0360,-0.2596,11.44,74.75,64.63,-1.5473,9.6334,2.5779,10.0917
7,14,1,3,2,46.661,46661,-3.2400,10.0100,1.3700,10.6101,-0.6283,-0.0491,-0.0055,13.56,79.31,62.00,-1.7704,9.6830,2.4187,10.1363
7,14,1,3,2,46.791,46791,-2.1200,10.7500,1.2000,11.0226,-0.3556,-0.0524,0.4451,10.88,83.06,64.44,-1.8165,9.8236,2.2581,10.2422
7,14,1,3,2,46.921,46921,-0.5500,9.2400,0.7300,9.2851,-0.1724,-0.0240,0.4298,7.75,84.94,67.44,-1.6496,9.7467,2.0568,10.0970
7,14,1,3,2,47.051,47051,-0.8400,6.7000,0.4800,6.7695,-0.1822,-0.0011,-0.5934,8.50,86.06,66.31,-1.5429,9.3452,1.8490,9.6505
7,14,1,3,2,47.182,47182,-2.4000,7.2800,0.2700,7.6702,-0.1669,0.0098,0.2716,10.88,87.31,63.69,-1.6558,9.0731,1.6409,9.3678
7,14,1,3,2,47.312,47312,-0.3000,8.2500,0.4700,8.2688,-0.1473,0.0327,0.4603,5.44,88.50,68.38,-1.4772,8.9646,1.4866,9.2063
7,14,1,3,2,47.485,47485,-1.2900,10.5100,-0.2000,10.5908,-0.0196,0.0709,-0.0404,5.13,89.56,67.31,-1.4525,9.1683,1.2644,9.3683
7,14,1,3,2,47.616,47616,-0.1500,10.4200,-0.2100,10.4232,0.0927,0.0774,0.4996,4.25,89.13,67.44,-1.2809,9.3332,1.0701,9.4813
7,14,1,3,2,47.746,47746,-0.0800,8.9400,0.6200,8.9618,0.1047,0.0404,0.0927,2.50,88.38,68.63,-1.1226,9.2814,1.0108,9.4035
7,14,1,3,2,47.876,47876,-0.1500,8.7900,0.3200,8.7971,-0.0164,0.0371,0.1167,2.63,88.25,67.56,-0.9945,9.2166,0.9198,9.3156
7,14,1,3,2,48.006,48006,-0.5600,7.7400,0.7000,7.7917,-0.1724,0.0262,-0.2869,3.19,88.88,66.25,-0.9372,9.0221,0.8908,9.1142
7,14,1,3,2,48.136,48136,-0.8200,8.1300,-0.2200,8.1742,-0.2858,-0.0065,-0.0884,4.88,90.63,64.13,-0.9218,8.9045,0.7444,8.9830
7,15,1,3,2,48.266,48266,-0.7900,10.1000,-0.7200,10.1564,-0.2171,0.0033,-0.0676,5.13,92.50,63.44,-0.9044,9.0620,0.5514,9.1237
7,15,1,3,2,48.397,48397,-0.2700,9.0700,-0.6400,9.0966,-0.1833,-0.0065,-0.0207,4.50,93.81,63.94,-0.8208,9.0631,0.3944,9.1087
7,15,1,3,2,48.569,48569,-0.4300,9.1000,-0.7000,9.1370,-0.1713,-0.0698,-0.0044,5.06,95.63,63.38,-0.7693,9.0680,0.2502,9.1040
7,15,1,3,2,48.699,48699,-0.7400,9.3000,-0.9500,9.3776,-0.1734,-0.1494,-0.4472,6.25,96.94,62.88,-0.7654,9.0985,0.0921,9.1311
7,15,1,3,2,48.829,48829,-2.3100,10.1300,-1.4000,10.4839,-0.1505,-0.2356,-0.2094,9.25,98.31,61.06,-0.9690,9.2345,-0.1046,9.2857
7,15,1,3,2,48.959,48959,-1.5500,10.7900,-2.1000,11.1012,-0.1287,-0.2487,0.0033,8.63,99.63,63.38,-1.0455,9.4394,-0.3675,9.5043
7,15,1,3,2,49.089,49089,-1.9900,11.6500,-2.6500,12.1122,-0.0971,-0.1822,-0.2116,9.44,100.69,63.94,-1.1700,9.7307,-0.6683,9.8236
7,15,1,3,2,49.219,49219,-3.0200,13.2300,-2.8800,13.8726,-0.0109,-0.1909,-0.1549,10.75,101.44,64.88,-1.4138,10.1918,-0.9597,10.3341
7,15,1,3,2,49.365,49365,-1.3500,14.0400,-4.2400,14.7283,0.1538,-0.1145,0.0458,9.50,101.00,68.50,-1.4054,10.6989,-1.3920,10.8803
7,15,1,3,2,49.500,49500,-3.3400,10.6600,-1.1700,11.2321,0.3938,-0.0884,-0.5214,13.19,99.25,66.25,-1.6603,10.6938,-1.3627,10.9074
7,15,1,3,2,49.673,49673,-3.0900,8.1300,-0.8500,8.7389,0.3818,-0.0807,0.1713,13.44,95.00,69.06,-1.8487,10.3560,-1.2952,10.5991
7,15,1,3,2,49.803,49803,-2.6200,7.6200,-0.3700,8.0663,0.2367,0.0458,0.1625,13.19,92.81,70.19,-1.9503,9.9954,-1.1733,10.2513
7,15,1,3,2,49.933,49933,-2.3400,7.0800,-0.4500,7.4702,0.1429,0.1636,0.1167,12.31,91.44,70.81,-2.0017,9.6113,-1.0779,9.8765
7,15,1,3,2,50.063,50063,-1.2900,7.5500,0.1300,7.6605,0.1680,0.2454,0.3632,10.19,90.06,71.56,-1.9079,9.3396,-0.9188,9.5767
7,15,1,3,2,50.194,50194,-0.2300,8.4800,0.2100,8.4857,0.1593,0.2520,0.6458,6.75,88.50,73.38,-1.6868,9.2264,-0.7700,9.4108
7,15,1,3,2,50.324,50324,0.3400,9.4500,0.7400,9.4850,0.0458,0.2160,0.0785,3.88,87.63,73.69,-1.4197,9.2558,-0.5710,9.3815
7,15,1,3,2,50.455,50455,-0.9100,9.4200,0.3900,9.4719,-0.0382,0.2073,-0.1494,4.81,87.56,70.69,-1.3526,9.2775,-0.4444,9.3861
7,15,1,3,2,50.585,50585,-0.3100,10.3500,0.2900,10.3587,-0.0491,0.1625,0.0840,4.25,87.88,69.38,-1.2152,9.4188,-0.3476,9.5032
7,15,1,3,2,50.758,50758,-0.5200,10.0100,0.4900,10.0355,0.1102,0.1298,0.1407,3.19,87.56,68.50,-1.1236,9.4967,-0.2372,9.5659
7,15,1,3,2,50.888,50888,0.5400,9.6800,0.4700,9.7064,0.2934,0.0873,0.4003,1.31,86.13,69.44,-0.9043,9.5209,-0.1441,9.5648
7,15,1,3,2,51.018,51018,1.5900,6.9000,0.6000,7.1062,0.3687,-0.0142,-0.4265,0.38,83.69,69.75,-0.5757,9.1755,-0.0460,9.1936
7,15,1,3,2,51.148,51148,-0.8000,8.1300,1.3800,8.2850,0.3043,-0.0338,-0.3862,4.94,81.25,65.44,-0.6052,9.0377,0.1419,9.0591
7,15,1,3,2,51.278,51278,-0.7600,8.6300,1.2800,8.7574,0.0993,-0.0469,-0.1473,6.44,79.81,64.44,-0.6256,8.9840,0.2919,9.0105
7,16,1,3,2,51.408,51408,-1.5000,9.2700,1.7700,9.5559,-0.0011,-0.0535,-0.2018,7.38,79.63,64.06,-0.7408,9.0217,0.4867,9.0651
7,16,1,3,2,51.539,51539,-0.4400,10.1100,1.5600,10.2391,0.0458,-0.0535,0.2018,6.38,79.56,65.56,-0.7012,9.1651,0.6281,9.2133
7,16,1,3,2,51.669,51669,-1.5700,9.9700,2.4900,10.3955,0.0960,-0.0731,-0.5727,8.63,78.94,64.00,-0.8157,9.2712,0.8734,9.3479
7,16,1,3,2,51.842,51842,-2.2900,9.6300,2.2400,10.1488,-0.0284,-0.0796,0.1669,11.75,78.38,61.88,-1.0100,9.3184,1.0535,9.4320
7,16,1,3,2,51.973,51973,-1.7900,10.9700,1.8400,11.2663,-0.2062,-0.0982,-0.0393,10.81,79.56,63.56,-1.1127,9.5361,1.1572,9.6703
7,16,1,3,2,52.103,52103,-2.0500,12.1900,1.5800,12.4617,-0.0600,-0.1156,0.0633,10.31,80.81,64.88,-1.2363,9.8858,1.2129,10.0364
7,16,1,3,2,52.234,52234,-2.4000,14.4400,2.1500,14.7951,0.1516,-0.0753,0.4309,9.56,80.38,66.81,-1.3896,10.4859,1.3364,10.6617
7,16,1,3,2,52.364,52364,-0.9200,11.5100,2.0500,11.7273,0.0971,-0.0393,-0.0273,7.50,79.56,69.25,-1.3277,10.6209,1.4304,10.7987
7,16,1,3,2,52.494,52494,-2.4700,8.5600,1.8300,9.0952,-0.0207,-0.0131,-0.0458,9.19,79.31,67.81,-1.4782,10.3493,1.4831,10.5590
7,16,1,3,2,52.624,52624,-2.0300,9.0000,1.4900,9.3456,-0.1484,0.0458,0.1374,9.38,80.00,67.56,-1.5510,10.1715,1.4840,10.3955
7,16,1,3,2,52.754,52754,-1.1100,8.0600,1.1600,8.2184,-0.2782,0.0665,0.1571,8.13,81.50,68.19,-1.4928,9.8933,1.4413,10.1085
7,16,1,3,2,52.927,52927,-0.7100,7.1200,0.6900,7.1885,-0.4145,0.0764,0.1593,7.06,84.81,68.19,-1.3897,9.5278,1.3423,9.7217
7,16,1,3,2,53.057,53057,0.0200,8.1800,0.4000,8.1898,-0.3545,0.0578,0.2051,5.63,87.69,68.88,-1.2039,9.3502,1.2181,9.5058
7,16,1,3,2,53.188,53188,-0.4200,9.9100,-0.0200,9.9189,-0.1625,0.0295,0.1189,4.38,89.38,69.63,-1.1006,9.4240,1.0550,9.5465
7,16,1,3,2,53.319,53319,0.9000,9.4200,-0.0400,9.4630,-0.0207,0.0447,0.1156,2.44,89.81,71.31,-0.8370,9.4234,0.9107,9.5043
7,16,1,3,2,53.449,53449,-0.3200,10.1900,0.0600,10.1952,-0.0087,0.0131,0.0295,3.69,89.94,70.00,-0.7689,9.5245,0.7986,9.5888
7,16,1,3,2,53.580,53580,0.3600,9.4300,0.0200,9.4369,-0.0011,-0.0087,0.1233,3.00,89.94,70.63,-0.6201,9.5120,0.6960,9.5576
7,16,1,3,2,53.710,53710,0.1600,9.1600,0.1000,9.1619,-0.0153,-0.0502,-0.2258,2.88,90.06,71.00,-0.5173,9.4656,0.6174,9.4998
7,16,1,3,2,53.841,53841,-0.3900,8.2700,-0.0700,8.2795,-0.0611,-0.0589,0.0000,3.94,90.38,70.25,-0.5005,9.3081,0.5269,9.3364
7,16,1,3,2,54.018,54018,-1.2900,8.8700,0.0300,8.9634,-0.0295,-0.0687,-0.0524,5.06,90.75,69.75,-0.6046,9.2503,0.4614,9.2816
7,16,1,3,2,54.149,54149,0.0600,10.0900,-0.2800,10.0941,-0.1036,-0.0731,0.0284,3.88,91.31,71.38,-0.5170,9.3610,0.3637,9.3823
7,16,1,3,2,54.279,54279,-0.0600,9.1000,-0.1900,9.1022,-0.1440,-0.0840,-0.0698,3.81,92.19,72.00,-0.4568,9.3266,0.2907,9.3423
7,16,1,3,2,54.410,54410,-0.4800,8.2800,-0.5300,8.3108,-0.2629,-0.0720,-0.1462,4.19,93.69,72.19,-0.4598,9.1887,0.1826,9.2020
7,16,1,3,2,54.540,54540,-0.7700,8.5700,-0.7700,8.6389,-0.3403,-0.0698,-0.1331,4.88,95.81,71.81,-0.5007,9.1072,0.0571,9.1211
7,17,1,3,2,54.671,54671,-1.6400,9.8700,-1.5300,10.1216,-0.3916,-0.0502,-0.1865,6.69,98.88,70.00,-0.6508,9.2077,-0.1521,9.2319
7,17,1,3,2,54.802,54802,-1.4600,11.8100,-2.1600,12.0944,-0.2083,-0.0567,-0.1767,8.13,101.19,68.56,-0.7575,9.5506,-0.4167,9.5896
7,17,1,3,2,54.932,54932,-1.8200,11.5900,-3.2400,12.1712,-0.0229,0.0065,-0.2891,9.63,102.00,67.13,-0.8975,9.8193,-0.7887,9.8918
7,17,1,3,2,55.105,55105,-3.5500,14.4400,-3.4100,15.2560,0.1505,0.1222,0.0076,13.38,101.38,62.88,-1.2470,10.4282,-1.1341,10.5636
7,17,1,3,2,55.236,55236,-1.4700,13.7700,-2.9600,14.1611,0.2225,0.1374,-0.0262,11.81,99.75,63.88,-1.2764,10.8686,-1.3747,11.0293
7,17,1,3,2,55.366,55366,-4.3400,9.8400,-1.1000,10.8107,0.4123,0.1647,-0.5203,15.31,97.25,60.00,-1.6801,10.7330,-1.3385,10.9459
7,17,1,3,2,55.496,55496,-2.3000,8.6000,-0.7200,8.9313,0.3698,0.1833,0.3938,14.88,94.06,60.06,-1.7618,10.4520,-1.2570,10.6737
7,17,1,3,2,55.626,55626,-1.7700,8.5300,-0.2700,8.7159,0.2945,0.1222,0.2847,12.63,91.50,61.81,-1.7629,10.1987,-1.1270,10.4111
7,17,1,3,2,55.756,55756,-0.4800,6.6000,0.0200,6.6175,0.2378,0.0524,0.1440,10.56,89.44,63.69,-1.5938,9.7245,-0.9758,9.9024
7,17,1,3,2,55.886,55886,-1.7600,6.1600,0.2100,6.4099,0.1320,0.0229,-0.2302,11.75,88.06,62.56,-1.6157,9.2548,-0.8196,9.4304
7,17,1,3,2,56.017,56017,-1.9300,7.5700,0.4700,7.8263,-0.0033,0.0240,0.0916,11.13,87.63,63.06,-1.6571,9.0328,-0.6496,9.2065
7,17,1,3,2,56.189,56189,-0.6000,9.8400,0.5600,9.8742,-0.0393,0.0196,0.1865,7.19,88.06,66.69,-1.5178,9.1391,-0.4902,9.2773
7,17,1,3,2,56.319,56319,-1.4800,10.2700,-0.0900,10.3765,0.0436,0.0240,0.4680,6.50,88.06,67.25,-1.5128,9.2882,-0.4375,9.4207
7,17,1,3,2,56.449,56449,-0.2800,9.9300,0.0800,9.9343,0.1276,0.0109,0.1287,3.88,87.38,69.81,-1.3504,9.3727,-0.3693,9.4767
7,17,1,3,2,56.579,56579,0.3700,10.1100,0.6200,10.1357,0.1200,-0.0316,-0.1025,3.38,86.56,70.44,-1.1237,9.4699,-0.2389,9.5393
7,17,1,3,2,56.709,56709,-0.0700,8.6200,0.6700,8.6463,0.2400,-0.0327,-0.1091,3.81,85.25,70.31,-0.9848,9.3579,-0.1192,9.4103
7,17,1,3,2,56.840,56840,-0.8000,6.2800,0.8300,6.3849,0.2094,0.0316,-0.0556,4.25,83.50,69.94,-0.9605,8.9523,0.0059,9.0037
7,17,1,3,2,56.970,56970,0.0400,8.7100,0.9900,8.7662,0.1145,-0.0087,-0.2083,4.50,82.31,69.63,-0.8286,8.9204,0.1356,8.9598
7,18,1,3,2,57.101,57101,-1.2000,9.5500,1.5500,9.7491,0.1113,-0.0262,-0.3142,6.69,81.63,67.69,-0.8776,9.0033,0.3220,9.0517
7,18,1,3,2,57.274,57274,-0.9800,9.6900,1.5300,9.8589,0.2040,0.0404,-0.1058,7.50,80.19,66.88,-0.8911,9.0938,0.4812,9.1500
7,18,1,3,2,57.405,57405,-1.7400,9.3200,1.9600,9.6815,0.2073,0.0349,-0.0774,8.81,78.44,65.44,-1.0029,9.1236,0.6760,9.2035
7,18,1,3,2,57.536,57536,-1.6300,9.8100,2.6000,10.2788,0.1582,-0.0491,-0.2411,9.56,76.94,64.94,-1.0856,9.2141,0.9296,9.3243
7,18,1,3,2,57.666,57666,-2.6300,11.5800,2.7100,12.1802,0.0415,-0.1058,-0.1342,11.38,76.38,63.75,-1.2891,9.5258,1.1642,9.6829
7,18,1,3,2,57.797,57797,-3.3200,13.0700,3.3000,13.8830,0.1778,-0.0927,0.1058,11.56,75.88,64.88,-1.5567,9.9929,1.4456,10.2162
7,18,1,3,2,57.927,57927,-1.9500,13.1900,4.4000,14.0406,0.1451,0.0011,0.3000,9.56,74.56,67.56,-1.6085,10.4142,1.8349,10.6962
7,18,1,3,2,58.058,58058,-2.5300,7.8900,2.5400,8.6663,-0.1996,0.0665,-0.4222,11.25,74.69,65.50,-1.7300,10.0816,1.9278,10.4090
7,18,1,3,2,58.189,58189,-2.4800,8.8800,1.9500,9.4238,-0.4069,0.0284,0.1527,12.75,76.94,63.25,-1.8288,9.9232,1.9308,10.2734
7,18,1,3,2,58.365,58365,-1.3200,8.3500,1.3400,8.5592,-0.4232,-0.0055,-0.0415,10.88,81.31,64.31,-1.7618,9.7159,1.8529,10.0467
7,18,1,3,2,58.496,58496,-1.7100,7.8400,0.6400,8.0498,-0.4091,-0.0556,0.0731,10.31,84.38,64.69,-1.7549,9.4687,1.6931,9.7777
7,18,1,3,2,58.627,58627,-0.8500,7.8500,-0.1700,7.8977,-0.3153,-0.0404,0.5640,8.25,87.13,66.75,-1.6357,9.2554,1.4476,9.5097
7,18,1,3,2,58.757,58757,-1.0200,8.6700,-0.2400,8.7331,-0.1724,0.0000,0.0993,6.63,88.81,68.31,-1.5546,9.1783,1.2252,9.3893
7,18,1,3,2,58.888,58888,-0.0100,10.7700,0.1000,10.7705,0.0240,0.0349,0.1505,5.13,89.31,69.19,-1.3510,9.3880,1.0769,9.5457
7,18,1,3,2,59.019,59019,-0.9400,9.3800,0.0500,9.4271,0.0785,-0.0076,-0.1494,5.63,88.81,68.44,-1.2969,9.3870,0.9416,9.5228
7,18,1,3,2,59.149,59149,-0.6700,9.9900,-0.0800,10.0128,0.0982,-0.0251,0.2465,4.63,88.25,69.56,-1.2143,9.4664,0.8070,9.5780
7,18,1,3,2,59.280,59280,0.0800,9.2700,0.4200,9.2799,0.0022,0.0087,0.1538,2.50,88.00,71.81,-1.0437,9.4405,0.7560,9.5281
7,18,1,3,2,59.452,59452,-0.1900,7.2100,0.2100,7.2156,-0.1713,0.0415,-0.1614,2.81,88.63,71.19,-0.9312,9.1466,0.6840,9.2193
7,18,1,3,2,59.582,59582,-1.0600,7.5300,0.5400,7.6234,-0.2760,0.0807,-0.3392,4.44,90.38,69.00,-0.9482,8.9336,0.6651,9.0083
7,19,1,3,2,59.712,59712,-0.9700,9.3700,-0.5900,9.4385,-0.1963,0.0807,-0.1582,6.31,92.00,66.31,-0.9511,8.9911,0.4997,9.0550
7,19,1,3,2,59.842,59842,-0.9600,9.1900,-0.8900,9.2828,-0.2389,0.0207,0.2542,6.63,93.56,65.50,-0.9522,9.0173,0.3166,9.0730
7,19,1,3,2,59.973,59973,-0.2300,8.8700,-1.0500,8.9349,-0.1778,0.0055,-0.0262,4.94,95.06,67.06,-0.8571,8.9979,0.1365,9.0396
7,19,1,3,2,60.103,60103,-1.5600,10.3300,-0.6700,10.4686,-0.0654,-0.0633,-0.2193,6.69,96.00,65.50,-0.9497,9.1734,0.0302,9.2225
7,19,1,3,2,60.234,60234,-2.4300,11.9300,-1.3600,12.2507,-0.0611,-0.0698,-0.0938,8.31,96.50,64.31,-1.1448,9.5367,-0.1530,9.6064
7,19,1,3,2,60.364,60364,-1.2300,12.7400,-1.9000,12.9395,-0.0709,-0.0404,0.0480,7.56,97.06,65.44,-1.1560,9.9588,-0.3832,10.0330
7,19,1,3,2,60.537,60537,-3.1900,13.3400,-2.1900,13.8898,-0.1287,-0.0720,-0.0022,9.88,98.06,63.38,-1.4240,10.4043,-0.6213,10.5197
7,19,1,3,2,60.668,60668,-1.2200,11.5400,-2.1100,11.7946,-0.0949,-0.1473,-0.0175,7.75,98.88,66.13,-1.3971,10.5540,-0.8175,10.6774
7,19,1,3,2,60.799,60799,-2.2200,10.2400,-1.6800,10.6117,0.0011,-0.2116,0.0644,8.06,99.50,67.13,-1.5056,10.5126,-0.9311,10.6606
7,19,1,3,2,60.929,60929,-1.7100,10.1700,-1.7800,10.4652,0.2062,-0.1494,0.0742,7.81,98.94,68.81,-1.5325,10.4675,-1.0430,10.6304
7,19,1,3,2,61.060,61060,-1.3600,8.8100,-1.1900,8.9934,0.3927,-0.0338,0.0065,7.50,96.69,70.13,-1.5098,10.2491,-1.0624,10.4140
7,19,1,3,2,61.190,61190,-1.2600,6.7900,-0.5100,6.9247,0.4352,0.0458,0.0513,7.56,93.63,70.44,-1.4769,9.7932,-0.9896,9.9533
7,19,1,3,2,61.321,61321,-0.5300,5.8600,0.1700,5.8864,0.4080,0.0862,0.2640,5.38,90.50,72.44,-1.3521,9.2749,-0.8368,9.4103
7,19,1,3,2,61.452,61452,0.0800,10.2300,0.6200,10.2491,0.2793,0.1167,0.1069,4.19,87.94,73.06,-1.1634,9.4008,-0.6448,9.4944
7,19,1,3,2,61.629,61629,-1.4000,9.5700,0.5800,9.6892,0.0971,0.1331,0.1898,5.94,85.94,70.19,-1.1946,9.4231,-0.4834,9.5108
7,19,1,3,2,61.759,61759,-0.6300,9.5000,0.4700,9.5325,0.0316,0.0796,0.0251,4.06,85.44,71.50,-1.1202,9.4332,-0.3578,9.5062
7,19,1,3,2,61.890,61890,-0.5800,9.8400,0.9200,9.8999,0.0262,0.1014,-0.0131,3.63,85.25,71.19,-1.0490,9.4868,-0.1894,9.5465
7,19,1,3,2,62.021,62021,-0.3800,9.6700,0.8700,9.7165,0.0644,0.1113,0.1331,3.25,84.88,70.81,-0.9608,9.5110,-0.0498,9.5595
7,19,1,3,2,62.151,62151,0.6500,8.1500,1.0100,8.2380,0.1451,0.0545,-0.1560,2.56,84.06,70.94,-0.7486,9.3316,0.0899,9.3620
7,19,1,3,2,62.282,62282,-1.2500,6.4700,0.9500,6.6578,0.1189,0.0011,-0.4636,5.56,83.06,67.81,-0.8146,8.9545,0.2032,8.9938
7,20,1,3,2,62.412,62412,-0.7800,9.6900,0.7200,9.7480,0.1364,-0.0600,0.2378,5.13,82.19,68.63,-0.8101,9.0515,0.2713,9.0917
7,20,1,3,2,62.543,62543,-0.3800,10.2300,1.2400,10.3119,0.2356,-0.0862,-0.1734,4.38,80.88,69.94,-0.7534,9.2068,0.3990,9.2461
7,20,1,3,2,62.715,62715,-1.5100,9.7300,2.0300,10.0536,0.3153,-0.0513,-0.2443,6.75,78.25,68.44,-0.8531,9.2757,0.6139,9.3351
7,20,1,3,2,62.845,62845,-1.4500,8.6900,2.4600,9.1471,0.2520,-0.0284,-0.0851,7.56,76.13,68.13,-0.9318,9.1985,0.8572,9.2852
7,20,1,3,2,62.975,62975,-1.3900,8.7400,2.7300,9.2613,0.0622,-0.0382,-0.0415,8.31,74.75,67.63,-0.9921,9.1381,1.1039,9.2579
7,20,1,3,2,63.105,63105,-1.5400,10.7600,2.7100,11.2024,-0.1494,-0.0654,0.0164,9.19,75.19,67.13,-1.0643,9.3518,1.3156,9.5037
7,20,1,3,2,63.235,63235,-3.5200,13.3200,2.8500,14.0689,-0.1407,-0.0785,-0.3272,10.69,76.38,66.00,-1.3879,9.8747,1.5178,10.0866
7,20,1,3,2,63.366,63366,-1.4400,14.6500,3.4100,15.1104,-0.0065,0.0011,0.3938,8.94,77.00,67.94,-1.3948,10.5040,1.7671,10.7425
7,20,1,3,2,63.496,63496,-2.8200,9.0500,2.3800,9.7734,-0.1134,0.0207,-0.4734,11.38,77.25,65.31,-1.5826,10.3124,1.8479,10.5955
7,20,1,3,2,63.627,63627,-1.8400,9.0000,1.2600,9.2722,-0.1974,-0.0295,0.1102,12.00,78.31,64.50,-1.6165,10.1395,1.7704,10.4190
7,20,1,3,2,63.800,63800,-1.6700,7.8800,1.4400,8.1827,-0.2825,-0.0916,-0.0644,12.13,80.81,64.56,-1.6236,9.8417,1.7269,10.1231
7,20,1,3,2,63.931,63931,-1.9700,7.2600,0.8500,7.5704,-0.2847,-0.0851,0.0393,12.25,83.00,64.69,-1.6692,9.5015,1.6113,9.7807
7,20,1,3,2,64.062,64062,-1.7300,8.6100,0.3300,8.7883,-0.2574,-0.0415,0.2476,11.44,85.19,65.63,-1.6772,9.3840,1.4425,9.6413
7,20,1,3,2,64.192,64192,-2.0100,8.6800,0.0900,8.9101,-0.1691,0.0098,0.3120,10.38,87.00,66.56,-1.7211,9.2913,1.2643,9.5335
7,20,1,3,2,64.323,64323,-0.0200,9.4000,0.5200,9.4144,-0.0665,0.0524,0.3643,6.88,87.81,69.63,-1.4969,9.3056,1.1662,9.4971
7,20,1,3,2,64.453,64453,-1.5100,9.1200,0.3100,9.2494,-0.0829,0.0578,-0.8781,8.75,88.31,67.19,-1.4986,9.2811,1.0534,9.4602
7,20,1,3,2,64.584,64584,-1.3000,10.1300,-0.1600,10.2143,-0.1451,0.0065,0.5007,9.75,89.00,65.88,-1.4725,9.3930,0.8935,9.5496
7,20,1,3,2,64.715,64715,-1.1600,7.9700,-0.2200,8.0570,-0.0567,0.0436,-0.1069,9.63,89.56,65.63,-1.4313,9.2055,0.7467,9.3460
7,20,1,3,2,64.891,64891,-2.6500,7.5800,0.3000,8.0355,-0.0022,0.0829,-0.1494,13.13,89.69,61.44,-1.5919,8.9913,0.6879,9.1570
7,21,1,3,2,65.022,65022,0.4900,9.9300,-0.5600,9.9578,-0.1429,0.1113,0.2018,10.00,89.88,63.75,-1.3175,9.1150,0.5234,9.2246
7,21,1,3,2,65.153,65153,-1.7600,9.2100,-0.4200,9.3861,-0.3600,0.0611,-0.3763,11.50,91.50,61.38,-1.3759,9.1275,0.3991,9.2392
7,21,1,3,2,65.283,65283,-1.4300,8.9800,-0.8500,9.1328,-0.4821,0.0567,-0.0600,12.69,94.69,58.94,-1.3830,9.1081,0.2345,9.2154
7,21,1,3,2,65.414,65414,-2.4800,9.8600,-1.4400,10.2686,-0.4254,-0.0273,-0.1167,13.56,98.00,57.06,-1.5275,9.2071,0.0139,9.3330
7,21,1,3,2,65.544,65544,-2.3800,10.4200,-2.2200,10.9165,-0.3251,-0.0851,0.1898,12.75,100.75,57.44,-1.6399,9.3670,-0.2805,9.5136
7,21,1,3,2,65.674,65674,-2.0700,11.4700,-2.6600,11.9550,-0.1178,-0.1014,0.1385,11.44,102.31,59.06,-1.6966,9.6441,-0.5941,9.8102
7,21,1,3,2,65.805,65805,-2.3400,12.3100,-3.2700,12.9501,0.1549,-0.0109,-0.2029,11.31,102.13,59.88,-1.7813,9.9954,-0.9467,10.1969
7,21,1,3,2,65.978,65978,-3.7600,14.1000,-2.4300,14.7937,0.3589,0.0927,-0.1004,13.81,99.50,57.69,-2.0421,10.5363,-1.1421,10.7929
7,21,1,3,2,66.108,66108,-2.2700,11.4600,-1.4100,11.7674,0.3043,0.1004,0.0600,12.88,96.81,58.50,-2.0721,10.6580,-1.1774,10.9212
7,21,1,3,2,66.238,66238,-3.9500,8.9900,-0.8500,9.8562,0.2258,0.0611,-0.1080,13.75,94.81,57.50,-2.3196,10.4382,-1.1343,10.7528
7,21,1,3,2,66.368,66368,-3.8800,10.3700,-0.9000,11.1086,0.1429,0.0753,0.8138,11.25,93.44,59.88,-2.5252,10.4292,-1.1034,10.7872
7,21,1,3,2,66.498,66498,0.3400,10.0300,0.2000,10.0378,0.2171,0.0742,0.5094,5.88,92.00,64.56,-2.1476,10.3766,-0.9317,10.6374
7,21,1,3,2,66.628,66628,2.1000,9.4800,1.0500,9.7664,0.1680,0.0829,-0.4265,4.44,90.69,65.38,-1.5879,10.2585,-0.6705,10.4023
7,21,1,3,2,66.759,66759,-2.1700,7.1500,0.6200,7.4977,0.0098,0.1287,-1.0821,15.88,90.19,53.38,-1.6646,9.8488,-0.5005,10.0011
7,21,1,3,2,66.889,66889,0.2200,5.9500,0.1400,5.9557,0.0262,0.1582,0.5956,14.13,89.75,54.31,-1.4163,9.3351,-0.4161,9.4511
7,21,1,3,2,67.062,67062,-3.4200,3.2300,0.3800,4.7195,0.0000,0.0698,-0.7516,21.50,89.13,46.13,-1.6803,8.5306,-0.3112,8.7001
7,21,1,3,2,67.193,67193,-2.2100,5.8500,-0.9900,6.3314,-0.0556,-0.0022,0.2040,20.38,89.19,47.69,-1.7501,8.1773,-0.4006,8.3721
7,21,1,3,2,67.324,67324,-4.9200,8.4200,-1.1900,9.8244,-0.0982,0.0055,-0.4898,24.31,89.50,43.81,-2.1678,8.2093,-0.5046,8.5057
7,21,1,3,2,67.454,67454,-5.6000,13.9700,-0.0300,15.0506,-0.1233,-0.0436,0.2160,24.50,90.31,44.06,-2.6201,8.9684,-0.4421,9.3538
7,21,1,3,2,67.585,67585,-5.3300,20.0500,-0.7600,20.7603,-0.0556,0.0862,0.4909,21.94,91.31,46.38,-2.9772,10.4287,-0.4840,10.8561
