participant,rep,equipment_code,exercise_code,quality_code,timestamp,timestamp_ms,accelX,accelY,accelZ,accelMag,gyroX,gyroY,gyroZ,roll,pitch,yaw,filteredX,filteredY,filteredZ,filteredMag
11,1,1,3,2,00.000,0,3.0500,9.3500,0.1300,9.8357,0.0153,0.0055,0.0774,-17.19,88.69,83.94,2.6803,9.3690,0.1384,9.7458
11,1,1,3,2,00.130,130,2.9800,9.2300,0.2600,9.7026,0.0131,0.0087,-0.1364,-16.88,88.63,83.56,2.7198,9.3507,0.1544,9.7394
11,1,1,3,2,00.260,260,2.7600,9.2400,0.2400,9.6464,-0.0022,0.0120,-0.0982,-16.06,88.63,82.69,2.7251,9.3361,0.1657,9.7271
11,1,1,3,2,00.390,390,2.7000,9.2700,0.3000,9.6599,-0.0022,0.0120,-0.0567,-15.69,88.63,82.25,2.7218,9.3274,0.1834,9.7181
11,1,1,3,2,00.521,521,2.9400,9.3600,0.1700,9.8123,0.0065,0.0164,-0.1767,-15.25,88.63,81.69,2.7506,9.3317,0.1816,9.7303
11,1,1,3,2,00.694,694,1.7800,8.3100,0.3600,8.5061,0.0273,0.0207,-0.2902,-12.69,88.50,78.94,2.6227,9.1970,0.2051,9.5659
11,1,1,3,2,00.825,825,1.8700,8.6300,0.2300,8.8333,-0.0055,0.0065,-0.1069,-11.44,88.50,77.56,2.5235,9.1223,0.2084,9.4672
11,1,1,3,2,00.955,955,1.9200,8.4400,0.0900,8.6561,-0.0305,-0.0349,-0.1222,-10.38,88.56,76.69,2.4440,9.0324,0.1928,9.3592
11,1,1,3,2,01.085,1085,1.4400,8.6600,0.2400,8.7822,-0.0742,-0.0611,-0.1080,-9.63,89.00,77.19,2.3117,8.9833,0.1990,9.2781
11,1,1,3,2,01.215,1215,1.6800,10.3100,-0.0800,10.4463,-0.0851,-0.0611,0.4963,-11.25,89.56,79.63,2.2284,9.1582,0.1623,9.4268
11,1,1,3,2,01.345,1345,1.7900,9.7500,-0.4800,9.9246,-0.1069,-0.0491,0.0000,-14.63,90.19,83.50,2.1707,9.2361,0.0776,9.4881
11,1,1,3,2,01.475,1475,2.4500,10.7300,-0.2200,11.0084,-0.1091,-0.0295,-0.2749,-13.44,90.94,82.81,2.2075,9.4330,0.0384,9.6879
11,1,1,3,2,01.605,1605,1.1600,10.4800,-0.2600,10.5472,-0.0524,-0.0513,-0.3327,-10.63,91.44,80.56,2.0694,9.5710,-0.0009,9.7921
11,1,1,3,2,01.778,1778,1.1400,9.8900,-0.3500,9.9616,-0.0185,-0.0360,0.3491,-9.88,91.75,80.63,1.9470,9.6130,-0.0469,9.8083
11,1,1,3,2,01.908,1908,2.2400,10.1900,-0.4500,10.4430,-0.0022,-0.0305,0.2040,-12.56,91.75,83.81,1.9856,9.6890,-0.1000,9.8909
11,1,1,3,2,02.039,2039,2.3000,11.3000,-0.1500,11.5327,0.0436,-0.0044,-0.1451,-12.44,91.56,84.00,2.0270,9.9013,-0.1066,10.1072
11,1,1,3,2,02.169,2169,1.7900,10.6800,-0.1600,10.8301,0.0207,0.0295,-0.1091,-11.31,91.31,82.75,1.9958,10.0039,-0.1137,10.2017
11,1,1,3,2,02.300,2300,1.3500,9.8900,-0.3500,9.9878,0.0011,0.0764,0.1658,-11.56,91.38,82.63,1.9107,9.9889,-0.1448,10.1710
11,1,1,3,2,02.430,2430,2.6400,9.3300,-0.1500,9.6975,0.0109,0.1025,0.4374,-13.81,91.56,84.19,2.0068,9.9021,-0.1455,10.1044
11,1,1,3,2,02.560,2560,3.1500,9.2300,-0.2000,9.7548,0.0295,0.0938,0.1254,-15.69,91.56,85.19,2.1574,9.8135,-0.1527,10.0490
11,1,1,3,2,02.690,2690,2.4800,9.1000,-0.2200,9.4344,0.0480,0.0764,-0.3807,-14.50,91.44,83.38,2.1999,9.7195,-0.1615,9.9667
11,1,1,3,2,02.866,2866,2.1400,8.8600,-0.1400,9.1159,0.1047,0.0633,0.3436,-13.69,90.88,81.81,2.1920,9.6062,-0.1587,9.8544
11,1,1,3,2,02.997,2997,2.8400,7.9500,-0.0400,8.4421,0.1320,0.0218,0.2247,-16.19,90.06,83.75,2.2774,9.3880,-0.1431,9.6613
11,1,1,3,2,03.130,3130,2.4500,9.0400,0.2200,9.3687,0.1669,0.0055,0.3731,-17.94,88.88,85.13,2.3002,9.3421,-0.0952,9.6216
11,1,1,3,2,03.261,3261,4.3800,8.0900,0.4800,9.2121,0.1102,0.0175,0.1974,-20.69,87.88,87.44,2.5742,9.1771,-0.0194,9.5314
11,1,1,3,2,03.392,3392,3.1400,8.2100,0.6600,8.8147,0.0785,0.0447,0.3403,-21.88,87.31,88.25,2.6488,9.0497,0.0701,9.4296
11,2,1,3,2,03.522,3522,4.4900,8.9700,0.3600,10.0375,0.0338,0.0774,0.3523,-24.25,87.13,90.06,2.8914,9.0392,0.1083,9.4910
11,2,1,3,2,03.652,3652,3.9500,8.6500,0.5800,9.5269,0.0502,0.0480,-0.5127,-23.56,87.06,88.81,3.0309,8.9879,0.1705,9.4867
11,2,1,3,2,03.783,3783,3.5500,9.3900,0.5400,10.0532,0.0774,0.0469,-0.0535,-21.44,86.81,86.19,3.0993,9.0409,0.2192,9.5599
11,2,1,3,2,03.955,3955,3.6000,8.9800,0.7700,9.7053,0.0513,0.0524,-0.2127,-20.19,86.31,84.25,3.1653,9.0329,0.2917,9.5758
11,2,1,3,2,04.085,4085,3.1600,9.0500,0.6700,9.6092,0.0044,0.0404,-0.2640,-18.25,86.25,81.94,3.1646,9.0351,0.3416,9.5794
11,2,1,3,2,04.215,4215,3.1000,9.2000,0.6800,9.7320,-0.0349,0.0131,-0.2705,-16.81,86.38,80.31,3.1561,9.0569,0.3862,9.5988
11,2,1,3,2,04.345,4345,2.4500,9.2500,0.3900,9.5769,-0.0513,0.0033,-0.0447,-15.31,86.69,78.88,3.0630,9.0823,0.3867,9.5927
11,2,1,3,2,04.475,4475,2.2400,9.0600,0.7000,9.3590,-0.0764,-0.0327,-0.0120,-15.13,87.13,78.81,2.9546,9.0794,0.4280,9.5576
11,2,1,3,2,04.605,4605,2.7900,9.4100,0.3500,9.8211,-0.1145,-0.0458,0.1298,-16.00,87.75,80.25,2.9329,9.1229,0.4177,9.5919
11,2,1,3,2,04.736,4736,3.0500,9.6400,0.1200,10.1117,-0.0916,-0.0404,0.0960,-16.38,88.44,81.13,2.9483,9.1911,0.3785,9.6598
11,2,1,3,2,04.867,4867,3.0200,9.2500,0.0900,9.7309,-0.0425,-0.0404,-0.0142,-16.56,88.81,81.69,2.9578,9.1988,0.3405,9.6687
11,2,1,3,2,05.039,5039,2.6200,8.6600,0.2900,9.0523,-0.0360,-0.0556,-0.1604,-15.56,89.00,81.19,2.9133,9.1278,0.3338,9.5873
11,2,1,3,2,05.169,5169,1.0600,8.5000,0.0000,8.5658,-0.0295,-0.0796,-0.4396,-12.88,89.13,79.06,2.6690,9.0451,0.2898,9.4351
11,2,1,3,2,05.299,5299,2.6800,8.6900,0.0200,9.0939,-0.0393,-0.0524,-0.0720,-12.69,89.25,79.38,2.6705,8.9983,0.2543,9.3897
11,2,1,3,2,05.429,5429,1.6200,8.9300,-0.3600,9.0829,-0.0796,-0.0436,-0.2465,-10.69,89.56,77.81,2.5321,8.9893,0.1733,9.3407
11,2,1,3,2,05.559,5559,2.4600,9.2400,-0.0100,9.5619,-0.0698,-0.0240,0.1974,-10.38,90.06,77.88,2.5226,9.0223,0.1492,9.3695
11,2,1,3,2,05.690,5690,1.7100,9.8200,-0.5000,9.9803,-0.0731,-0.0349,0.1702,-10.88,90.56,78.69,2.4155,9.1275,0.0636,9.4419
11,2,1,3,2,05.820,5820,2.2100,10.5700,-0.5700,10.8136,-0.0654,-0.0295,0.1342,-12.13,91.13,80.31,2.3884,9.3175,-0.0199,9.6188
11,2,1,3,2,05.950,5950,2.0000,10.7200,-0.3700,10.9112,-0.0153,-0.0338,0.0262,-12.50,91.38,80.94,2.3372,9.5024,-0.0660,9.7858
11,2,1,3,2,06.123,6123,2.3600,10.1600,-0.3100,10.4351,0.0022,-0.0415,-0.0764,-12.56,91.31,81.38,2.3402,9.5890,-0.0982,9.8709
11,2,1,3,2,06.253,6253,1.8200,10.0500,-0.1600,10.2147,0.0076,-0.0175,-0.3033,-11.06,91.19,80.13,2.2717,9.6498,-0.1063,9.9141
11,2,1,3,2,06.383,6383,1.4500,11.0500,-0.2500,11.1475,-0.0371,-0.0098,-0.1614,-9.06,91.31,78.19,2.1634,9.8343,-0.1252,10.0702
11,2,1,3,2,06.513,6513,1.4200,9.8600,-0.1800,9.9634,-0.0436,-0.0382,0.2182,-9.50,91.56,78.81,2.0654,9.8377,-0.1325,10.0530
11,2,1,3,2,06.643,6643,2.3300,11.5000,-0.5700,11.7475,-0.0611,-0.0611,0.2203,-11.44,91.88,81.25,2.1003,10.0567,-0.1901,10.2755
11,2,1,3,2,06.773,6773,2.5600,11.8100,-0.3000,12.0880,-0.0371,-0.0458,0.0011,-12.19,92.06,82.44,2.1609,10.2878,-0.2046,10.5142
11,2,1,3,2,06.904,6904,1.8000,10.6500,-0.3600,10.8070,-0.0065,0.0142,-0.3251,-11.00,92.19,81.38,2.1133,10.3355,-0.2251,10.5517
11,3,1,3,2,07.034,7034,1.0000,9.6100,-0.0900,9.6623,0.0218,0.0545,-0.5018,-7.75,92.19,77.81,1.9666,10.2399,-0.2073,10.4291
11,3,1,3,2,07.207,7207,0.8400,8.8800,-0.2900,8.9244,0.0796,0.0393,-0.0327,-5.19,91.69,74.69,1.8182,10.0607,-0.2182,10.2260
11,3,1,3,2,07.337,7337,1.0900,8.7000,-0.3300,8.7742,0.0982,0.0153,0.1647,-5.81,91.06,75.06,1.7222,9.8814,-0.2329,10.0330
11,3,1,3,2,07.467,7467,0.6500,8.5200,-0.1800,8.5467,0.1025,0.0109,0.3283,-7.63,90.31,76.75,1.5809,9.7020,-0.2259,9.8325
11,3,1,3,2,07.597,7597,3.3900,8.1400,0.0600,8.8179,0.0676,0.0480,0.5803,-11.31,89.75,80.06,1.8193,9.4962,-0.1883,9.6707
11,3,1,3,2,07.727,7727,2.1500,8.9500,-0.0400,9.2047,-0.0044,0.0436,0.2793,-14.00,89.50,82.38,1.8629,9.4242,-0.1687,9.6080
11,3,1,3,2,07.857,7857,2.9200,9.2100,-0.1600,9.6631,-0.0131,0.0753,0.2531,-16.19,89.75,84.19,2.0022,9.3960,-0.1676,9.6084
11,3,1,3,2,07.988,7988,3.1000,9.1500,-0.0300,9.6609,0.0164,0.0905,0.1854,-17.94,89.88,85.31,2.1468,9.3636,-0.1494,9.6077
11,3,1,3,2,08.118,8118,3.6000,9.1400,0.0600,9.8236,0.0589,0.1058,0.1364,-19.38,89.81,86.00,2.3383,9.3341,-0.1218,9.6233
11,3,1,3,2,08.291,8291,3.8500,9.0300,0.1000,9.8170,0.0153,0.0829,0.0458,-19.50,89.75,85.13,2.5375,9.2940,-0.0926,9.6347
11,3,1,3,2,08.422,8422,3.3300,9.1800,0.0000,9.7653,-0.0327,0.0447,-0.0022,-19.06,89.94,84.38,2.6420,9.2790,-0.0804,9.6481
11,3,1,3,2,08.552,8552,3.4900,9.1200,0.0200,9.7650,-0.0098,0.0065,0.0404,-19.63,90.19,84.75,2.7537,9.2580,-0.0672,9.6591
11,3,1,3,2,08.682,8682,3.4100,9.1300,0.1200,9.7468,0.0175,-0.0131,-0.0927,-19.00,90.13,84.19,2.8402,9.2412,-0.0425,9.6679
11,3,1,3,2,08.812,8812,2.8700,8.8200,0.0500,9.2753,0.0218,-0.0284,-0.1713,-18.25,89.94,83.44,2.8441,9.1857,-0.0303,9.6160
11,3,1,3,2,08.942,8942,3.4800,9.5300,-0.0900,10.1459,-0.0065,-0.0545,0.0033,-18.06,89.81,83.56,2.9279,9.2310,-0.0382,9.6843
11,3,1,3,2,09.072,9072,3.7000,9.2900,-0.1400,10.0007,-0.0153,-0.0938,0.0371,-17.50,89.75,83.63,3.0297,9.2388,-0.0516,9.7230
11,3,1,3,2,09.202,9202,2.1400,9.1400,0.0100,9.3872,-0.0284,-0.0851,0.0196,-16.75,89.63,83.44,2.9124,9.2258,-0.0435,9.6747
11,3,1,3,2,09.375,9375,2.7200,9.2600,0.0100,9.6512,-0.0044,-0.0731,-0.0829,-16.75,89.56,84.19,2.8871,9.2303,-0.0364,9.6713
11,3,1,3,2,09.505,9505,2.8200,9.3300,0.0300,9.7469,0.0000,-0.0545,0.0153,-16.69,89.44,84.56,2.8782,9.2434,-0.0277,9.6812
11,3,1,3,2,09.635,9635,2.6100,9.4000,0.0800,9.7559,0.0098,-0.0371,-0.0687,-16.38,89.38,84.56,2.8429,9.2641,-0.0135,9.6905
11,3,1,3,2,09.765,9765,2.7400,9.3900,0.1000,9.7821,0.0349,-0.0404,-0.0436,-16.06,89.13,84.44,2.8293,9.2807,0.0015,9.7024
11,3,1,3,2,09.895,9895,2.5800,9.5300,0.2800,9.8770,0.0807,-0.0556,0.0284,-16.00,88.63,84.63,2.7965,9.3135,0.0382,9.7244
11,3,1,3,2,10.025,10025,2.4900,9.3800,0.3900,9.7127,0.0993,-0.0098,0.0425,-16.50,87.81,85.19,2.7561,9.3223,0.0845,9.7215
11,3,1,3,2,10.156,10156,2.0000,9.5000,0.3900,9.7161,0.0633,-0.0055,0.2203,-16.56,87.25,85.13,2.6565,9.3457,0.1248,9.7167
11,3,1,3,2,10.286,10286,3.5300,8.7200,0.5100,9.4212,0.0447,0.0033,0.5454,-20.31,86.75,88.69,2.7716,9.2632,0.1755,9.6706
11,3,1,3,2,10.459,10459,3.6300,8.7200,0.6600,9.4684,-0.0207,0.0709,-0.4658,-22.06,86.75,90.13,2.8847,9.1917,0.2394,9.6367
11,3,1,3,2,10.589,10589,3.3600,9.2300,0.4800,9.8343,-0.0338,0.0884,-0.3425,-19.69,87.25,87.25,2.9473,9.1967,0.2711,9.6612
11,3,1,3,2,10.720,10720,2.9800,9.3700,0.4500,9.8428,0.0033,0.0862,-0.0600,-18.38,87.56,85.38,2.9516,9.2195,0.2947,9.6850
11,3,1,3,2,10.850,10850,3.3300,9.4900,0.5700,10.0734,0.0305,0.0840,0.0327,-18.50,87.63,84.81,3.0015,9.2552,0.3309,9.7353
11,3,1,3,2,10.980,10980,3.3100,9.1700,0.2300,9.7518,0.0556,0.0185,-0.1527,-18.44,87.38,84.25,3.0421,9.2440,0.3176,9.7369
11,3,1,3,2,11.110,11110,1.8800,8.4300,-0.1300,8.6381,0.0131,-0.0284,-0.4331,-15.94,87.06,81.75,2.8890,9.1367,0.2587,9.5861
11,3,1,3,2,11.240,11240,3.1100,9.0400,1.0600,9.6186,0.0142,0.0644,-0.5029,-15.75,87.31,81.56,2.9181,9.1240,0.3643,9.5862
11,3,1,3,2,11.370,11370,2.6200,8.9100,0.3400,9.2934,0.0000,-0.0033,-0.1287,-12.75,87.50,78.38,2.8788,9.0958,0.3611,9.5473
11,3,1,3,2,11.543,11543,1.5300,7.7900,0.1700,7.9406,-0.0818,-0.0502,-0.1985,-10.56,87.56,76.75,2.7011,8.9237,0.3359,9.3296
11,3,1,3,2,11.674,11674,2.4400,9.7500,0.1900,10.0525,-0.0436,-0.0098,0.6360,-11.13,88.06,77.88,2.6667,9.0326,0.3167,9.4233
11,3,1,3,2,11.804,11804,0.7900,8.6000,0.2800,8.6407,-0.0894,-0.0436,-0.2727,-12.19,88.63,79.25,2.4194,8.9756,0.3118,9.3012
11,3,1,3,2,11.935,11935,2.2900,9.9000,-0.0600,10.1616,-0.1233,-0.0502,-0.3338,-10.00,89.31,77.69,2.4023,9.0974,0.2628,9.4129
11,3,1,3,2,12.066,12066,1.1300,10.3700,-0.0800,10.4317,-0.0600,-0.0567,-0.3556,-6.94,89.88,75.38,2.2347,9.2651,0.2177,9.5333
11,3,1,3,2,12.198,12198,0.4600,10.3300,-0.1800,10.3418,-0.0589,-0.0425,-0.1091,-5.19,90.31,74.19,2.0008,9.4054,0.1653,9.6173
11,3,1,3,2,12.329,12329,0.6000,9.9000,0.0200,9.9182,-0.0447,-0.0425,-0.1691,-4.13,90.69,74.19,1.8162,9.4706,0.1461,9.6443
11,3,1,3,2,12.463,12463,0.5100,10.4500,-0.1100,10.4630,-0.0382,-0.0120,-0.1167,-3.13,90.94,73.81,1.6441,9.5997,0.1124,9.7401
11,3,1,3,2,12.636,12636,0.0100,12.4600,-0.3000,12.4636,-0.0273,-0.0055,-0.2891,-0.69,91.31,71.81,1.4288,9.9766,0.0580,10.0785
11,3,1,3,2,12.766,12766,-0.2000,11.6900,-0.3700,11.6976,-0.0044,-0.0240,0.0404,0.13,91.44,71.13,1.2141,10.2024,0.0016,10.2744
11,3,1,3,2,12.896,12896,0.4600,10.5700,-0.3400,10.5855,0.0109,0.0142,0.0011,-0.63,91.44,72.25,1.1148,10.2508,-0.0434,10.3113
11,4,1,3,2,13.026,13026,-0.3300,9.9300,-0.2400,9.9384,0.0371,0.0415,-0.3033,0.94,91.25,70.44,0.9244,10.2085,-0.0693,10.2505
11,4,1,3,2,13.156,13156,-0.6400,9.1100,-0.3000,9.1374,0.0382,0.0371,-0.0316,2.44,91.00,68.69,0.7182,10.0638,-0.0997,10.0899
11,4,1,3,2,13.286,13286,-0.5200,8.4800,-0.2100,8.4985,0.0502,0.0371,0.1680,1.69,90.75,69.19,0.5551,9.8551,-0.1142,9.8714
11,4,1,3,2,13.417,13417,-0.3600,8.5800,0.0100,8.5876,0.0785,0.0305,0.3862,0.19,90.25,70.50,0.4345,9.6871,-0.0979,9.6973
11,4,1,3,2,13.547,13547,0.9800,8.7600,-0.0400,8.8147,0.0884,0.0349,0.6850,-4.13,89.75,74.69,0.5064,9.5649,-0.0902,9.5787
11,4,1,3,2,13.720,13720,1.6300,9.0300,0.0200,9.1760,0.0447,0.0142,0.2083,-8.31,89.19,78.56,0.6544,9.4944,-0.0757,9.5172
11,4,1,3,2,13.850,13850,2.0200,9.1700,0.1500,9.3910,0.0404,0.0229,0.5040,-10.75,88.88,80.75,0.8344,9.4517,-0.0460,9.4885
11,4,1,3,2,13.980,13980,3.2400,8.7200,0.3700,9.3098,0.0447,0.0218,0.4963,-14.63,88.63,84.25,1.1514,9.3552,0.0088,9.4258
11,4,1,3,2,14.110,14110,2.9800,9.6400,0.2300,10.0927,0.0164,-0.0109,-0.1920,-16.13,88.44,85.31,1.3923,9.3928,0.0380,9.4955
11,4,1,3,2,14.240,14240,1.5100,9.5700,0.4300,9.6979,0.0229,0.0196,-0.4898,-13.56,88.31,82.38,1.4078,9.4161,0.0896,9.5212
11,4,1,3,2,14.371,14371,2.0200,9.3300,0.2400,9.5492,0.0262,0.0447,0.2258,-12.75,88.13,81.25,1.4885,9.4048,0.1095,9.5225
11,4,1,3,2,14.501,14501,2.2100,9.2800,0.1700,9.5410,-0.0055,0.0338,0.1691,-14.63,88.06,82.75,1.5836,9.3883,0.1174,9.5217
11,4,1,3,2,14.631,14631,3.1900,9.6800,0.2700,10.1957,-0.0229,0.0371,0.3065,-16.44,88.25,84.13,1.7953,9.4268,0.1375,9.5972
11,4,1,3,2,14.804,14804,2.8600,9.2300,0.2500,9.6662,-0.0109,0.0142,-0.0589,-17.13,88.44,84.38,1.9356,9.4008,0.1524,9.5992
11,4,1,3,2,14.935,14935,3.4400,9.4100,0.1300,10.0199,0.0000,-0.0087,0.1014,-17.50,88.50,84.75,2.1338,9.4020,0.1494,9.6423
11,4,1,3,2,15.065,15065,2.7000,9.1900,0.2000,9.5805,0.0000,-0.0251,-0.0785,-17.38,88.44,84.69,2.2084,9.3741,0.1561,9.6320
11,4,1,3,2,15.195,15195,2.9100,9.2000,0.2700,9.6530,0.0033,-0.0218,-0.0665,-17.19,88.38,84.69,2.3009,9.3512,0.1711,9.6316
11,4,1,3,2,15.325,15325,2.7200,9.1800,0.2000,9.5766,-0.0131,-0.0371,-0.0676,-16.56,88.31,84.25,2.3561,9.3286,0.1749,9.6231
11,4,1,3,2,15.455,15455,2.8800,9.4500,0.2200,9.8816,-0.0033,-0.0382,0.0884,-16.75,88.31,84.75,2.4251,9.3446,0.1808,9.6559
11,4,1,3,2,15.585,15585,2.7200,9.3800,0.2600,9.7699,0.0044,-0.0284,-0.0164,-16.94,88.25,85.19,2.4640,9.3493,0.1913,9.6704
11,4,1,3,2,15.715,15715,2.6000,9.2800,0.2800,9.6414,0.0142,-0.0120,0.0447,-16.69,88.19,85.13,2.4819,9.3401,0.2030,9.6664
11,4,1,3,2,15.888,15888,2.8100,9.2500,0.2900,9.6717,0.0098,0.0055,0.1462,-17.38,88.06,85.75,2.5252,9.3283,0.2144,9.6664
11,4,1,3,2,16.018,16018,3.3900,9.2300,0.4600,9.8436,0.0055,0.0164,0.0229,-18.25,88.00,86.50,2.6391,9.3153,0.2468,9.6851
11,4,1,3,2,16.148,16148,3.1900,8.7900,0.5000,9.3643,0.0327,0.0240,-0.1560,-17.81,87.81,85.94,2.7117,9.2461,0.2802,9.6396
11,4,1,3,2,16.278,16278,1.9500,7.1600,0.5600,7.4419,0.0665,0.0273,-0.7439,-15.25,87.44,83.06,2.6113,8.9712,0.3170,9.3489
11,4,1,3,2,16.408,16408,3.9200,8.7200,0.0800,9.5609,0.0654,0.0513,0.5890,-15.75,87.06,83.25,2.7838,8.9381,0.2858,9.3659
11,4,1,3,2,16.538,16538,1.4100,8.7400,0.1500,8.8543,-0.0654,0.0240,-0.6261,-13.81,87.06,81.00,2.6028,8.9120,0.2679,9.2881
11,4,1,3,2,16.668,16668,1.9900,9.5700,-0.0800,9.7750,-0.1124,-0.0098,0.0305,-11.38,87.63,78.56,2.5220,8.9987,0.2221,9.3481
11,4,1,3,2,16.799,16799,2.4800,9.8300,0.1600,10.1393,-0.1244,-0.0153,-0.0949,-11.44,88.31,78.81,2.5165,9.1082,0.2139,9.4519
11,4,1,3,2,16.972,16972,2.5200,10.1200,-0.3600,10.4352,-0.1385,-0.0742,0.0087,-12.31,89.44,80.38,2.5169,9.2416,0.1383,9.5792
11,4,1,3,2,17.103,17103,1.8100,10.1900,-0.1100,10.3501,-0.1124,-0.1156,-0.4592,-10.06,90.19,79.00,2.4238,9.3665,0.1055,9.6756
11,4,1,3,2,17.234,17234,0.4700,10.0300,-0.3300,10.0464,-0.0731,-0.1222,-0.4712,-6.50,90.75,76.38,2.1663,9.4540,0.0482,9.6991
11,4,1,3,2,17.364,17364,0.4100,10.8700,-0.3500,10.8834,-0.0742,-0.0840,0.0382,-5.25,91.19,76.31,1.9349,9.6406,-0.0043,9.8328
11,4,1,3,2,17.495,17495,0.7500,13.4400,-0.3800,13.4663,-0.0502,-0.0873,0.0273,-5.69,91.56,77.69,1.7787,10.1412,-0.0538,10.2962
11,4,1,3,2,17.627,17627,0.7900,11.6600,-0.4900,11.6970,-0.0022,-0.0458,0.0393,-6.19,91.63,78.69,1.6485,10.3414,-0.1113,10.4725
11,5,1,3,2,17.762,17762,1.1300,10.3100,-0.1900,10.3735,0.0436,0.0338,0.0044,-6.19,91.44,78.88,1.5801,10.3372,-0.1217,10.4580
11,5,1,3,2,17.892,17892,0.8800,9.8300,0.0000,9.8693,0.0949,0.0578,-0.3109,-4.75,90.94,77.00,1.4879,10.2704,-0.1056,10.3781
11,5,1,3,2,18.065,18065,0.4900,9.0600,0.2100,9.0757,0.1571,0.0273,-0.5400,-2.13,89.75,73.81,1.3564,10.1109,-0.0640,10.2017
11,5,1,3,2,18.195,18195,-1.3000,8.8500,-0.1500,8.9462,0.1647,-0.0055,-0.4494,1.81,88.69,70.25,1.0063,9.9447,-0.0754,9.9958
11,5,1,3,2,18.325,18325,0.0400,8.5500,0.4100,8.5599,0.1233,0.0273,0.6960,-0.94,87.69,73.94,0.8790,9.7610,-0.0114,9.8005
11,5,1,3,2,18.455,18455,0.7500,8.3000,0.4400,8.3454,0.0829,0.0382,0.6600,-5.75,86.94,78.63,0.8620,9.5684,0.0481,9.6073
11,5,1,3,2,18.585,18585,1.5900,9.0600,0.4600,9.2100,0.0131,0.0513,0.4811,-9.69,86.63,82.19,0.9579,9.5014,0.1024,9.5502
11,5,1,3,2,18.716,18716,2.0600,8.6400,0.6200,8.9038,-0.0382,0.0622,0.1778,-12.44,86.75,84.25,1.1032,9.3879,0.1706,9.4541
11,5,1,3,2,18.846,18846,2.3000,9.6100,0.7000,9.9062,-0.0076,0.0654,0.2738,-13.69,87.06,84.81,1.2609,9.4172,0.2403,9.5043
11,5,1,3,2,18.977,18977,4.0000,9.7100,0.3900,10.5089,0.0164,0.0774,-0.0055,-15.69,87.19,86.13,1.6218,9.4558,0.2601,9.5974
11,5,1,3,2,19.149,19149,2.7200,9.1900,0.5000,9.5971,0.0273,0.0513,-0.0535,-13.69,87.13,83.00,1.7665,9.4207,0.2917,9.5894
11,5,1,3,2,19.279,19279,2.4200,9.4500,0.1900,9.7568,-0.0295,0.0447,0.0120,-13.31,87.19,82.00,1.8526,9.4246,0.2783,9.6090
11,5,1,3,2,19.409,19409,2.2100,8.4200,0.9200,8.7537,-0.0065,0.0404,-0.1385,-12.81,87.44,81.19,1.8997,9.2922,0.3628,9.4914
11,5,1,3,2,19.539,19539,1.5400,7.9000,0.2900,8.0539,-0.0480,0.0044,-0.4418,-10.56,87.75,78.81,1.8523,9.1088,0.3532,9.3019
11,5,1,3,2,19.669,19669,1.8100,8.0900,0.2500,8.2938,-0.0665,-0.0055,-0.0502,-8.56,88.19,76.88,1.8468,8.9745,0.3396,9.1688
11,5,1,3,2,19.799,19799,1.5200,9.4400,0.0000,9.5616,-0.1276,-0.0633,-0.0305,-8.50,88.94,77.25,1.8037,9.0359,0.2949,9.2188
11,5,1,3,2,19.930,19930,1.3900,9.3500,-0.0700,9.4530,-0.1287,-0.0796,-0.2640,-7.56,89.88,77.00,1.7492,9.0773,0.2468,9.2475
11,5,1,3,2,20.060,20060,0.8600,9.7300,-0.3000,9.7725,-0.1091,-0.0622,-0.4123,-4.94,90.63,74.94,1.6320,9.1633,0.1747,9.3091
11,5,1,3,2,20.233,20233,-0.4300,11.2800,-0.3500,11.2936,-0.0851,-0.0535,-0.2323,-1.25,91.50,71.75,1.3603,9.4422,0.1056,9.5403
11,5,1,3,2,20.364,20364,0.1600,9.7700,-0.3700,9.7783,-0.0654,-0.0687,-0.1200,-0.81,92.00,71.88,1.2021,9.4854,0.0429,9.5614
11,5,1,3,2,20.495,20495,-0.4700,9.4200,-0.2000,9.4338,-0.0480,-0.0502,-0.1745,0.75,92.50,70.63,0.9818,9.4768,0.0109,9.5275
11,5,1,3,2,20.625,20625,-0.2100,11.2900,-0.5600,11.3058,-0.0916,-0.0185,-0.0229,1.13,93.00,70.44,0.8247,9.7157,-0.0643,9.7509
11,5,1,3,2,20.756,20756,-0.8200,12.3800,-1.0200,12.4490,-0.0654,-0.0404,0.0164,1.75,93.50,70.06,0.6080,10.0668,-0.1903,10.0869
11,5,1,3,2,20.886,20886,-0.0900,11.5600,-1.0200,11.6053,-0.0022,-0.0578,0.0720,0.56,93.63,71.63,0.5160,10.2636,-0.2996,10.2809
11,5,1,3,2,21.017,21017,0.1100,11.1000,-0.8400,11.1323,0.0720,-0.0502,0.0120,0.69,93.31,72.00,0.4625,10.3738,-0.3708,10.3907
11,6,1,3,2,21.148,21148,-0.1500,9.9800,-0.4700,9.9922,0.1124,-0.0065,0.0044,0.31,92.69,72.94,0.3818,10.3219,-0.3839,10.3361
11,6,1,3,2,21.323,21323,0.0200,9.4100,-0.3300,9.4158,0.1080,0.0120,-0.0436,0.75,91.69,73.38,0.3341,10.2017,-0.3768,10.2142
11,6,1,3,2,21.453,21453,-0.6000,8.9700,-0.2400,8.9932,0.1134,0.0087,-0.1931,1.56,90.88,72.56,0.2110,10.0394,-0.3588,10.0480
11,6,1,3,2,21.586,21586,-0.9400,9.0300,-0.0700,9.0791,0.0873,0.0229,0.3414,0.88,90.06,73.44,0.0594,9.9064,-0.3207,9.9118
11,6,1,3,2,21.716,21716,0.2900,9.2800,0.0600,9.2847,0.0807,0.0284,0.6512,-3.31,89.44,77.63,0.0897,9.8239,-0.2705,9.8280
11,6,1,3,2,21.862,21862,0.8800,8.2100,0.2000,8.2594,0.0436,0.0327,0.2193,-6.75,88.94,80.69,0.1939,9.6112,-0.2085,9.6154
11,6,1,3,2,21.997,21997,1.0200,9.5300,0.1500,9.5856,0.0164,0.0382,0.3785,-8.44,88.81,82.00,0.3027,9.6005,-0.1613,9.6066
11,6,1,3,2,22.128,22128,2.1400,8.8000,0.3600,9.0636,0.0175,0.0556,0.4211,-12.38,88.75,85.38,0.5448,9.4950,-0.0926,9.5111
11,6,1,3,2,22.258,22258,2.4200,9.0300,0.2900,9.3531,0.0349,0.0524,0.1571,-14.13,88.63,86.31,0.7919,9.4337,-0.0422,9.4670
11,6,1,3,2,22.431,22431,2.8400,8.8900,0.2800,9.3368,0.0229,0.0545,-0.1385,-15.81,88.44,87.25,1.0618,9.3621,0.0003,9.4221
11,6,1,3,2,22.562,22562,3.1200,9.5000,0.5100,10.0122,0.0207,0.0644,0.3000,-15.94,88.50,86.75,1.3330,9.3803,0.0674,9.4747
11,6,1,3,2,22.692,22692,2.9500,9.2800,0.3900,9.7454,-0.0175,0.0622,0.0818,-16.38,88.63,86.56,1.5461,9.3670,0.1100,9.4944
11,6,1,3,2,22.822,22822,2.9900,9.2800,0.1600,9.7511,-0.0229,0.0480,-0.0818,-16.38,88.81,85.88,1.7364,9.3556,0.1165,9.5161
11,6,1,3,2,22.952,22952,2.9100,9.3000,0.2700,9.7484,-0.0229,0.0327,-0.0327,-15.63,89.00,84.69,1.8910,9.3483,0.1368,9.5386
11,6,1,3,2,23.082,23082,2.5800,8.7500,0.0800,9.1228,-0.0131,-0.0011,-0.1516,-15.31,89.13,84.31,1.9818,9.2694,0.1293,9.4798
11,6,1,3,2,23.212,23212,1.4000,8.4600,0.4900,8.5890,0.0033,-0.0142,-0.4123,-12.94,89.13,81.94,1.9052,9.1628,0.1768,9.3604
11,6,1,3,2,23.342,23342,2.3000,8.3600,0.1700,8.6723,-0.0120,-0.0033,-0.2771,-11.31,89.06,80.44,1.9572,9.0570,0.1759,9.2677
11,6,1,3,2,23.515,23515,1.0800,9.4000,-0.3300,9.4676,-0.0436,-0.0087,-0.3185,-8.50,89.19,77.63,1.8416,9.1022,0.1093,9.2873
11,6,1,3,2,23.645,23645,1.0700,9.3800,0.1100,9.4415,-0.0185,-0.0371,-0.0284,-7.25,89.31,76.56,1.7399,9.1388,0.1094,9.3036
11,6,1,3,2,23.775,23775,1.3400,9.9500,-0.0900,10.0402,-0.0425,-0.0425,0.0720,-7.81,89.56,77.50,1.6872,9.2457,0.0831,9.3987
11,6,1,3,2,23.905,23905,0.9100,9.6800,-0.1000,9.7232,-0.0371,-0.0338,-0.3480,-6.56,89.81,76.56,1.5848,9.3029,0.0590,9.4371
11,6,1,3,2,24.035,24035,0.5200,10.6300,-0.1200,10.6434,-0.0371,0.0033,-0.0982,-4.69,90.13,74.88,1.4445,9.4778,0.0354,9.5873
11,6,1,3,2,24.165,24165,0.8000,9.8500,-0.1200,9.8832,-0.0458,-0.0175,-0.3272,-3.63,90.38,73.81,1.3596,9.5268,0.0149,9.6234
11,6,1,3,2,24.296,24296,0.2700,9.8100,0.0600,9.8139,-0.0360,-0.0415,-0.6218,-0.13,90.69,70.94,1.2160,9.5642,0.0208,9.6412
11,6,1,3,2,24.426,24426,-1.3700,10.2600,-0.2700,10.3546,-0.0316,-0.0654,-0.1014,3.19,90.94,68.75,0.8752,9.6558,-0.0175,9.6954
11,6,1,3,2,24.599,24599,-0.6000,10.5300,-0.3400,10.5526,-0.0251,-0.0545,0.2694,1.88,91.31,71.31,0.6808,9.7710,-0.0600,9.7949
11,6,1,3,2,24.730,24730,-0.1500,11.7600,-0.5300,11.7729,-0.0295,-0.0371,0.1767,-0.06,91.50,73.75,0.5713,10.0331,-0.1219,10.0501
11,6,1,3,2,24.860,24860,-0.5200,11.7200,-0.3500,11.7368,0.0087,-0.0153,0.0862,-0.75,91.44,74.75,0.4275,10.2554,-0.1520,10.2655
11,6,1,3,2,24.990,24990,0.0700,10.6000,-0.2500,10.6032,0.0011,0.0360,0.3556,-2.31,91.38,76.63,0.3804,10.3008,-0.1649,10.3092
11,7,1,3,2,25.120,25120,0.7700,9.9700,-0.1800,10.0013,0.0327,0.0622,0.2116,-4.56,91.31,78.56,0.4318,10.2572,-0.1669,10.2677
11,7,1,3,2,25.250,25250,0.8500,8.9800,-0.1200,9.0209,0.0447,0.0469,0.0415,-5.31,91.06,78.75,0.4869,10.0889,-0.1607,10.1019
11,7,1,3,2,25.380,25380,0.8400,8.2000,-0.2600,8.2470,0.0491,-0.0044,0.3043,-6.44,90.75,79.31,0.5334,9.8400,-0.1738,9.8560
11,7,1,3,2,25.510,25510,1.6100,8.4100,-0.1300,8.5637,0.0251,-0.0142,0.3163,-8.81,90.56,81.69,0.6753,9.6516,-0.1680,9.6766
11,7,1,3,2,25.683,25683,1.4500,8.2200,-0.0200,8.3469,0.0305,0.0076,-0.2563,-10.88,90.38,83.75,0.7774,9.4629,-0.1485,9.4960
11,7,1,3,2,25.814,25814,1.5500,9.8800,0.0400,10.0009,0.0742,0.0371,0.2869,-9.75,89.94,82.38,0.8792,9.5179,-0.1237,9.5592
11,7,1,3,2,25.944,25944,2.1000,8.3200,0.3600,8.5885,0.1156,0.0535,0.1331,-12.31,89.31,84.44,1.0400,9.3600,-0.0599,9.4178
11,7,1,3,2,26.075,26075,2.8100,9.9400,0.1200,10.3303,0.0720,0.0916,0.2782,-13.69,88.75,85.19,1.2733,9.4365,-0.0362,9.5220
11,7,1,3,2,26.205,26205,2.5400,9.1800,0.5300,9.5396,0.0545,0.0807,-0.1473,-14.00,88.31,84.75,1.4402,9.4027,0.0384,9.5124
11,7,1,3,2,26.335,26335,2.4700,9.3100,0.3100,9.6371,0.0164,0.0578,0.2160,-14.38,88.13,84.63,1.5759,9.3905,0.0742,9.5221
11,7,1,3,2,26.465,26465,2.4700,9.5200,0.3800,9.8425,-0.0240,0.0633,0.0251,-15.00,88.31,84.81,1.6937,9.4075,0.1145,9.5595
11,7,1,3,2,26.595,26595,2.9400,9.2900,0.4800,9.7559,0.0164,0.0665,-0.0927,-15.25,88.50,84.06,1.8580,9.3920,0.1626,9.5754
11,7,1,3,2,26.768,26768,2.2900,8.7900,0.1900,9.0854,0.0218,0.0665,-0.0742,-13.00,88.50,81.00,1.9149,9.3127,0.1663,9.5090
11,7,1,3,2,26.898,26898,1.4600,7.5300,0.4400,7.6828,0.0316,0.0654,-0.3763,-11.06,88.38,78.25,1.8549,9.0778,0.2023,9.2676
11,7,1,3,2,27.029,27029,1.4400,9.6900,0.0300,9.7965,0.0087,0.0687,0.2062,-9.88,88.38,76.56,1.8003,9.1585,0.1796,9.3355
11,7,1,3,2,27.159,27159,2.3600,10.1800,-0.1200,10.4507,-0.0349,0.0360,-0.2858,-10.44,88.38,76.69,1.8740,9.2931,0.1401,9.4812
11,7,1,3,2,27.292,27292,1.2500,8.9500,0.3900,9.0453,0.0196,-0.0131,-0.4756,-7.56,88.38,73.69,1.7918,9.2479,0.1731,9.4214
11,7,1,3,2,27.422,27422,1.3600,9.6400,0.1600,9.7368,0.0087,-0.0382,-0.0654,-5.81,88.38,72.06,1.7349,9.2995,0.1713,9.4615
11,7,1,3,2,27.555,27555,1.0000,9.6000,0.1900,9.6538,-0.0338,-0.0785,-0.1702,-5.25,88.44,72.00,1.6381,9.3391,0.1738,9.4833
11,7,1,3,2,27.686,27686,-0.0300,10.2300,0.1200,10.2307,-0.0698,-0.0971,-0.1462,-3.44,88.75,71.06,1.4182,9.4565,0.1667,9.5637
11,7,1,3,2,27.859,27859,0.6100,9.6300,-0.2000,9.6514,-0.0993,-0.1102,-0.1265,-4.31,89.50,73.00,1.3117,9.4794,0.1184,9.5704
11,7,1,3,2,27.989,27989,0.4300,10.3800,-0.0200,10.3889,-0.0753,-0.1025,-0.2880,-2.56,90.19,72.13,1.1955,9.5981,0.1002,9.6728
11,7,1,3,2,28.120,28120,0.0400,10.6200,-0.1000,10.6205,-0.0349,-0.0971,-0.3272,-0.63,90.56,70.94,1.0433,9.7327,0.0738,9.7888
11,7,1,3,2,28.250,28250,-0.8200,10.8000,-0.0900,10.8315,-0.0065,-0.1145,-0.4996,2.19,90.69,69.44,0.7977,9.8734,0.0522,9.9057
11,7,1,3,2,28.380,28380,-2.3200,11.7400,-0.1800,11.9684,0.0218,-0.0687,0.0349,3.88,90.69,68.88,0.3869,10.1193,0.0216,10.1268
11,7,1,3,2,28.511,28511,-0.1000,10.7500,-0.1900,10.7521,0.0153,-0.0098,0.4189,1.31,90.56,71.94,0.3227,10.2024,-0.0063,10.2076
11,7,1,3,2,28.641,28641,0.1600,10.3700,-0.1000,10.3717,0.0349,0.0011,-0.1440,0.63,90.38,72.94,0.3013,10.2245,-0.0186,10.2290
11,8,1,3,2,28.787,28787,-1.4500,9.9300,0.0400,10.0354,0.0360,-0.0098,-0.0742,2.31,90.06,71.31,0.0705,10.1857,-0.0109,10.1860
11,8,1,3,2,28.962,28962,0.4100,9.5700,0.1600,9.5801,0.0109,-0.0065,0.4865,-1.50,90.00,75.38,0.1153,10.1046,0.0116,10.1052
11,8,1,3,2,29.093,29093,0.0200,9.0600,-0.0700,9.0603,-0.0131,0.0065,-0.0229,-2.38,90.00,76.25,0.1027,9.9669,0.0009,9.9675
11,8,1,3,2,29.224,29224,0.0700,8.8600,0.0400,8.8604,-0.0087,0.0076,0.1800,-2.88,90.06,76.69,0.0984,9.8211,0.0060,9.8216
11,8,1,3,2,29.354,29354,1.0500,9.0800,-0.1500,9.1417,0.0098,-0.0153,0.6796,-6.56,90.06,80.31,0.2238,9.7234,-0.0145,9.7260
11,8,1,3,2,29.484,29484,1.6000,8.7300,-0.1400,8.8765,0.0087,-0.0338,0.6534,-11.38,90.00,85.06,0.4051,9.5925,-0.0311,9.6011
11,8,1,3,2,29.615,29615,2.9300,9.0600,0.0000,9.5220,0.0120,-0.0207,0.6469,-16.13,89.94,89.50,0.7379,9.5223,-0.0270,9.5509
11,8,1,3,2,29.745,29745,3.3500,8.5600,0.1800,9.1939,0.0175,-0.0175,0.1876,-18.88,89.75,91.63,1.0821,9.3955,0.0003,9.4576
11,8,1,3,2,29.876,29876,3.2900,8.8100,0.5400,9.4198,0.0207,-0.0229,0.0535,-19.94,89.38,92.50,1.3730,9.3184,0.0714,9.4192
11,8,1,3,2,30.049,30049,3.1400,8.6400,0.0200,9.1929,-0.0120,0.0120,-0.4003,-20.00,89.25,91.88,1.6059,9.2290,0.0646,9.3679
11,8,1,3,2,30.180,30180,3.8300,9.1500,0.2300,9.9219,0.0033,0.0382,-0.0578,-19.63,89.38,91.00,1.8989,9.2186,0.0864,9.4125
11,8,1,3,2,30.310,30310,2.5100,9.1800,0.1400,9.5180,0.0000,0.0360,-0.1669,-17.75,89.44,88.69,1.9795,9.2135,0.0935,9.4242
11,8,1,3,2,30.440,30440,3.3900,9.3900,0.0200,9.9832,-0.0065,0.0305,0.1593,-18.13,89.50,88.63,2.1653,9.2367,0.0838,9.4875
11,8,1,3,2,30.570,30570,2.6100,9.0100,0.1100,9.3811,-0.0055,0.0229,-0.2727,-18.06,89.56,88.38,2.2239,9.2069,0.0873,9.4721
11,8,1,3,2,30.700,30700,2.8600,9.3100,0.2100,9.7417,0.0142,0.0076,-0.0404,-16.81,89.63,87.06,2.3078,9.2205,0.1034,9.5054
11,8,1,3,2,30.830,30830,2.6300,8.1800,0.1300,8.5934,0.0295,-0.0142,-0.1265,-16.00,89.38,86.19,2.3502,9.0834,0.1069,9.3831
11,8,1,3,2,30.960,30960,0.9600,8.2500,0.0000,8.3057,-0.0109,-0.0153,-0.2062,-14.69,89.31,84.88,2.1670,8.9735,0.0928,9.2320
11,8,1,3,2,31.133,31133,1.9100,9.5400,-0.0200,9.7293,-0.0447,-0.0065,-0.2116,-13.50,89.50,83.75,2.1332,9.0482,0.0780,9.2966
11,8,1,3,2,31.263,31263,2.1500,9.4400,-0.0900,9.6822,-0.0720,0.0011,0.0175,-13.19,89.88,83.50,2.1354,9.0998,0.0558,9.3472
11,8,1,3,2,31.394,31394,2.1600,9.3800,-0.1000,9.6260,-0.0884,0.0218,-0.3338,-12.06,90.44,82.44,2.1386,9.1367,0.0353,9.3838
11,8,1,3,2,31.524,31524,1.5200,9.5200,-0.2200,9.6431,-0.0742,0.0295,-0.4080,-9.00,91.00,79.31,2.0571,9.1872,0.0017,9.4147
11,8,1,3,2,31.654,31654,0.8200,10.4700,-0.3700,10.5086,-0.0818,0.0000,-0.3545,-6.31,91.63,76.63,1.8941,9.3563,-0.0473,9.5462
11,8,1,3,2,31.784,31784,0.5600,10.2400,-0.3900,10.2627,-0.0578,-0.0065,-0.2705,-4.19,92.19,74.56,1.7183,9.4727,-0.0925,9.6278
11,8,1,3,2,31.914,31914,-0.3800,9.6200,-0.6600,9.6501,-0.0753,0.0240,-0.3916,-1.50,92.56,73.06,1.4418,9.4921,-0.1673,9.6025
11,8,1,3,2,32.044,32044,0.4000,10.1300,-0.5300,10.1517,-0.0731,0.0120,0.2585,-1.94,93.13,73.63,1.3045,9.5762,-0.2151,9.6670
11,8,1,3,2,32.217,32217,0.2800,10.7300,-0.7200,10.7578,-0.0262,0.0022,-0.3491,-1.50,93.56,73.25,1.1695,9.7282,-0.2816,9.8023
11,8,1,3,2,32.348,32348,-0.3900,11.1500,-0.6300,11.1746,0.0393,-0.0425,-0.0393,0.69,93.50,71.56,0.9640,9.9156,-0.3275,9.9677
11,8,1,3,2,32.478,32478,-0.0200,11.2600,-0.5700,11.2744,0.0731,-0.0338,0.1200,0.25,93.06,72.69,0.8343,10.0927,-0.3595,10.1335
11,8,1,3,2,32.608,32608,-0.4400,10.7200,-0.2400,10.7317,0.1167,-0.0142,-0.0273,0.25,92.44,73.13,0.6664,10.1754,-0.3437,10.2030
11,8,1,3,2,32.738,32738,-0.3700,10.4100,-0.3600,10.4228,0.1189,0.0371,0.0665,0.44,91.56,73.06,0.5298,10.2063,-0.3459,10.2259
11,9,1,3,2,32.868,32868,-1.0200,9.7900,-0.1300,9.8439,0.0993,0.0349,-0.4843,1.81,90.81,71.56,0.3256,10.1515,-0.3174,10.1616
11,9,1,3,2,32.998,32998,-0.7800,10.0000,-0.3700,10.0372,0.0589,0.0153,0.6316,2.00,90.13,71.75,0.1799,10.1315,-0.3243,10.1383
11,9,1,3,2,33.128,33128,0.2400,8.3100,0.1700,8.3152,0.0785,-0.0447,0.9447,-4.00,89.56,78.00,0.1878,9.8915,-0.2592,9.8966
11,9,1,3,2,33.301,33301,3.0700,8.3300,0.2100,8.8802,0.0295,-0.0567,0.9654,-13.75,89.13,87.81,0.5676,9.6857,-0.1974,9.7043
11,9,1,3,2,33.431,33431,2.6400,7.9300,0.1400,8.3591,0.0011,-0.0469,0.2214,-16.94,88.94,91.00,0.8407,9.4544,-0.1529,9.4929
11,9,1,3,2,33.562,33562,3.3500,7.9900,0.0300,8.6639,-0.0382,-0.0273,0.4396,-19.00,89.00,92.63,1.1714,9.2614,-0.1288,9.3361
11,9,1,3,2,33.693,33693,3.5900,8.9400,0.2800,9.6380,-0.1025,0.0000,0.3098,-20.88,89.50,94.00,1.4901,9.2190,-0.0749,9.3390
11,9,1,3,2,33.823,33823,3.7400,8.7700,0.1500,9.5354,-0.0709,0.0065,0.2716,-23.06,90.06,95.69,1.7866,9.1599,-0.0453,9.3326
11,9,1,3,2,33.953,33953,4.5500,9.2500,0.3000,10.3129,-0.0207,0.0207,0.3218,-25.25,90.44,97.19,2.1507,9.1717,0.0002,9.4205
11,9,1,3,2,34.083,34083,4.4000,8.8800,0.0700,9.9106,0.0175,0.0436,-0.0665,-26.13,90.44,97.44,2.4471,9.1333,0.0094,9.4555
11,9,1,3,2,34.213,34213,4.2700,8.6400,-0.0700,9.6378,0.0229,0.0524,-0.1254,-25.25,90.44,95.56,2.6873,9.0683,-0.0011,9.4581
11,9,1,3,2,34.386,34386,3.9300,8.4800,0.0400,9.3465,-0.0033,0.0524,-0.3076,-23.25,90.56,92.81,2.8511,8.9908,0.0043,9.4320
11,9,1,3,2,34.517,34517,3.1700,8.7100,-0.0600,9.2691,-0.0131,0.0425,-0.2214,-21.13,90.75,90.31,2.8931,8.9538,-0.0041,9.4096
11,9,1,3,2,34.647,34647,2.5800,7.7700,-0.1000,8.1878,-0.0153,0.0458,-0.3392,-19.81,91.00,88.69,2.8518,8.7978,-0.0168,9.2485
11,9,1,3,2,34.778,34778,2.4800,8.7700,-0.1800,9.1157,-0.0218,0.0491,-0.1418,-18.13,91.19,86.56,2.8028,8.7941,-0.0383,9.2301
11,9,1,3,2,34.908,34908,2.6600,8.8200,-0.0800,9.2127,0.0033,0.0654,-0.3720,-16.25,91.31,84.44,2.7840,8.7975,-0.0438,9.2276
11,9,1,3,2,35.039,35039,1.8300,9.5500,-0.2800,9.7278,-0.0262,0.0502,-0.2716,-13.38,91.56,81.19,2.6583,8.8967,-0.0749,9.2856
11,9,1,3,2,35.169,35169,2.2600,9.6400,-0.3200,9.9065,-0.0327,0.0316,-0.1004,-12.75,91.88,80.38,2.6058,8.9946,-0.1072,9.3651
11,9,1,3,2,35.299,35299,1.5400,9.4300,-0.6400,9.5763,-0.0436,0.0327,-0.3545,-10.88,92.19,78.31,2.4654,9.0520,-0.1774,9.3834
11,9,1,3,2,35.472,35472,1.5000,9.8300,-0.4000,9.9518,-0.0393,0.0218,-0.2727,-8.44,92.75,75.69,2.3382,9.1545,-0.2067,9.4507
11,9,1,3,2,35.603,35603,0.4800,9.4900,-0.5200,9.5163,-0.0382,0.0131,-0.3272,-6.00,93.06,73.19,2.0933,9.1987,-0.2480,9.4372
11,9,1,3,2,35.737,35737,0.8200,10.8700,-0.8000,10.9302,-0.0262,0.0382,0.1178,-5.44,93.31,72.50,1.9255,9.4190,-0.3208,9.6191
11,9,1,3,2,35.867,35867,0.9300,10.2300,-0.7100,10.2967,-0.0469,0.0229,-0.2378,-4.81,93.50,71.63,1.7943,9.5258,-0.3720,9.7005
11,9,1,3,2,35.998,35998,0.6800,9.8500,0.0100,9.8734,-0.0447,0.0295,-1.1934,-1.44,93.69,68.25,1.6475,9.5686,-0.3217,9.7147
11,9,1,3,2,36.129,36129,-1.4600,11.3100,-0.9700,11.4450,0.0185,-0.1320,-0.9425,6.06,93.75,62.69,1.2380,9.7980,-0.4071,9.8843
11,9,1,3,2,36.259,36259,-1.0400,11.5700,-0.8300,11.6463,0.0196,-0.0513,0.5607,5.31,93.75,65.38,0.9378,10.0315,-0.4629,10.0859
11,9,1,3,2,36.389,36389,0.0400,10.1900,-0.6100,10.2083,0.0578,0.0055,0.3818,2.06,93.31,69.13,0.8195,10.0524,-0.4822,10.0973
11,9,1,3,2,36.562,36562,-0.3000,10.6200,-0.6600,10.6447,0.0873,-0.0415,0.0938,1.38,92.56,70.81,0.6720,10.1272,-0.5057,10.1621
11,10,1,3,2,36.693,36693,0.1400,9.5600,-0.2700,9.5648,0.0774,-0.0251,0.3480,0.13,91.94,72.63,0.6019,10.0525,-0.4746,10.0816
11,10,1,3,2,36.824,36824,0.2700,8.8000,-0.3400,8.8107,0.0524,-0.0098,0.5443,-2.88,91.44,76.00,0.5582,9.8874,-0.4569,9.9137
11,10,1,3,2,36.955,36955,0.9100,8.2800,-0.3200,8.3360,0.0371,-0.0120,0.2225,-5.94,91.06,79.06,0.6045,9.6756,-0.4388,9.7044
11,10,1,3,2,37.085,37085,0.8200,8.0900,-0.1800,8.1334,0.0502,-0.0065,0.3371,-7.19,90.81,80.19,0.6329,9.4667,-0.4047,9.4964
11,10,1,3,2,37.216,37216,1.3400,8.8900,-0.1500,8.9917,0.0349,-0.0044,0.5705,-10.88,90.50,83.75,0.7261,9.3907,-0.3712,9.4260
11,10,1,3,2,37.346,37346,3.3300,9.0400,0.0400,9.6339,0.0425,0.0087,0.6796,-15.56,90.25,87.88,1.0692,9.3445,-0.3170,9.4108
11,10,1,3,2,37.477,37477,3.0200,8.6900,0.1100,9.2005,-0.0131,0.0218,0.1625,-18.00,90.13,89.69,1.3263,9.2582,-0.2607,9.3564
11,10,1,3,2,37.654,37654,3.8500,9.3200,-0.0400,10.0840,-0.0513,0.0087,-0.0382,-19.31,90.38,90.13,1.6588,9.2664,-0.2316,9.4165
11,10,1,3,2,37.784,37784,3.5100,9.1300,-0.1000,9.7820,-0.0305,0.0022,-0.0960,-19.13,90.63,89.56,1.9028,9.2484,-0.2143,9.4445
11,10,1,3,2,37.915,37915,2.7500,9.0500,-0.1700,9.4601,-0.0196,0.0087,0.0415,-18.63,90.81,88.94,2.0144,9.2223,-0.2085,9.4420
11,10,1,3,2,38.045,38045,3.3500,9.1300,-0.2000,9.7273,-0.0284,0.0087,0.0513,-19.06,91.00,89.31,2.1904,9.2101,-0.2073,9.4693
11,10,1,3,2,38.176,38176,3.4000,9.3600,-0.0900,9.9588,-0.0153,-0.0022,0.1396,-19.63,91.19,89.63,2.3498,9.2298,-0.1919,9.5262
11,10,1,3,2,38.307,38307,3.1600,9.1700,-0.0800,9.6995,0.0033,0.0087,-0.1124,-19.56,91.25,89.44,2.4566,9.2220,-0.1771,9.5452
11,10,1,3,2,38.437,38437,2.9500,9.1300,-0.3000,9.5994,0.0098,-0.0273,-0.2313,-18.25,91.19,87.88,2.5216,9.2098,-0.1933,9.5508
11,10,1,3,2,38.567,38567,0.4100,9.2400,-1.2200,9.3292,-0.0556,-0.0295,-0.0316,-17.19,91.06,87.13,2.2433,9.2138,-0.3286,9.4887
11,10,1,3,2,38.740,38740,2.3600,8.5300,0.4500,8.8619,-0.0567,0.0338,-0.2214,-17.94,92.06,87.81,2.2587,9.1237,-0.2260,9.4019
11,10,1,3,2,38.871,38871,1.5900,7.8500,-0.4400,8.0215,-0.0327,0.0273,-0.5629,-15.69,92.38,85.44,2.1706,8.9559,-0.2542,9.2187
11,10,1,3,2,39.001,39001,1.9100,9.7200,-0.6600,9.9278,-0.0087,0.0644,-0.2858,-12.81,92.44,82.25,2.1363,9.0566,-0.3077,9.3102
11,10,1,3,2,39.131,39131,1.7200,9.4400,-0.4800,9.6074,0.0535,0.0818,-0.2356,-11.19,92.25,80.06,2.0814,9.1071,-0.3304,9.3477
11,10,1,3,2,39.261,39261,1.6800,9.9300,-0.2600,10.0745,0.0796,0.0698,-0.0764,-10.44,91.88,78.63,2.0285,9.2155,-0.3211,9.4416
11,10,1,3,2,39.391,39391,1.8700,9.5600,-0.1700,9.7427,0.0436,0.0622,-0.1396,-10.06,91.56,77.69,2.0076,9.2609,-0.3012,9.4808
11,10,1,3,2,39.521,39521,1.1600,9.7300,-0.2500,9.8021,0.0055,0.0535,-0.2553,-7.94,91.44,75.13,1.8959,9.3227,-0.2945,9.5181
11,10,1,3,2,39.651,39651,1.2300,10.1100,-0.3200,10.1896,-0.0153,0.0338,-0.0524,-7.50,91.56,74.38,1.8082,9.4265,-0.2978,9.6029
11,10,1,3,2,39.824,39824,0.9900,10.1000,-0.3500,10.1544,-0.0469,-0.0087,-0.1342,-5.75,92.00,72.63,1.7004,9.5152,-0.3047,9.6708
11,10,1,3,2,39.954,39954,0.9900,10.2400,-0.5600,10.3030,-0.0240,-0.0676,-0.0971,-5.06,92.19,72.19,1.6068,9.6107,-0.3383,9.7500
11,10,1,3,2,40.084,40084,-0.1200,10.0100,-0.4300,10.0200,-0.0196,-0.1342,-0.4887,-2.81,92.31,70.75,1.3792,9.6633,-0.3504,9.7676
11,10,1,3,2,40.214,40214,-0.3900,10.5300,-0.1300,10.5380,-0.0185,-0.1396,-0.0382,-1.25,92.31,70.63,1.1461,9.7775,-0.3214,9.8497
11,10,1,3,2,40.344,40344,0.2600,11.0700,-0.7300,11.0971,-0.0218,-0.1309,-0.0240,-2.25,92.31,73.75,1.0293,9.9479,-0.3752,10.0080
11,10,1,3,2,40.474,40474,-0.3300,11.5300,-0.4500,11.5435,0.0065,-0.0611,-0.0894,-1.13,92.38,73.81,0.8502,10.1563,-0.3851,10.1991
11,10,1,3,2,40.605,40605,-0.0300,10.9100,-0.4300,10.9185,0.0251,0.0011,0.2869,-2.00,92.31,75.31,0.7342,10.2557,-0.3910,10.2893
11,10,1,3,2,40.735,40735,0.3000,10.2400,-0.3100,10.2491,0.0327,0.0327,0.2705,-4.06,92.13,77.56,0.6770,10.2536,-0.3803,10.2830
11,10,1,3,2,40.908,40908,1.5000,9.8000,-0.0500,9.9143,0.0404,0.0142,0.3458,-7.13,91.75,80.44,0.7854,10.1938,-0.3368,10.2296
11,10,1,3,2,41.039,41039,1.3900,9.2000,-0.2700,9.3083,0.0175,-0.0262,-0.2443,-7.25,91.56,80.69,0.8651,10.0629,-0.3280,10.1053
11,10,1,3,2,41.169,41169,-0.2200,8.7100,-0.6300,8.7355,0.0502,-0.0698,-0.1604,-5.25,91.25,79.00,0.7221,9.8846,-0.3678,9.9178
11,10,1,3,2,41.299,41299,0.7400,7.0700,-0.6300,7.1365,0.0382,-0.0665,0.4156,-7.56,90.94,81.81,0.7245,9.5137,-0.4023,9.5497
11,10,1,3,2,41.429,41429,0.7700,9.1000,-0.4900,9.1457,-0.0153,-0.0164,0.9621,-11.50,90.81,85.94,0.7305,9.4592,-0.4139,9.4964
11,10,1,3,2,41.559,41559,2.7300,8.6300,0.2100,9.0539,-0.0535,0.0240,0.1429,-18.81,91.06,92.75,0.9940,9.3499,-0.3317,9.4085
