participant,rep,equipment_code,exercise_code,quality_code,timestamp,timestamp_ms,accelX,accelY,accelZ,accelMag,gyroX,gyroY,gyroZ,roll,pitch,yaw,filteredX,filteredY,filteredZ,filteredMag
11,1,1,3,2,00.000,0,-0.6300,9.6000,0.8300,9.6564,-0.0076,-0.0469,0.0785,5.00,84.63,65.50,-0.9065,9.4961,0.9307,9.5846
11,1,1,3,2,00.130,130,-0.7200,9.2500,0.7900,9.3116,-0.0065,-0.0502,-0.1614,5.25,84.69,65.63,-0.8819,9.4637,0.9121,9.5484
11,1,1,3,2,00.260,260,-1.0500,8.5800,0.6300,8.6669,-0.0076,-0.0600,-0.2302,7.13,84.75,64.13,-0.9041,9.3473,0.8750,9.4315
11,1,1,3,2,00.433,433,-1.9900,8.8300,0.8100,9.0876,-0.0327,-0.1047,-0.3840,9.38,85.13,62.63,-1.0472,9.2791,0.8664,9.3781
11,1,1,3,2,00.564,564,-2.1300,9.3400,0.7700,9.6107,0.0185,-0.0349,0.0338,10.50,85.25,62.00,-1.1899,9.2871,0.8537,9.4019
11,1,1,3,2,00.694,694,-1.4400,9.4000,0.9000,9.5522,-0.0055,-0.0295,0.0142,9.69,85.19,63.00,-1.2228,9.3020,0.8598,9.4213
11,1,1,3,2,00.824,824,-1.8400,9.6600,0.6700,9.8565,0.0480,-0.0076,-0.1800,9.94,85.06,62.88,-1.3042,9.3492,0.8348,9.4765
11,1,1,3,2,00.955,955,-1.5400,8.9400,0.7900,9.1060,0.0644,0.0044,-0.1091,10.06,84.56,62.88,-1.3352,9.2953,0.8289,9.4272
11,1,1,3,2,01.085,1085,-1.6100,9.6400,0.9500,9.8196,-0.0120,0.0087,-0.0153,10.25,84.38,62.63,-1.3714,9.3407,0.8448,9.4786
11,1,1,3,2,01.216,1216,-1.6700,9.9100,0.9900,10.0984,0.0065,0.0033,-0.2651,10.56,84.31,62.31,-1.4108,9.4157,0.8640,9.5599
11,1,1,3,2,01.346,1346,-1.1900,8.8200,1.0400,8.9605,0.0393,-0.0404,-0.0175,12.19,84.13,60.81,-1.3817,9.3372,0.8872,9.4805
11,1,1,3,2,01.519,1519,-2.4300,9.2300,0.8600,9.5832,0.0425,-0.0938,-0.4232,13.38,83.94,60.31,-1.5198,9.3231,0.8836,9.4874
11,1,1,3,2,01.654,1654,-3.0700,8.0300,0.7600,8.6304,0.0185,-0.0382,0.0720,15.13,83.81,59.19,-1.7241,9.1527,0.8673,9.3539
11,1,1,3,2,01.785,1785,-3.2300,9.2200,0.7000,9.7945,-0.0240,-0.0382,0.0840,15.19,83.94,59.31,-1.9225,9.1616,0.8453,9.3992
11,1,1,3,2,01.915,1915,-2.4600,10.5700,1.3300,10.9337,-0.0229,-0.0251,0.3153,12.38,84.19,62.44,-1.9934,9.3472,0.9091,9.6005
11,1,1,3,2,02.046,2046,-2.0300,10.3300,1.0000,10.5750,-0.0905,-0.1167,-0.3894,12.56,84.69,62.56,-1.9982,9.4767,0.9211,9.7287
11,1,1,3,2,02.176,2176,-2.2800,9.6800,0.6600,9.9668,-0.0742,-0.1604,0.2651,13.06,85.56,63.06,-2.0353,9.5035,0.8867,9.7593
11,1,1,3,2,02.307,2307,-2.0100,10.2100,0.3800,10.4129,-0.0404,-0.0687,0.1800,11.25,86.25,65.50,-2.0320,9.5966,0.8199,9.8435
11,1,1,3,2,02.437,2437,-1.9600,9.9400,0.4400,10.1409,0.0676,-0.0131,-0.2051,11.06,86.19,66.00,-2.0225,9.6418,0.7699,9.8817
11,1,1,3,2,02.610,2610,-1.8400,8.8400,0.8200,9.0666,0.1124,0.0360,0.3392,11.50,85.19,65.56,-1.9985,9.5362,0.7765,9.7742
11,1,1,3,2,02.740,2740,-1.1000,9.2800,0.9900,9.3973,0.0993,-0.0109,0.3272,9.06,84.50,68.00,-1.8801,9.5024,0.8046,9.7200
11,1,1,3,2,02.870,2870,-1.3200,8.9000,0.9100,9.0433,0.0065,-0.0502,0.1942,7.44,84.06,70.00,-1.8063,9.4230,0.8185,9.6294
11,1,1,3,2,03.000,3000,-0.5400,9.1800,1.0200,9.2523,-0.0545,-0.0327,0.2662,4.94,84.31,72.75,-1.6394,9.3910,0.8450,9.5704
11,1,1,3,2,03.130,3130,-0.5500,9.5700,0.9500,9.6328,-0.0764,-0.0120,0.1560,4.06,84.75,73.75,-1.4958,9.4146,0.8589,9.5713
11,1,1,3,2,03.260,3260,-0.5700,9.6500,0.6100,9.6860,-0.0753,-0.0164,0.1276,3.19,85.38,74.69,-1.3738,9.4456,0.8261,9.5807
11,1,1,3,2,03.390,3390,-0.4400,8.1200,0.6200,8.1555,0.0240,-0.0153,-0.3392,3.50,85.63,73.94,-1.2508,9.2709,0.7989,9.3890
11,1,1,3,2,03.520,3520,-0.5700,9.8100,0.6100,9.8455,0.1091,0.0175,0.5956,3.00,85.06,74.31,-1.1611,9.3420,0.7740,9.4456
11,1,1,3,2,03.693,3693,-0.8500,9.4200,0.8900,9.5001,0.0371,0.0164,-0.0960,3.69,84.31,73.50,-1.1201,9.3522,0.7893,9.4521
11,1,1,3,2,03.824,3824,-0.7100,9.1600,0.8500,9.2267,0.0022,0.0469,0.0109,3.00,84.19,73.88,-1.0660,9.3269,0.7973,9.4214
11,1,1,3,2,03.954,3954,0.3300,9.8100,0.8300,9.8506,-0.0196,0.0262,0.1014,2.19,84.31,74.19,-0.8821,9.3906,0.8016,9.4659
11,1,1,3,2,04.085,4085,0.8700,8.8700,1.0700,8.9766,0.0513,-0.0993,0.0295,1.13,84.25,75.25,-0.6512,9.3220,0.8370,9.3821
11,1,1,3,2,04.216,4216,2.1000,9.7700,0.9400,10.0373,0.0295,-0.1625,0.6010,0.56,84.06,76.75,-0.2887,9.3810,0.8506,9.4239
11,1,1,3,2,04.349,4349,-1.5300,9.0600,1.0800,9.2515,0.0720,-0.0785,0.0807,4.19,83.75,73.94,-0.4522,9.3387,0.8808,9.3911
11,1,1,3,2,04.480,4480,-0.4500,8.7000,0.7700,8.7456,0.0098,-0.0360,-0.4145,5.88,83.31,72.69,-0.4519,9.2545,0.8662,9.3060
11,1,1,3,2,04.613,4613,-1.3600,8.7300,1.4100,8.9471,-0.0218,-0.0305,-0.5389,9.88,83.50,69.00,-0.5716,9.1854,0.9379,9.2509
11,1,1,3,2,04.786,4786,-4.1600,8.1700,0.5600,9.1852,-0.0545,0.0044,-0.6796,16.94,83.50,62.13,-1.0445,9.0516,0.8881,9.1549
11,2,1,3,2,04.916,4916,-3.9100,9.3000,1.2500,10.1657,-0.0273,0.1276,-0.0262,17.63,83.69,61.63,-1.4221,9.0843,0.9358,9.2425
11,2,1,3,2,05.046,5046,-3.2300,9.4900,0.9000,10.0649,-0.0633,0.1331,-0.0676,17.56,83.69,61.25,-1.6603,9.1378,0.9310,9.3340
11,2,1,3,2,05.176,5176,-3.1200,9.1800,0.8600,9.7338,-0.0382,0.1047,-0.0076,17.69,83.88,60.31,-1.8527,9.1434,0.9217,9.3746
11,2,1,3,2,05.306,5306,-2.3500,9.0500,0.8100,9.3852,0.0098,0.0611,0.3622,16.56,84.00,61.13,-1.9182,9.1311,0.9070,9.3743
11,2,1,3,2,05.436,5436,-2.3400,9.8300,0.8300,10.1387,0.0611,0.0415,0.0535,15.38,83.75,62.25,-1.9738,9.2232,0.8968,9.4745
11,2,1,3,2,05.566,5566,-2.6600,9.9100,1.1700,10.3273,0.2443,0.0556,-0.0120,15.81,82.50,61.75,-2.0642,9.3137,0.9328,9.5852
11,2,1,3,2,05.696,5696,-2.4300,8.6900,1.5800,9.1606,0.2771,0.0305,-0.2269,15.94,80.38,61.75,-2.1124,9.2315,1.0181,9.5247
11,2,1,3,2,05.869,5869,-3.1700,9.3900,2.0600,10.1225,0.1353,-0.0316,0.2203,15.69,78.50,62.50,-2.2518,9.2524,1.1554,9.5923
11,2,1,3,2,05.999,5999,-2.5200,8.6200,2.0200,9.2052,0.1080,-0.0709,0.0327,14.63,77.75,64.25,-2.2871,9.1690,1.2693,9.5349
11,2,1,3,2,06.129,6129,-2.1200,8.4800,1.9200,8.9494,0.0284,-0.0556,0.1222,14.25,77.38,65.25,-2.2651,9.0782,1.3551,9.4542
11,2,1,3,2,06.259,6259,-3.7400,8.2900,2.1700,9.3499,0.0164,-0.0284,-0.4636,16.19,77.13,63.63,-2.4594,8.9744,1.4625,9.4195
11,2,1,3,2,06.389,6389,-2.8000,8.2600,2.0500,8.9594,-0.0971,0.0502,0.1811,15.88,77.38,63.75,-2.5043,8.8802,1.5399,9.3542
11,2,1,3,2,06.519,6519,-2.3500,9.9400,2.1400,10.4358,-0.0622,0.0611,-0.0065,14.44,78.00,64.56,-2.4840,9.0199,1.6190,9.4947
11,2,1,3,2,06.649,6649,-3.2800,9.4900,1.8800,10.2153,0.0065,-0.0218,0.0829,15.44,78.00,63.44,-2.5889,9.0818,1.6534,9.5873
11,2,1,3,2,06.779,6779,-3.4300,9.7700,2.0000,10.5460,-0.0076,0.0044,-0.1549,15.69,78.06,63.38,-2.6997,9.1725,1.6990,9.7114
11,2,1,3,2,06.952,6952,-2.4000,8.9900,2.0000,9.5174,0.0055,-0.0218,-0.0894,15.50,77.94,63.44,-2.6602,9.1485,1.7387,9.6847
11,2,1,3,2,07.083,7083,-3.0500,8.9900,1.8800,9.6777,0.0098,-0.0480,0.0196,15.63,77.94,63.63,-2.7116,9.1276,1.7573,9.6826
11,2,1,3,2,07.213,7213,-2.4400,9.5700,2.3200,10.1450,0.0022,0.0087,-0.0796,14.88,78.00,64.50,-2.6758,9.1859,1.8315,9.7414
11,2,1,3,2,07.344,7344,-2.8700,9.3000,2.1000,9.9568,-0.0327,-0.0098,0.0818,16.06,78.00,63.25,-2.7014,9.2009,1.8669,9.7693
11,2,1,3,2,07.475,7475,-3.2800,9.1600,1.7700,9.8892,-0.0927,-0.0131,0.0338,16.13,78.56,63.19,-2.7776,9.1955,1.8541,9.7832
11,2,1,3,2,07.605,7605,-2.9900,9.5200,1.6400,10.1124,-0.0742,0.0382,0.1789,15.44,79.25,63.69,-2.8056,9.2383,1.8259,9.8261
11,2,1,3,2,07.736,7736,-3.0600,9.4800,1.7400,10.1124,-0.0393,0.0905,0.1985,14.88,79.56,63.81,-2.8391,9.2701,1.8146,9.8635
11,2,1,3,2,07.866,7866,-2.0700,9.1100,1.6600,9.4886,-0.0633,0.0753,0.3185,12.56,79.81,65.50,-2.7378,9.2490,1.7942,9.8112
11,2,1,3,2,08.039,8039,-1.1100,9.1300,1.5300,9.3236,-0.0862,0.0447,0.3240,9.06,80.56,68.31,-2.5233,9.2334,1.7594,9.7323
11,2,1,3,2,08.173,8173,-0.9400,8.0900,1.5300,8.2869,-0.0753,0.0262,0.2443,7.19,81.13,69.94,-2.3147,9.0827,1.7292,9.5311
11,2,1,3,2,08.304,8304,-0.8300,8.1200,1.3200,8.2684,-0.1724,0.0676,0.0600,5.63,81.94,70.44,-2.1190,8.9558,1.6752,9.3543
11,2,1,3,2,08.434,8434,-1.0400,9.2800,1.2900,9.4268,-0.1353,0.0633,0.0469,5.44,82.94,69.25,-1.9768,8.9985,1.6245,9.3552
11,2,1,3,2,08.565,8565,1.3900,9.7400,0.9600,9.8854,0.0044,0.0295,0.1298,2.00,83.31,72.25,-1.5332,9.0963,1.5369,9.3517
11,3,1,3,2,08.695,8695,-1.0600,9.5800,0.7400,9.6668,0.0524,-0.0415,0.1156,4.88,83.19,69.06,-1.4708,9.1600,1.4319,9.3872
11,3,1,3,2,08.826,8826,-0.2300,9.5400,1.2300,9.6217,0.0644,-0.0262,0.0774,3.25,82.81,71.00,-1.3073,9.2101,1.4053,9.4079
11,3,1,3,2,08.956,8956,-0.7900,9.2600,1.3300,9.3883,0.0644,-0.0098,-0.1462,4.31,82.44,69.88,-1.2391,9.2167,1.3954,9.4037
11,3,1,3,2,09.129,9129,-0.4600,9.2700,1.3300,9.3762,0.0044,-0.0196,0.0785,3.63,82.06,70.63,-1.1365,9.2237,1.3868,9.3963
11,3,1,3,2,09.259,9259,-0.9000,9.6100,1.5000,9.7679,0.0251,-0.0087,0.0229,3.75,81.94,70.50,-1.1053,9.2746,1.4017,9.4448
11,3,1,3,2,09.389,9389,-0.3500,9.3600,1.4100,9.4721,0.0153,0.0044,0.0349,2.88,81.75,71.31,-1.0058,9.2858,1.4028,9.4449
11,3,1,3,2,09.519,9519,-0.3300,9.4600,1.4000,9.5687,-0.0218,0.0098,0.0654,2.69,81.75,71.38,-0.9167,9.3088,1.4024,9.4584
11,3,1,3,2,09.649,9649,-0.4100,9.6900,1.3100,9.7867,-0.0273,0.0109,-0.0284,2.56,81.94,71.25,-0.8500,9.3590,1.3902,9.4998
11,3,1,3,2,09.779,9779,-0.1400,9.3200,1.3800,9.4227,-0.0055,0.0109,-0.0567,2.63,82.00,71.00,-0.7564,9.3539,1.3889,9.4866
11,3,1,3,2,09.909,9909,-1.2400,9.3500,1.3200,9.5238,0.0305,0.0295,-0.1702,4.31,81.88,69.13,-0.8201,9.3534,1.3798,9.4901
11,3,1,3,2,10.039,10039,-0.6200,8.7600,1.2100,8.8649,0.0022,0.0338,-0.2803,5.19,81.69,68.00,-0.7938,9.2752,1.3574,9.4075
11,3,1,3,2,10.212,10212,-0.7000,9.4000,1.3500,9.5222,-0.0022,0.0131,-0.1647,6.25,81.75,66.75,-0.7814,9.2916,1.3565,9.4226
11,3,1,3,2,10.342,10342,-1.2500,9.8100,1.3400,9.9797,0.1320,0.0065,-0.3000,8.06,81.31,64.81,-0.8431,9.3599,1.3543,9.4949
11,3,1,3,2,10.472,10472,-1.9900,8.6200,1.6600,9.0011,0.0785,-0.0251,-0.2280,10.50,80.31,62.56,-0.9943,9.2624,1.3946,9.4195
11,3,1,3,2,10.602,10602,-1.7800,9.0900,1.7100,9.4192,-0.0120,-0.0251,0.0120,10.81,80.06,62.50,-1.0978,9.2397,1.4361,9.4149
11,3,1,3,2,10.732,10732,-1.7300,9.5000,1.4800,9.7690,0.0076,-0.0469,-0.1025,11.13,80.25,62.44,-1.1811,9.2740,1.4419,9.4595
11,3,1,3,2,10.862,10862,-1.7500,9.2400,1.4400,9.5139,0.0644,-0.0502,-0.0971,11.38,80.00,62.69,-1.2561,9.2695,1.4417,9.4647
11,3,1,3,2,10.992,10992,-2.4000,9.3100,1.8100,9.7833,0.0884,-0.0044,-0.1582,12.69,79.50,61.63,-1.4068,9.2749,1.4902,9.4986
11,3,1,3,2,11.122,11122,-2.5600,9.3200,1.8900,9.8483,0.1080,0.0425,-0.1233,13.94,78.69,60.31,-1.5588,9.2808,1.5429,9.5364
11,3,1,3,2,11.295,11295,-2.9500,8.8500,1.9200,9.5243,0.1145,0.0535,0.0971,14.69,77.44,59.38,-1.7421,9.2240,1.5926,9.5212
11,3,1,3,2,11.425,11425,-2.5200,8.8900,2.2600,9.5126,0.0087,0.0175,-0.0360,14.31,77.00,59.56,-1.8446,9.1800,1.6805,9.5131
11,3,1,3,2,11.555,11555,-2.5100,9.0800,2.1400,9.6605,-0.0153,-0.0545,0.0578,14.06,77.00,60.00,-1.9323,9.1668,1.7411,9.5287
11,3,1,3,2,11.685,11685,-2.6900,9.1400,2.1200,9.7606,-0.0109,-0.0720,0.0458,13.81,77.19,60.69,-2.0321,9.1633,1.7910,9.5553
11,3,1,3,2,11.815,11815,-3.0300,9.2200,2.2000,9.9513,0.0109,-0.0371,0.0851,14.06,77.31,60.94,-2.1636,9.1708,1.8449,9.6015
11,3,1,3,2,11.945,11945,-2.5200,9.5300,2.1300,10.0850,-0.0393,0.0164,0.1724,13.44,77.38,61.63,-2.2106,9.2181,1.8825,9.6646
11,3,1,3,2,12.075,12075,-1.8900,9.9400,2.1600,10.3461,-0.0393,-0.0131,-0.0785,12.19,77.75,62.75,-2.1683,9.3132,1.9190,9.7530
11,3,1,3,2,12.205,12205,-2.9400,10.7700,2.2400,11.3866,-0.0633,-0.0687,0.0415,12.06,78.19,63.19,-2.2700,9.5052,1.9613,9.9674
11,3,1,3,2,12.378,12378,-2.0100,9.6800,1.9000,10.0674,-0.0502,-0.0360,0.1167,10.63,78.94,65.06,-2.2358,9.5282,1.9533,9.9800
11,3,1,3,2,12.509,12509,-1.3600,9.3600,1.9600,9.6592,-0.0316,-0.0131,0.0284,9.44,79.31,66.31,-2.1204,9.5061,1.9541,9.9338
11,3,1,3,2,12.639,12639,-2.1100,8.8200,1.6000,9.2089,-0.0415,0.0480,-0.0262,10.13,79.44,65.50,-2.1190,9.4157,1.9075,9.8378
11,3,1,3,2,12.769,12769,-1.6400,9.1000,1.7500,9.4107,-0.1036,0.0927,0.0971,9.63,79.94,65.38,-2.0559,9.3741,1.8867,9.7806
11,3,1,3,2,12.900,12900,-1.4600,9.2400,1.5900,9.4888,-0.1102,0.0993,0.1745,8.44,80.63,65.81,-1.9774,9.3564,1.8476,9.7399
11,3,1,3,2,13.030,13030,-0.4200,9.0600,1.4800,9.1897,-0.1069,0.0753,0.3752,5.88,81.38,67.69,-1.7721,9.3173,1.7992,9.6535
11,3,1,3,2,13.161,13161,-0.7500,9.2500,1.5900,9.4156,-0.0600,0.0371,0.0654,4.88,81.94,68.25,-1.6374,9.3085,1.7716,9.6160
11,3,1,3,2,13.291,13291,-0.6600,8.4200,1.3700,8.5562,-0.0513,-0.0098,0.2149,4.00,82.19,69.00,-1.5086,9.1914,1.7187,9.4716
11,3,1,3,2,13.468,13468,0.5200,8.9000,0.9800,8.9689,-0.0720,-0.0938,0.2105,1.63,82.88,71.75,-1.2413,9.1530,1.6214,9.3780
11,4,1,3,2,13.598,13598,1.2100,10.2300,1.2200,10.3733,0.0098,-0.1647,0.3567,-0.63,83.13,75.13,-0.9183,9.2949,1.5685,9.4709
11,4,1,3,2,13.730,13730,-0.9600,9.4600,0.6600,9.5315,0.0164,-0.1440,0.1887,1.56,83.13,74.13,-0.9238,9.3167,1.4488,9.4738
11,4,1,3,2,13.860,13860,0.2200,9.4200,1.2500,9.5051,0.0262,-0.0676,0.1702,-0.31,83.00,76.88,-0.7731,9.3303,1.4226,9.4697
11,4,1,3,2,13.991,13991,-0.4200,9.6600,1.1000,9.7315,-0.0458,-0.0055,0.0371,0.38,83.13,76.31,-0.7265,9.3737,1.3801,9.5026
11,4,1,3,2,14.121,14121,-0.2900,9.7200,1.2000,9.7981,-0.0109,0.0196,-0.1582,0.31,83.31,76.31,-0.6690,9.4194,1.3563,9.5400
11,4,1,3,2,14.251,14251,0.4000,9.8100,1.2200,9.8937,0.0142,0.0338,0.2149,-0.19,83.31,76.69,-0.5281,9.4708,1.3384,9.5795
11,4,1,3,2,14.382,14382,0.0200,9.6300,1.1000,9.6926,0.0207,0.0044,-0.0764,-0.19,83.19,76.56,-0.4559,9.4918,1.3070,9.5922
11,4,1,3,2,14.554,14554,0.2800,9.5400,1.1500,9.6131,0.0295,0.0022,-0.0360,-0.38,82.94,76.69,-0.3589,9.4982,1.2863,9.5916
11,4,1,3,2,14.684,14684,-0.0400,9.5900,1.1500,9.6588,0.0142,-0.0120,-0.1047,0.31,82.81,76.00,-0.3169,9.5103,1.2683,9.5997
11,4,1,3,2,14.814,14814,0.2300,9.1000,1.3400,9.2010,0.0273,-0.0153,-0.1985,0.94,82.56,75.38,-0.2448,9.4562,1.2778,9.5453
11,4,1,3,2,14.944,14944,-0.3000,8.9600,1.1400,9.0372,0.0185,-0.0513,-0.1931,2.94,82.44,73.63,-0.2521,9.3908,1.2596,9.4783
11,4,1,3,2,15.074,15074,-0.5200,9.1900,1.2600,9.2905,0.0349,-0.0425,-0.2793,4.50,82.19,72.44,-0.2874,9.3644,1.2597,9.4531
11,4,1,3,2,15.204,15204,-0.8000,9.4900,1.2000,9.5990,0.0556,-0.0644,-0.3916,6.50,81.94,70.81,-0.3550,9.3809,1.2518,9.4707
11,4,1,3,2,15.334,15334,-2.4500,9.5200,1.3700,9.9252,0.1451,-0.0284,-0.5705,9.81,81.25,67.94,-0.6310,9.3992,1.2674,9.5053
11,4,1,3,2,15.465,15465,-1.8100,8.9700,1.7100,9.3092,0.1462,0.0229,-0.0971,11.19,80.00,66.63,-0.7864,9.3427,1.3257,9.4690
11,4,1,3,2,15.638,15638,-2.0200,9.4700,1.8100,9.8508,0.0251,0.0164,-0.0807,12.31,79.25,65.44,-0.9489,9.3595,1.3895,9.5095
11,4,1,3,2,15.768,15768,-2.0900,9.4400,1.7400,9.8239,0.0262,-0.0273,-0.1145,13.31,79.06,64.56,-1.0993,9.3701,1.4357,9.5429
11,4,1,3,2,15.898,15898,-2.8500,9.2900,1.7900,9.8808,0.0491,-0.0284,-0.0611,14.56,78.81,63.63,-1.3300,9.3595,1.4824,9.5691
11,4,1,3,2,16.028,16028,-2.5200,9.3400,2.0500,9.8888,0.0622,-0.0207,-0.0851,14.88,78.38,63.50,-1.4868,9.3569,1.5572,9.6015
11,4,1,3,2,16.158,16158,-2.7200,8.8500,1.9000,9.4515,0.0175,-0.0480,-0.1876,15.75,78.06,62.94,-1.6493,9.2901,1.6024,9.5705
11,4,1,3,2,16.288,16288,-3.1100,8.5500,1.7900,9.2725,-0.0425,-0.0371,-0.2127,17.50,78.13,61.50,-1.8418,9.1926,1.6271,9.5154
11,4,1,3,2,16.418,16418,-3.1800,8.6900,1.6500,9.3995,-0.1004,-0.0327,-0.1058,19.06,78.69,61.13,-2.0181,9.1264,1.6301,9.4879
11,4,1,3,2,16.548,16548,-3.9700,9.0400,1.6200,10.0053,-0.0982,0.0011,0.0207,20.25,79.38,60.19,-2.2753,9.1150,1.6288,9.5348
11,4,1,3,2,16.721,16721,-3.9500,9.4800,1.6300,10.3985,-0.0774,0.0065,0.0022,20.31,80.25,60.00,-2.4960,9.1631,1.6289,9.6357
11,4,1,3,2,16.852,16852,-3.6900,10.2300,1.5900,10.9908,-0.0185,0.0098,-0.0087,19.75,80.50,60.63,-2.6534,9.3037,1.6238,9.8100
11,4,1,3,2,16.982,16982,-4.2100,10.3100,1.5800,11.2480,-0.0164,0.0098,0.1058,19.75,80.63,61.00,-2.8585,9.4363,1.6180,9.9916
11,4,1,3,2,17.113,17113,-3.6100,9.5500,1.3600,10.2997,-0.0229,0.0316,0.0393,19.38,80.81,61.13,-2.9575,9.4513,1.5840,10.0291
11,4,1,3,2,17.243,17243,-3.0900,9.0700,1.5000,9.6986,0.0229,0.0153,0.1320,18.56,80.81,61.75,-2.9750,9.4010,1.5730,9.9852
11,4,1,3,2,17.377,17377,-2.9900,8.7300,1.4800,9.3458,0.0567,0.0338,0.1593,17.31,80.44,63.25,-2.9770,9.3126,1.5607,9.9006
11,4,1,3,2,17.508,17508,-2.7900,8.8700,1.5700,9.4301,-0.0055,0.0654,0.2105,15.88,80.25,64.44,-2.9523,9.2543,1.5619,9.8386
11,4,1,3,2,17.641,17641,-2.1800,9.0300,1.4600,9.4035,-0.0360,0.0491,0.3011,13.69,80.38,66.13,-2.8505,9.2247,1.5485,9.7785
11,4,1,3,2,17.813,17813,-1.7300,8.7800,1.5900,9.0890,-0.0229,0.0142,0.2258,11.44,80.75,68.06,-2.7029,9.1661,1.5540,9.6819
11,4,1,3,2,17.943,17943,-1.7500,7.7500,1.2100,8.0367,-0.0229,0.0000,0.0458,10.56,80.94,68.94,-2.5773,8.9795,1.5086,9.4631
11,4,1,3,2,18.073,18073,-1.2400,8.9000,1.3300,9.0839,-0.0305,0.0305,0.4832,8.69,81.19,70.75,-2.4011,8.9690,1.4851,9.4029
11,5,1,3,2,18.203,18203,-0.7500,10.0800,1.3200,10.1937,-0.0535,0.0295,0.3033,6.50,81.50,72.69,-2.1835,9.1154,1.4633,9.4868
11,5,1,3,2,18.333,18333,-1.9700,9.7000,1.1800,9.9681,-0.0305,-0.0022,-0.3665,6.94,81.81,72.19,-2.1554,9.1925,1.4260,9.5489
11,5,1,3,2,18.463,18463,-0.4600,9.7200,1.3900,9.8297,0.0316,0.0229,0.3033,5.06,81.69,74.00,-1.9320,9.2620,1.4213,9.5675
11,5,1,3,2,18.594,18594,-0.9800,9.3500,1.3100,9.4920,0.0142,0.0360,-0.0349,5.06,81.44,73.69,-1.8065,9.2736,1.4066,9.5520
11,5,1,3,2,18.724,18724,-0.6100,9.6600,1.4200,9.7828,-0.0098,0.0153,0.1494,4.25,81.38,74.44,-1.6489,9.3245,1.4084,9.5733
11,5,1,3,2,18.897,18897,-0.4500,9.5800,1.4400,9.6981,0.0142,-0.0033,0.1636,2.88,81.38,74.88,-1.4909,9.3582,1.4125,9.5809
11,5,1,3,2,19.027,19027,0.2800,9.6500,1.4500,9.7623,0.0218,-0.0338,0.1451,1.38,81.25,76.13,-1.2575,9.3966,1.4175,9.5858
11,5,1,3,2,19.157,19157,0.0600,9.5700,1.5700,9.6981,0.0305,-0.0731,-0.0131,1.19,81.13,76.44,-1.0839,9.4195,1.4376,9.5900
11,5,1,3,2,19.287,19287,0.1900,9.0900,1.5400,9.2215,0.0044,-0.0764,-0.2236,1.38,80.88,76.31,-0.9160,9.3761,1.4511,9.5318
11,5,1,3,2,19.417,19417,-1.6500,9.0200,1.2000,9.2479,-0.0218,-0.0829,-0.6120,4.69,80.88,73.25,-1.0128,9.3291,1.4180,9.4905
11,5,1,3,2,19.547,19547,-1.1700,9.3200,1.9300,9.5894,0.0175,-0.0578,-0.1658,5.94,80.94,72.38,-1.0335,9.3279,1.4855,9.5018
11,5,1,3,2,19.677,19677,-1.3300,8.8300,1.4500,9.0466,0.0535,-0.0055,-0.2149,7.75,80.63,70.75,-1.0726,9.2623,1.4808,9.4411
11,5,1,3,2,19.807,19807,-1.2600,9.0800,1.5600,9.2988,0.0458,-0.0262,-0.1767,8.81,80.25,69.81,-1.0973,9.2383,1.4912,9.4220
11,5,1,3,2,19.980,19980,-2.3400,9.2200,1.5300,9.6346,-0.0295,-0.0316,-0.2182,11.25,80.13,67.69,-1.2610,9.2359,1.4963,9.4409
11,5,1,3,2,20.111,20111,-2.3800,9.5500,1.4800,9.9528,-0.0404,-0.0327,0.0196,12.56,80.44,66.50,-1.4085,9.2773,1.4942,9.5018
11,5,1,3,2,20.241,20241,-2.2200,9.7300,1.4600,10.0863,-0.0273,-0.0371,-0.0098,12.44,80.75,66.88,-1.5154,9.3369,1.4897,9.5757
11,5,1,3,2,20.372,20372,-2.6000,9.3900,1.4500,9.8506,-0.0076,-0.0065,-0.1385,13.19,80.88,66.31,-1.6583,9.3439,1.4844,9.6053
11,5,1,3,2,20.502,20502,-2.4700,9.4000,1.3700,9.8152,-0.0360,0.0000,0.0774,13.88,81.19,65.63,-1.7653,9.3513,1.4694,9.6292
11,5,1,3,2,20.633,20633,-2.3200,9.3200,1.3200,9.6947,-0.0436,0.0164,-0.0469,13.94,81.50,65.38,-1.8384,9.3472,1.4497,9.6359
11,5,1,3,2,20.763,20763,-2.6700,9.3800,1.4800,9.8643,-0.0425,0.0273,-0.0644,15.13,81.75,64.00,-1.9480,9.3515,1.4537,9.6622
11,5,1,3,2,20.893,20893,-3.5000,9.6500,1.1500,10.3293,-0.0753,0.0142,-0.2138,16.50,82.13,62.31,-2.1525,9.3908,1.4137,9.7375
11,5,1,3,2,21.066,21066,-2.5400,9.3300,1.1400,9.7365,-0.0076,0.0033,-0.0545,17.25,82.50,61.38,-2.2036,9.3828,1.3776,9.7361
11,5,1,3,2,21.200,21200,-2.4700,9.0200,1.2200,9.4313,0.0240,-0.0491,0.0720,17.25,82.50,61.56,-2.2387,9.3350,1.3568,9.6951
11,5,1,3,2,21.331,21331,-2.9700,9.4100,1.1300,9.9321,0.0273,-0.0665,0.0251,17.31,82.50,61.94,-2.3350,9.3449,1.3269,9.7232
11,5,1,3,2,21.462,21462,-3.2400,9.5400,1.1700,10.1429,0.0109,-0.0556,0.0065,17.13,82.50,62.69,-2.4543,9.3706,1.3063,9.7744
11,5,1,3,2,21.592,21592,-3.3400,10.4400,1.1900,11.0257,0.0153,-0.0207,0.1953,16.25,82.56,63.81,-2.5710,9.5115,1.2909,9.9371
11,5,1,3,2,21.722,21722,-3.3200,10.5300,1.1300,11.0987,0.0480,-0.0196,0.2378,15.06,82.63,65.25,-2.6697,9.6457,1.2697,10.0886
11,5,1,3,2,21.853,21853,-2.3600,9.6700,1.3400,10.0436,0.0829,0.0251,0.2694,13.00,82.13,67.38,-2.6289,9.6489,1.2790,10.0821
11,5,1,3,2,21.983,21983,-2.1100,9.0400,1.4000,9.3880,0.0447,0.0229,0.2585,11.38,81.69,68.94,-2.5605,9.5687,1.2949,9.9896
11,5,1,3,2,22.156,22156,-1.3800,8.9700,1.4300,9.1875,-0.0218,0.0698,0.1844,8.94,81.44,70.94,-2.4050,9.4898,1.3127,9.8774
11,5,1,3,2,22.287,22287,-1.0100,8.4000,1.5100,8.5942,-0.0251,0.0349,0.2171,7.38,81.63,72.13,-2.2211,9.3462,1.3387,9.6993
11,5,1,3,2,22.418,22418,-1.6300,8.0200,1.3400,8.2929,-0.0120,0.0207,0.1167,6.38,81.69,72.94,-2.1432,9.1714,1.3389,9.5132
11,5,1,3,2,22.548,22548,0.0600,9.4100,1.4500,9.5212,0.0011,0.0840,0.4691,2.94,81.69,76.00,-1.8529,9.2029,1.3535,9.4846
11,5,1,3,2,22.679,22679,-0.1300,9.2600,1.4400,9.3722,-0.0207,0.0589,0.0807,1.88,81.75,76.50,-1.6259,9.2104,1.3649,9.4519
11,6,1,3,2,22.811,22811,0.1900,9.7200,1.1300,9.7873,-0.0556,0.0098,0.1429,0.38,82.06,77.75,-1.3866,9.2776,1.3340,9.4750
11,6,1,3,2,22.946,22946,-0.1600,9.8600,1.4100,9.9616,-0.0393,0.0055,-0.0349,0.56,82.50,77.56,-1.2250,9.3543,1.3440,9.5294
11,6,1,3,2,23.076,23076,0.0000,9.8600,1.2200,9.9352,0.0273,-0.0087,-0.0262,0.31,82.50,77.81,-1.0635,9.4209,1.3277,9.5733
11,6,1,3,2,23.249,23249,-0.3000,9.4900,1.4000,9.5974,0.0764,-0.0229,0.0022,0.81,81.88,77.50,-0.9629,9.4300,1.3372,9.5729
11,6,1,3,2,23.379,23379,-0.5000,9.4300,1.5100,9.5632,0.0371,-0.0011,0.0273,1.19,81.44,77.25,-0.9019,9.4300,1.3600,9.5702
11,6,1,3,2,23.509,23509,-0.0500,9.4600,1.4800,9.5752,0.0044,0.0207,0.0491,0.94,81.31,77.44,-0.7897,9.4340,1.3758,9.5664
11,6,1,3,2,23.639,23639,0.1800,9.5400,1.6100,9.6766,-0.0098,-0.0011,-0.0120,0.63,81.25,77.63,-0.6619,9.4480,1.4066,9.5750
11,6,1,3,2,23.769,23769,-0.1200,9.2800,1.5600,9.4110,-0.0218,-0.0076,-0.2116,1.31,81.25,76.88,-0.5905,9.4258,1.4269,9.5515
11,6,1,3,2,23.899,23899,-0.8900,9.2700,1.0600,9.3728,-0.0436,-0.0535,-0.1625,3.19,81.38,75.25,-0.6299,9.4053,1.3785,9.5266
11,6,1,3,2,24.029,24029,-0.6100,9.9800,1.6800,10.1388,-0.0218,0.0044,-0.0360,3.00,81.75,75.69,-0.6273,9.4810,1.4182,9.6070
11,6,1,3,2,24.160,24160,-0.3700,9.2500,1.2600,9.3428,0.0033,0.0338,-0.2356,4.00,81.69,74.44,-0.5934,9.4506,1.3974,9.5717
11,6,1,3,2,24.332,24332,-1.0300,9.3000,1.3800,9.4581,0.0251,0.0218,-0.3971,6.13,81.50,72.06,-0.6509,9.4307,1.3951,9.5556
11,6,1,3,2,24.462,24462,-1.2100,8.7700,1.3400,8.9539,0.0000,-0.0360,-0.3283,8.44,81.31,69.75,-0.7246,9.3437,1.3878,9.4739
11,6,1,3,2,24.592,24592,-2.6600,9.0800,1.2400,9.5425,-0.0295,-0.0502,-0.1767,11.06,81.44,67.50,-0.9796,9.3089,1.3684,9.4598
11,6,1,3,2,24.722,24722,-2.4200,9.3800,1.1400,9.7540,-0.0153,-0.0011,-0.0960,11.56,81.63,67.06,-1.1694,9.3183,1.3383,9.4863
11,6,1,3,2,24.852,24852,-2.3900,9.4000,1.5100,9.8159,0.0131,0.0087,-0.0971,12.00,81.63,66.63,-1.3303,9.3291,1.3609,9.5212
11,6,1,3,2,24.982,24982,-2.3400,9.2000,1.3200,9.5843,-0.0142,0.0185,0.0033,12.44,81.56,66.19,-1.4633,9.3121,1.3555,9.5233
11,6,1,3,2,25.113,25113,-1.9900,9.5900,1.2800,9.8776,-0.0469,0.0404,-0.0022,12.31,81.75,66.00,-1.5327,9.3487,1.3456,9.5686
11,6,1,3,2,25.243,25243,-2.3200,9.8400,1.1400,10.1739,-0.0491,0.0371,-0.0185,12.69,82.13,65.31,-1.6365,9.4134,1.3185,9.6452
11,6,1,3,2,25.416,25416,-2.4500,9.3000,1.2600,9.6995,-0.0207,0.0753,-0.1647,14.13,82.25,63.19,-1.7437,9.3985,1.3108,9.6483
11,6,1,3,2,25.547,25547,-2.5600,9.0800,1.4200,9.5403,0.0044,0.0142,0.0949,14.81,82.19,62.19,-1.8513,9.3565,1.3252,9.6295
11,6,1,3,2,25.677,25677,-2.1000,9.0200,1.1800,9.3361,0.0065,-0.0535,0.0284,14.31,82.13,62.81,-1.8840,9.3122,1.3060,9.5902
11,6,1,3,2,25.807,25807,-2.8200,9.4900,1.2900,9.9838,-0.0098,-0.0742,-0.1462,14.75,82.31,62.88,-2.0074,9.3356,1.3039,9.6376
11,6,1,3,2,25.938,25938,-2.7600,9.6600,0.9800,10.0942,-0.0011,-0.0513,0.1527,15.31,82.44,62.75,-2.1065,9.3783,1.2612,9.6944
11,6,1,3,2,26.068,26068,-3.1700,9.8400,1.2700,10.4157,0.0251,-0.0393,0.0305,15.00,82.50,63.44,-2.2467,9.4392,1.2624,9.7846
11,6,1,3,2,26.199,26199,-3.2200,10.0300,1.2200,10.6046,0.0218,0.0240,0.0753,15.25,82.44,63.31,-2.3749,9.5170,1.2568,9.8891
11,6,1,3,2,26.329,26329,-2.6800,10.5200,1.3100,10.9348,0.0218,0.0567,0.1604,14.50,82.38,63.75,-2.4151,9.6492,1.2638,10.0268
11,6,1,3,2,26.506,26506,-2.4300,9.7800,1.2900,10.1596,0.0273,0.0349,0.1865,13.19,82.00,64.75,-2.4171,9.6664,1.2673,10.0443
11,6,1,3,2,26.636,26636,-1.9000,9.2000,1.4300,9.5024,0.0011,0.0273,0.2291,11.44,81.94,66.31,-2.3490,9.6050,1.2887,9.9717
11,6,1,3,2,26.767,26767,-1.2900,9.3600,1.4100,9.5531,-0.0327,-0.0098,0.2902,9.25,82.00,68.44,-2.2094,9.5727,1.3047,9.9106
11,6,1,3,2,26.897,26897,-1.0400,9.5000,1.2100,9.6331,-0.0720,-0.0196,0.1996,7.56,82.38,70.13,-2.0553,9.5631,1.2922,9.8665
11,6,1,3,2,27.028,27028,-1.0900,8.5500,1.1400,8.6943,-0.0360,-0.0327,-0.0098,6.81,82.94,71.00,-1.9281,9.4296,1.2722,9.7084
11,6,1,3,2,27.158,27158,-1.5100,7.4600,1.1800,7.7022,0.0033,0.0164,0.0120,7.19,82.94,70.69,-1.8730,9.1701,1.2600,9.4438
11,6,1,3,2,27.289,27289,-0.1600,9.2700,1.1300,9.3400,-0.0425,0.1004,0.3403,5.31,83.06,72.13,-1.6473,9.1832,1.2429,9.4122
11,7,1,3,2,27.419,27419,-1.4000,9.8700,0.9900,10.0178,-0.0687,0.0469,0.0458,5.88,83.44,70.94,-1.6147,9.2737,1.2096,9.4906
11,7,1,3,2,27.592,27592,-0.9000,9.8900,0.8500,9.9672,-0.0076,0.0393,-0.0567,4.81,83.81,71.63,-1.5205,9.3549,1.1622,9.5487
11,7,1,3,2,27.722,27722,-0.1800,9.4800,1.0900,9.5442,0.0524,0.0284,0.0491,3.94,83.56,72.25,-1.3439,9.3714,1.1527,9.5372
11,7,1,3,2,27.853,27853,-0.7400,9.6300,1.2900,9.7442,0.0611,-0.0044,0.0829,4.19,83.13,72.00,-1.2643,9.4055,1.1708,9.5620
11,7,1,3,2,27.983,27983,-0.9400,9.5600,1.3100,9.6950,0.0404,-0.0153,0.0055,4.38,82.75,71.88,-1.2216,9.4259,1.1891,9.5788
11,7,1,3,2,28.113,28113,-0.7100,9.4100,1.3300,9.5300,0.0120,-0.0415,-0.0305,4.06,82.56,72.38,-1.1542,9.4238,1.2077,9.5707
11,7,1,3,2,28.243,28243,-0.5000,9.6300,1.3000,9.7302,0.0000,-0.0458,-0.0076,3.88,82.56,72.88,-1.0680,9.4509,1.2198,9.5890
11,7,1,3,2,28.373,28373,-0.5400,9.6000,1.1500,9.6837,-0.0196,-0.0425,-0.0851,4.06,82.56,73.06,-0.9984,9.4706,1.2106,9.5997
11,7,1,3,2,28.503,28503,-0.7300,9.5100,1.3900,9.6387,0.0076,-0.0305,-0.1724,5.00,82.63,72.31,-0.9630,9.4758,1.2343,9.6042
11,7,1,3,2,28.676,28676,-1.4500,9.3700,1.2000,9.5572,0.0284,-0.0436,-0.0731,7.13,82.44,70.63,-1.0272,9.4618,1.2298,9.5966
11,7,1,3,2,28.812,28812,-2.3200,9.1400,1.3900,9.5317,0.0447,0.0044,-0.4352,9.00,82.13,68.88,-1.1975,9.4194,1.2509,9.5773
11,7,1,3,2,28.943,28943,-1.4700,9.2400,1.2800,9.4434,0.0349,-0.0087,-0.0807,10.63,81.75,67.25,-1.2334,9.3958,1.2547,9.5591
11,7,1,3,2,29.073,29073,-2.5600,9.2300,1.1900,9.6521,0.0524,-0.0731,-0.2443,12.19,81.50,66.00,-1.4083,9.3739,1.2462,9.5607
11,7,1,3,2,29.204,29204,-2.7100,9.0900,1.3600,9.5824,0.0600,-0.0218,-0.1516,13.38,81.06,65.38,-1.5798,9.3365,1.2612,9.5529
11,7,1,3,2,29.334,29334,-2.6500,8.9300,1.5000,9.4349,-0.0055,0.0207,-0.0545,14.81,80.94,64.00,-1.7208,9.2830,1.2927,9.5292
11,7,1,3,2,29.465,29465,-2.1600,8.8900,1.4600,9.2644,-0.0535,0.0295,-0.0654,14.88,81.06,63.63,-1.7787,9.2312,1.3147,9.4925
11,7,1,3,2,29.595,29595,-2.1600,8.7700,1.2400,9.1168,-0.1429,0.0033,-0.0993,15.31,81.69,62.88,-1.8289,9.1704,1.3049,9.4416
11,7,1,3,2,29.768,29768,-2.1900,9.2900,1.0100,9.5979,-0.1854,0.0033,0.0251,15.50,83.50,62.25,-1.8765,9.1862,1.2660,9.4610
11,7,1,3,2,29.899,29899,-2.8400,9.5400,0.8400,9.9891,-0.1713,-0.0142,-0.1036,15.44,84.81,62.06,-2.0035,9.2328,1.2099,9.5248
11,7,1,3,2,30.029,30029,-2.9500,9.4600,0.7000,9.9340,-0.1364,0.0273,-0.0535,16.06,85.94,61.06,-2.1282,9.2627,1.1427,9.5725
11,7,1,3,2,30.160,30160,-2.6700,9.7200,0.5600,10.0956,-0.0720,0.0196,-0.0578,16.13,86.63,60.69,-2.1996,9.3230,1.0659,9.6381
11,7,1,3,2,30.290,30290,-3.1200,9.4400,0.4800,9.9538,-0.0305,0.0109,-0.1451,16.75,86.88,59.88,-2.3209,9.3384,0.9887,9.6732
11,7,1,3,2,30.420,30420,-3.1900,9.6100,0.4500,10.1356,0.0033,0.0305,-0.0894,17.38,87.00,59.00,-2.4354,9.3742,0.9177,9.7288
11,7,1,3,2,30.551,30551,-3.2700,9.5500,0.2900,10.0985,0.0545,0.0469,-0.0404,17.94,86.75,58.25,-2.5454,9.3974,0.8350,9.7717
11,7,1,3,2,30.681,30681,-3.4900,9.5900,0.6600,10.2266,0.0829,0.0807,0.0371,18.31,86.06,57.50,-2.6699,9.4227,0.8119,9.8273
11,7,1,3,2,30.854,30854,-2.4300,8.8000,0.7900,9.1635,0.0327,0.0382,0.1298,17.63,85.31,57.88,-2.6383,9.3407,0.8090,9.7398
11,7,1,3,2,30.988,30988,-2.6000,9.9000,0.8100,10.2677,0.0393,-0.0131,-0.0087,17.44,85.13,58.00,-2.6332,9.4144,0.8092,9.8091
11,7,1,3,2,31.119,31119,-3.4500,9.5100,0.8000,10.1480,0.0578,-0.0742,0.0436,17.50,84.81,58.50,-2.7408,9.4270,0.8080,9.8505
11,7,1,3,2,31.249,31249,-3.0200,9.9000,0.8800,10.3877,0.0382,-0.0545,0.2978,15.94,84.63,60.63,-2.7776,9.4893,0.8175,9.9212
11,7,1,3,2,31.380,31380,-2.5300,9.9600,0.8500,10.3114,0.0644,-0.0611,0.1767,13.94,84.44,63.13,-2.7450,9.5513,0.8217,9.9719
11,8,1,3,2,31.510,31510,-2.2300,9.5600,1.0300,9.8705,0.1145,-0.0175,0.2258,12.44,83.88,65.06,-2.6771,9.5525,0.8492,9.9568
11,8,1,3,2,31.641,31641,-1.9000,9.2500,1.1200,9.5093,0.1320,0.0153,0.0349,11.31,82.94,66.38,-2.5747,9.5126,0.8849,9.8946
11,8,1,3,2,31.771,31771,-2.1100,8.9900,1.4100,9.3413,0.0818,0.0295,-0.0633,11.06,82.13,66.56,-2.5135,9.4438,0.9541,9.8190
11,8,1,3,2,31.944,31944,-1.7500,9.1900,1.4700,9.4699,0.0175,0.0513,0.1985,10.25,81.56,67.00,-2.4129,9.4103,1.0221,9.7683
11,8,1,3,2,32.074,32074,-1.1100,9.1300,1.5600,9.3286,0.0709,0.0055,0.1113,9.06,81.19,68.00,-2.2412,9.3734,1.0929,9.6994
11,8,1,3,2,32.204,32204,-1.8200,8.3200,1.4700,8.6427,0.1789,-0.0240,0.0949,8.38,80.19,69.00,-2.1857,9.2346,1.1426,9.5582
11,8,1,3,2,32.334,32334,-0.8300,8.2000,1.8700,8.4514,0.0600,-0.0044,0.1963,6.31,79.31,71.31,-2.0070,9.0982,1.2385,9.3989
11,8,1,3,2,32.464,32464,-0.6500,9.5900,1.7000,9.7612,-0.0535,0.0338,0.4429,4.19,79.44,73.38,-1.8282,9.1630,1.2993,9.4336
11,8,1,3,2,32.594,32594,-0.9800,9.5800,1.6800,9.7754,-0.0295,0.0360,0.1527,3.25,79.81,74.00,-1.7164,9.2180,1.3495,9.4730
11,8,1,3,2,32.724,32724,0.5900,9.7600,1.7000,9.9245,0.0087,0.0644,0.0458,0.31,79.75,76.63,-1.4125,9.2894,1.3957,9.4993
11,8,1,3,2,32.854,32854,-0.1100,9.6000,1.7700,9.7624,0.0207,0.0371,-0.0425,1.19,79.69,75.31,-1.2409,9.3303,1.4450,9.5228
11,8,1,3,2,33.027,33027,-0.0600,9.6000,1.8500,9.7768,0.0185,-0.0065,-0.0676,1.19,79.44,75.19,-1.0853,9.3659,1.4984,9.5469
11,8,1,3,2,33.157,33157,-0.1100,9.6100,1.8500,9.7871,0.0338,-0.0175,0.0349,1.50,79.25,75.00,-0.9568,9.3980,1.5447,9.5721
11,8,1,3,2,33.287,33287,-0.1500,9.0600,1.8700,9.2522,0.0000,-0.0611,-0.1451,1.69,79.00,75.06,-0.8504,9.3535,1.5876,9.5253
11,8,1,3,2,33.417,33417,-0.7500,9.1000,1.7900,9.3047,-0.0349,-0.0578,-0.3098,2.69,79.19,74.50,-0.8372,9.3201,1.6142,9.4958
11,8,1,3,2,33.547,33547,-1.0200,9.1600,1.9600,9.4227,0.0000,-0.0316,0.0022,4.44,79.25,73.06,-0.8613,9.2990,1.6598,9.4852
11,8,1,3,2,33.677,33677,-1.2500,9.2000,1.7500,9.4480,-0.0469,-0.0098,-0.0578,4.94,79.31,72.69,-0.9125,9.2860,1.6717,9.4792
11,8,1,3,2,33.807,33807,-1.1700,9.4700,1.6000,9.6752,-0.0905,0.0240,-0.0873,5.38,79.88,72.19,-0.9464,9.3102,1.6622,9.5047
11,8,1,3,2,33.938,33938,-1.0900,9.6000,1.5100,9.7790,-0.0447,0.0360,-0.1440,6.13,80.38,71.13,-0.9654,9.3484,1.6422,9.5405
11,8,1,3,2,34.110,34110,-1.1400,9.3500,1.4600,9.5317,-0.0218,0.0011,-0.1571,6.88,80.63,70.13,-0.9884,9.3486,1.6182,9.5390
11,8,1,3,2,34.240,34240,-1.2400,9.1600,1.4800,9.3613,-0.0469,-0.0142,-0.2105,7.81,80.81,69.19,-1.0215,9.3238,1.6000,9.5150
11,8,1,3,2,34.370,34370,-1.5800,9.2900,1.4700,9.5374,-0.0502,-0.0218,-0.0436,9.06,81.25,68.06,-1.0951,9.3193,1.5828,9.5160
11,8,1,3,2,34.500,34500,-2.0300,9.8900,1.4100,10.1942,-0.0425,-0.0218,-0.0076,9.69,81.63,67.50,-1.2183,9.3945,1.5601,9.6008
11,8,1,3,2,34.630,34630,-1.7800,9.7300,1.2700,9.9727,0.0076,0.0011,-0.0709,9.69,81.75,67.56,-1.2923,9.4387,1.5218,9.6476
11,8,1,3,2,34.760,34760,-1.5900,9.7400,1.3000,9.9542,0.0873,0.0229,-0.0087,10.00,81.44,67.19,-1.3316,9.4784,1.4926,9.6872
11,8,1,3,2,34.890,34890,-1.5800,9.4000,1.6700,9.6770,0.1145,0.0218,-0.0873,10.00,80.63,67.19,-1.3643,9.4681,1.5160,9.6853
11,8,1,3,2,35.021,35021,-2.4800,9.5000,1.5400,9.9384,0.0764,0.0382,-0.1069,11.06,79.88,66.00,-1.5113,9.4723,1.5191,9.7117
11,8,1,3,2,35.194,35194,-1.1600,9.6500,1.8500,9.8940,0.1189,0.0524,0.1418,9.75,79.00,66.94,-1.4650,9.4957,1.5627,9.7343
11,8,1,3,2,35.327,35327,-2.0000,9.1800,2.1200,9.6316,0.1298,0.0425,0.0425,10.56,77.94,65.94,-1.5355,9.4541,1.6362,9.7167
11,8,1,3,2,35.457,35457,-1.6700,9.1700,2.0800,9.5501,0.0665,0.0589,0.0327,10.56,77.19,65.69,-1.5532,9.4167,1.6947,9.6932
11,8,1,3,2,35.592,35592,-1.0400,9.3300,2.1700,9.6353,0.0731,0.0131,0.0960,10.31,76.69,65.69,-1.4856,9.4052,1.7573,9.6827
11,8,1,3,2,35.723,35723,-1.8600,9.3300,2.1400,9.7513,0.0851,-0.0022,0.0676,10.13,76.06,66.00,-1.5349,9.3953,1.8077,9.6900
11,8,1,3,2,35.854,35854,-1.7500,9.5300,2.4100,9.9846,0.0338,-0.0196,-0.1669,10.19,75.63,66.06,-1.5633,9.4131,1.8871,9.7268
11,8,1,3,2,35.984,35984,-2.4500,10.0000,2.8000,10.6697,0.0196,-0.0447,0.0131,10.88,75.44,65.63,-1.6801,9.4904,2.0074,9.8448
11,8,1,3,2,36.114,36114,-2.0100,10.5400,2.9000,11.1149,-0.0131,-0.0338,0.0993,10.38,75.44,66.44,-1.7236,9.6287,2.1250,10.0099
11,8,1,3,2,36.287,36287,-2.2800,10.2600,2.6000,10.8271,-0.0316,-0.0698,0.1113,10.50,75.81,66.81,-1.7969,9.7119,2.1876,10.1161
11,8,1,3,2,36.417,36417,-2.0300,9.7000,2.4700,10.2133,-0.0600,-0.0600,0.1865,9.38,76.19,68.50,-1.8276,9.7103,2.2248,10.1282
11,9,1,3,2,36.547,36547,-1.6400,9.2000,2.2100,9.6028,-0.1265,-0.0087,0.3065,7.88,76.88,70.19,-1.8029,9.6431,2.2229,10.0589
11,9,1,3,2,36.677,36677,-1.1200,7.9500,1.8400,8.2367,-0.1702,0.0567,0.0709,6.56,78.00,71.25,-1.7129,9.4200,2.1724,9.8178
11,9,1,3,2,36.807,36807,-0.9800,8.1700,1.6800,8.3983,-0.1734,0.0698,0.1560,5.88,79.31,71.38,-1.6163,9.2553,2.1075,9.6288
11,9,1,3,2,36.937,36937,-0.7800,8.8000,1.3900,8.9432,-0.1058,0.0502,0.0109,5.00,80.25,71.69,-1.5061,9.1953,2.0130,9.5328
11,9,1,3,2,37.067,37067,-0.1800,8.8400,2.0200,9.0696,-0.1025,0.0469,-0.1451,4.06,80.81,72.25,-1.3314,9.1485,2.0139,9.4616
11,9,1,3,2,37.197,37197,-0.8000,9.5800,1.1500,9.6819,-0.0982,0.0916,0.6589,4.19,81.50,71.63,-1.2614,9.2053,1.9001,9.4836
11,9,1,3,2,37.370,37370,-0.3000,9.8200,1.2700,9.9063,-0.0556,0.0633,0.0556,0.69,82.31,74.00,-1.1347,9.2863,1.8170,9.5302
11,9,1,3,2,37.500,37500,0.5300,9.6800,1.1400,9.7613,-0.0251,0.1429,0.2716,-0.38,82.50,74.19,-0.9153,9.3382,1.7278,9.5407
11,9,1,3,2,37.630,37630,0.6000,10.3800,1.1700,10.4629,-0.0044,0.1134,-0.0622,-0.88,82.63,73.25,-0.7156,9.4755,1.6543,9.6454
11,9,1,3,2,37.760,37760,-0.1600,9.5100,1.2000,9.5867,0.0600,0.0404,-0.3763,0.31,82.44,71.31,-0.6424,9.4800,1.5944,9.6346
11,9,1,3,2,37.890,37890,0.3500,9.3700,1.3700,9.4761,0.1014,0.0175,0.1691,0.25,81.81,70.63,-0.5116,9.4655,1.5649,9.6076
11,9,1,3,2,38.020,38020,-0.1900,9.8500,1.5600,9.9746,0.0993,-0.0273,0.1909,0.56,81.19,70.31,-0.4693,9.5162,1.5642,9.6553
11,9,1,3,2,38.150,38150,0.1700,9.3800,1.5500,9.5087,0.0447,-0.0720,-0.0393,-0.44,80.56,71.75,-0.3850,9.4982,1.5624,9.6336
11,9,1,3,2,38.280,38280,0.3400,9.5200,1.8500,9.7040,0.0229,-0.1134,0.1178,-0.94,80.31,72.81,-0.2895,9.5011,1.6003,9.6393
11,9,1,3,2,38.453,38453,0.1000,9.7100,1.6200,9.8447,0.0229,-0.1298,-0.1396,0.19,80.13,72.75,-0.2382,9.5286,1.6029,9.6654
11,9,1,3,2,38.583,38583,-0.3200,8.7500,2.0200,8.9858,0.0654,-0.1505,-0.4931,1.88,79.75,72.06,-0.2489,9.4260,1.6578,9.5739
11,9,1,3,2,38.713,38713,-0.5600,9.0200,1.5000,9.1610,0.0262,-0.1691,0.0556,3.81,79.44,71.31,-0.2899,9.3725,1.6370,9.5188
11,9,1,3,2,38.843,38843,-1.2400,8.5200,1.7600,8.7878,-0.0305,-0.1047,-0.2880,5.25,79.63,70.88,-0.4151,9.2602,1.6532,9.4158
11,9,1,3,2,38.973,38973,-0.8400,9.4500,1.6100,9.6229,-0.0273,-0.0578,0.0862,6.00,79.88,70.63,-0.4711,9.2852,1.6475,9.4420
11,9,1,3,2,39.103,39103,-1.6100,9.1200,1.5900,9.3965,0.0087,-0.0458,-0.2814,6.88,79.94,70.13,-0.6212,9.2634,1.6400,9.4280
11,9,1,3,2,39.233,39233,-0.8200,9.3400,1.7500,9.5378,-0.0055,-0.0131,0.1713,6.56,80.00,70.63,-0.6474,9.2735,1.6545,9.4422
11,9,1,3,2,39.364,39364,-1.4000,9.5500,1.7600,9.8112,-0.0076,0.0207,-0.2683,8.06,80.06,69.06,-0.7466,9.3100,1.6684,9.4877
11,9,1,3,2,39.536,39536,-1.0700,9.5700,1.7700,9.7909,-0.0153,0.0185,0.2247,8.06,80.06,68.88,-0.7892,9.3442,1.6818,9.5271
11,9,1,3,2,39.667,39667,-1.4500,9.6500,1.5700,9.8838,-0.0404,0.0360,-0.1713,8.38,80.25,68.31,-0.8763,9.3845,1.6670,9.5716
11,9,1,3,2,39.797,39797,-1.5500,9.5900,1.7300,9.8673,-0.0164,0.0164,0.0360,9.13,80.38,67.31,-0.9650,9.4116,1.6753,9.6081
11,9,1,3,2,39.927,39927,-1.8700,9.2200,1.3900,9.5099,-0.0513,0.0240,-0.0938,9.63,80.63,66.69,-1.0843,9.3863,1.6377,9.5896
11,9,1,3,2,40.057,40057,-1.3900,9.9300,1.6400,10.1600,-0.0447,0.0393,-0.1462,10.06,80.94,65.88,-1.1246,9.4580,1.6380,9.6644
11,9,1,3,2,40.187,40187,-1.9000,9.7000,1.6900,10.0278,-0.0425,-0.0011,-0.1025,11.19,81.19,64.63,-1.2268,9.4899,1.6449,9.7092
11,9,1,3,2,40.317,40317,-2.4200,9.5200,1.4800,9.9336,-0.0175,0.0131,-0.1898,11.94,81.31,63.81,-1.3840,9.4938,1.6232,9.7305
11,9,1,3,2,40.447,40447,-2.1900,9.7100,1.2400,10.0308,-0.0284,-0.0262,0.0382,12.25,81.44,63.56,-1.4902,9.5223,1.5727,9.7657
11,9,1,3,2,40.620,40620,-2.1100,10.4700,1.4900,10.7839,0.0393,-0.0436,0.2269,11.06,81.63,65.06,-1.5719,9.6472,1.5618,9.8984
11,9,1,3,2,40.750,40750,-2.0600,10.1100,1.4300,10.4164,0.0600,-0.0262,0.2738,10.13,81.31,66.38,-1.6362,9.7082,1.5444,9.9655
11,9,1,3,2,40.881,40881,-1.8300,10.4300,1.7800,10.7379,0.0425,0.0196,0.1953,8.63,81.06,68.00,-1.6617,9.8033,1.5755,10.0672
11,9,1,3,2,41.012,41012,-1.9700,9.7900,1.8100,10.1489,0.0524,0.0458,0.2018,7.13,80.63,69.31,-1.7024,9.8016,1.6064,10.0771
11,10,1,3,2,41.147,41147,-0.9000,8.9400,1.5800,9.1230,-0.0698,0.0698,0.3938,4.69,80.69,71.31,-1.5966,9.6880,1.6029,9.9487
11,10,1,3,2,41.277,41277,0.1100,9.7600,1.3400,9.8522,-0.0927,0.0436,0.4243,1.50,81.38,74.00,-1.3717,9.6975,1.5682,9.9188
11,10,1,3,2,41.409,41409,0.3800,9.3700,1.0800,9.4397,-0.0796,0.0022,0.3043,-1.63,82.06,77.13,-1.1409,9.6544,1.5039,9.8372
11,10,1,3,2,41.539,41539,0.8600,6.9800,0.9800,7.1007,-0.0720,0.0393,-0.3698,-2.94,82.63,78.25,-0.8772,9.3019,1.4349,9.4527
11,10,1,3,2,41.712,41712,1.9800,10.1800,1.5400,10.4845,0.0415,0.0338,0.7232,-3.44,82.94,78.31,-0.5007,9.4176,1.4487,9.5416
11,10,1,3,2,41.843,41843,0.2800,9.4400,1.2000,9.5201,0.0709,-0.0065,-0.2258,-3.19,82.44,77.94,-0.3978,9.4206,1.4159,9.5347
11,10,1,3,2,41.974,41974,0.3800,9.5100,1.5400,9.6414,0.0567,0.0196,0.0360,-2.56,81.94,77.19,-0.2953,9.4324,1.4323,9.5451
11,10,1,3,2,42.107,42107,0.1700,9.5700,1.4700,9.6837,0.0240,0.0087,0.0218,-2.31,81.69,76.69,-0.2340,9.4505,1.4373,9.5620
11,10,1,3,2,42.238,42238,0.7500,9.5700,1.6200,9.7351,0.0087,0.0185,0.0556,-2.94,81.56,77.19,-0.1044,9.4663,1.4613,9.5790
11,10,1,3,2,42.371,42371,0.5600,9.5400,1.5200,9.6765,0.0207,0.0055,0.0120,-3.25,81.44,77.31,-0.0168,9.4760,1.4691,9.5892
11,10,1,3,2,42.502,42502,0.4500,9.4900,1.6000,9.6344,-0.0120,0.0044,-0.0207,-3.31,81.38,77.25,0.0447,9.4778,1.4863,9.5938
11,10,1,3,2,42.632,42632,0.7300,9.5300,1.4500,9.6673,-0.0425,-0.0076,-0.0480,-3.31,81.56,76.81,0.1350,9.4847,1.4815,9.6007
11,10,1,3,2,42.805,42805,0.7000,9.7500,1.2800,9.8585,-0.0262,-0.0284,-0.1091,-3.31,81.81,77.00,0.2095,9.5197,1.4550,9.6325
11,10,1,3,2,42.935,42935,0.6100,9.7900,1.3400,9.9001,0.0142,-0.0305,-0.0404,-2.44,81.88,76.25,0.2622,9.5553,1.4398,9.6667
11,10,1,3,2,43.065,43065,0.6800,9.5700,1.2800,9.6791,0.0393,-0.0458,-0.0851,-2.38,81.69,76.44,0.3173,9.5572,1.4188,9.6672
11,10,1,3,2,43.195,43195,0.6700,9.0500,1.6500,9.2236,0.0578,-0.0556,-0.1047,-1.75,81.31,76.19,0.3638,9.4904,1.4492,9.6073
11,10,1,3,2,43.325,43325,-0.1100,9.2300,1.2500,9.3149,0.0513,-0.0851,-0.1745,-0.19,80.88,75.06,0.3013,9.4561,1.4230,9.5673
11,10,1,3,2,43.455,43455,-0.2300,9.6500,1.6800,9.7978,0.0687,-0.0862,-0.1560,0.56,80.50,74.94,0.2313,9.4816,1.4569,9.5957
11,10,1,3,2,43.585,43585,-0.7600,9.2100,1.6800,9.3928,0.1134,-0.0262,-0.1953,2.38,79.75,73.56,0.1007,9.4458,1.4863,9.5626
11,10,1,3,2,43.715,43715,-0.5600,9.2600,2.0200,9.4943,0.1167,0.0185,0.0076,2.56,78.88,73.38,0.0136,9.4213,1.5566,9.5491
11,10,1,3,2,43.888,43888,-1.0500,9.0400,2.0500,9.3288,0.0480,-0.0240,-0.3316,4.88,77.94,71.00,-0.1265,9.3711,1.6216,9.5112
11,10,1,3,2,44.018,44018,-0.8500,9.1700,2.0700,9.4391,-0.0251,-0.0295,-0.1287,5.63,77.88,70.44,-0.2219,9.3446,1.6807,9.4971
11,10,1,3,2,44.148,44148,-0.9600,9.2700,1.9500,9.5214,-0.0600,-0.0131,-0.0185,6.63,78.19,69.63,-0.3191,9.3348,1.7162,9.4966
11,10,1,3,2,44.278,44278,-1.0200,9.2400,1.8100,9.4707,-0.0862,-0.0491,-0.1418,7.44,78.75,68.94,-0.4115,9.3223,1.7285,9.4901
11,10,1,3,2,44.408,44408,-1.7600,9.8200,1.7200,10.1237,-0.0425,-0.0545,-0.1494,8.25,79.25,68.44,-0.5892,9.3879,1.7274,9.5636
11,10,1,3,2,44.538,44538,-1.8200,9.9100,1.8800,10.2496,-0.0425,-0.0098,-0.0960,9.31,79.50,67.63,-0.7514,9.4567,1.7475,9.6461
11,10,1,3,2,44.668,44668,-1.3800,9.5900,1.7700,9.8491,-0.0371,-0.0327,-0.0556,9.63,79.75,67.38,-0.8342,9.4742,1.7505,9.6706
11,10,1,3,2,44.798,44798,-2.0700,9.8500,1.6800,10.2044,-0.0567,-0.0524,-0.1680,10.50,80.19,66.75,-0.9971,9.5238,1.7412,9.7328
11,10,1,3,2,44.971,44971,-2.3700,9.8400,1.3700,10.2137,-0.0175,-0.0327,0.0535,12.00,80.69,65.63,-1.1780,9.5654,1.6923,9.7851
11,10,1,3,2,45.101,45101,-2.1600,9.8100,1.5700,10.1669,0.0022,-0.0393,-0.0251,12.06,80.81,65.75,-1.3074,9.5977,1.6762,9.8302
11,10,1,3,2,45.231,45231,-2.5800,9.7300,1.4500,10.1701,-0.0044,-0.0076,0.0731,12.38,80.94,65.69,-1.4751,9.6151,1.6464,9.8659
11,10,1,3,2,45.361,45361,-2.2300,9.9700,1.5300,10.3303,-0.0022,0.0578,0.0273,12.06,80.94,66.44,-1.5746,9.6619,1.6310,9.9243
11,10,1,3,2,45.491,45491,-2.1400,10.2100,1.5100,10.5406,0.0175,0.0327,0.1222,11.38,80.81,67.44,-1.6491,9.7341,1.6151,10.0040
11,10,1,3,2,45.621,45621,-1.8500,10.3600,1.6300,10.6494,0.0425,0.0284,0.0742,9.75,80.56,69.13,-1.6755,9.8166,1.6170,10.0890
11,10,1,3,2,45.751,45751,-1.8000,9.5500,1.7800,9.8798,0.0404,0.0436,0.1571,8.75,80.25,69.88,-1.6919,9.7814,1.6385,10.0610
11,10,1,3,2,45.882,45882,-1.4800,9.1600,1.6700,9.4279,-0.0164,0.0535,0.2389,6.94,80.13,71.44,-1.6640,9.6996,1.6427,9.9774
11,10,1,3,2,46.054,46054,-0.6700,9.7700,1.6500,9.9310,-0.0284,0.0862,0.2673,3.81,80.38,73.94,-1.5330,9.7088,1.6436,9.9656
11,10,1,3,2,46.184,46184,-0.0200,9.0100,1.6900,9.1671,0.0535,0.0894,0.2923,1.88,80.25,75.25,-1.3337,9.6167,1.6497,9.8480
11,10,1,3,2,46.314,46314,0.2600,7.4000,1.5700,7.5692,0.0905,0.0633,-0.0076,0.75,79.69,75.81,-1.1237,9.3246,1.6392,9.5341
11,10,1,3,2,46.444,46444,-0.3900,9.1300,1.9900,9.3525,0.0633,0.0295,0.4538,0.44,79.13,75.69,-1.0270,9.2990,1.6855,9.5061
