participant,rep,equipment_code,exercise_code,quality_code,timestamp,timestamp_ms,accelX,accelY,accelZ,accelMag,gyroX,gyroY,gyroZ,roll,pitch,yaw,filteredX,filteredY,filteredZ,filteredMag
11,1,1,3,2,00.000,0,8.0900,6.2200,-0.7900,10.2353,0.1058,0.0535,-0.0916,-53.50,98.25,118.94,8.0823,5.6838,-0.9649,9.9277
11,1,1,3,2,00.130,130,7.8600,5.3500,-1.1300,9.5749,0.1102,0.0545,-0.0796,-53.00,97.75,117.50,8.0530,5.6398,-0.9866,9.8808
11,1,1,3,2,00.260,260,8.1200,5.5200,-0.7400,9.8464,0.0273,0.0480,-0.0087,-52.88,98.19,116.81,8.0618,5.6240,-0.9541,9.8759
11,1,1,3,2,00.390,390,8.2300,5.5900,-0.7800,9.9794,-0.0164,-0.0240,-0.0687,-53.56,98.06,117.44,8.0840,5.6195,-0.9312,9.8892
11,1,1,3,2,00.520,520,7.4700,5.8600,-0.8400,9.5313,-0.0207,-0.0774,-0.2662,-52.44,97.50,116.69,8.0031,5.6512,-0.9192,9.8402
11,1,1,3,2,00.693,693,7.2000,6.0200,-0.9800,9.4361,-0.0022,-0.1113,0.0840,-50.81,96.19,115.63,7.8972,5.6998,-0.9272,9.7833
11,1,1,3,2,00.823,823,6.7200,6.1400,-0.7700,9.1351,-0.0371,-0.0469,-0.3971,-49.88,95.94,115.13,7.7421,5.7578,-0.9065,9.6909
11,1,1,3,2,00.953,953,6.3200,6.7000,-0.5900,9.2293,-0.0251,0.0109,-0.2520,-46.75,95.69,112.19,7.5547,5.8820,-0.8648,9.6135
11,1,1,3,2,01.083,1083,6.6100,6.6400,-0.5500,9.3853,0.0142,0.0316,0.0153,-46.19,95.81,111.56,7.4302,5.9819,-0.8233,9.5744
11,1,1,3,2,01.213,1213,6.8000,6.7300,-0.7300,9.5951,0.0447,0.0524,-0.1364,-45.56,95.88,110.56,7.3472,6.0804,-0.8110,9.5713
11,1,1,3,2,01.343,1343,6.8500,6.8000,-0.8200,9.6868,0.0120,0.1124,0.1167,-45.31,96.25,109.75,7.2817,6.1753,-0.8122,9.5821
11,1,1,3,2,01.473,1473,7.8100,6.4600,-0.8200,10.1686,-0.0262,0.1505,0.2542,-46.63,97.50,110.44,7.3513,6.2128,-0.8132,9.6593
11,1,1,3,2,01.603,1603,8.3000,6.8000,-0.9700,10.7736,0.0185,0.0491,-0.1985,-47.13,98.44,110.56,7.4763,6.2902,-0.8339,9.8059
11,1,1,3,2,01.776,1776,6.2600,6.7700,-1.0100,9.2758,0.0338,-0.0338,-0.0785,-44.25,97.38,107.50,7.3160,6.3534,-0.8571,9.7275
11,1,1,3,2,01.907,1907,6.8500,7.9800,-1.1100,10.5752,-0.0175,0.0371,0.0393,-44.50,97.50,107.75,7.2546,6.5677,-0.8904,9.8264
11,1,1,3,2,02.037,2037,7.7800,8.3300,-1.0400,11.4455,-0.0284,0.0709,-0.0229,-44.38,98.06,107.38,7.3238,6.8000,-0.9101,10.0353
11,1,1,3,2,02.168,2168,7.7300,7.7500,-1.2100,11.0127,-0.0556,0.0109,0.0753,-44.44,98.69,107.44,7.3774,6.9252,-0.9496,10.1629
11,2,1,3,2,02.298,2298,6.4100,6.6300,-1.4300,9.3322,-0.0884,-0.0720,-0.0404,-44.75,99.13,108.44,7.2499,6.8863,-1.0129,10.0502
11,2,1,3,2,02.428,2428,6.9300,6.8500,-1.1900,9.8165,-0.0251,-0.1145,0.2509,-45.56,98.88,110.00,7.2077,6.8815,-1.0363,10.0190
11,2,1,3,2,02.558,2558,7.2700,6.6400,-0.9200,9.8888,-0.0131,-0.0960,-0.0545,-47.00,98.38,112.00,7.2159,6.8497,-1.0209,10.0015
11,2,1,3,2,02.688,2688,6.2100,6.3500,-1.0000,8.9379,-0.0305,-0.0447,-0.0818,-46.00,97.88,111.50,7.0834,6.7838,-1.0182,9.8606
11,2,1,3,2,02.861,2861,7.8700,7.0200,-0.9300,10.5869,0.0000,0.0055,0.1909,-47.44,98.25,113.19,7.1870,6.8149,-1.0066,9.9554
11,2,1,3,2,02.996,2996,7.2000,6.6200,-0.7800,9.8119,0.0469,-0.0338,-0.1156,-47.44,97.94,113.06,7.1887,6.7893,-0.9767,9.9361
11,2,1,3,2,03.127,3127,6.3800,6.3000,-1.0000,9.0219,0.0556,-0.0033,0.0938,-47.19,97.38,112.63,7.0822,6.7248,-0.9798,9.8153
11,2,1,3,2,03.257,3257,7.7600,6.6100,-0.6600,10.2150,0.0393,0.0251,0.2967,-48.69,97.44,113.75,7.1715,6.7097,-0.9376,9.8655
11,2,1,3,2,03.388,3388,8.5100,6.4200,-1.0000,10.7068,-0.0153,0.0469,0.0087,-50.19,97.88,115.00,7.3479,6.6715,-0.9459,9.9697
11,2,1,3,2,03.518,3518,7.4700,6.6600,-0.8400,10.0430,-0.0175,0.0087,-0.3098,-48.56,98.00,113.38,7.3640,6.6700,-0.9319,9.9792
11,2,1,3,2,03.649,3649,7.3100,6.7600,-1.0500,10.0118,-0.0327,-0.0175,0.1320,-48.06,98.13,113.06,7.3569,6.6818,-0.9475,9.9834
11,2,1,3,2,03.779,3779,7.5300,6.4500,-0.9900,9.9641,-0.0393,-0.0273,0.1909,-49.38,98.50,114.69,7.3797,6.6513,-0.9531,9.9804
11,2,1,3,2,03.952,3952,6.8800,5.7800,-0.7900,9.0204,-0.0229,-0.1004,0.0982,-50.69,98.31,116.63,7.3138,6.5365,-0.9316,9.8532
11,2,1,3,2,04.082,4082,7.6000,5.4000,-0.8200,9.3591,0.0033,-0.1582,0.3971,-52.94,97.50,119.38,7.3515,6.3867,-0.9169,9.7814
11,2,1,3,2,04.212,4212,7.3900,5.4800,-1.0000,9.2543,-0.0076,-0.1004,-0.0251,-54.44,96.69,121.44,7.3566,6.2672,-0.9278,9.7087
11,2,1,3,2,04.342,4342,7.6300,5.6500,-0.4800,9.5063,-0.0164,0.0055,-0.0316,-53.94,96.56,121.13,7.3926,6.1859,-0.8688,9.6784
11,2,1,3,2,04.472,4472,7.9000,5.7600,-0.4600,9.7877,-0.0240,0.0316,-0.0098,-54.00,96.63,121.25,7.4595,6.1298,-0.8149,9.6893
11,2,1,3,2,04.602,4602,7.8900,5.7900,-0.6600,9.8088,-0.0131,0.0327,-0.0633,-53.50,96.94,120.69,7.5162,6.0850,-0.7945,9.7032
11,2,1,3,2,04.732,4732,7.8900,5.6800,-0.7700,9.7523,-0.0033,0.0251,-0.0665,-53.25,97.19,120.38,7.5655,6.0316,-0.7913,9.7079
11,2,1,3,2,04.862,4862,8.1900,6.0100,-0.7600,10.1869,-0.0153,0.0055,-0.2083,-52.25,97.25,119.31,7.6478,6.0288,-0.7872,9.7701
11,2,1,3,2,05.035,5035,7.2600,5.9900,-0.7300,9.4404,-0.0087,-0.0469,-0.0404,-50.31,96.88,117.69,7.5967,6.0237,-0.7796,9.7264
11,2,1,3,2,05.165,5165,6.7700,5.9500,-0.8500,9.0531,0.0055,-0.0196,-0.2422,-49.88,96.50,117.38,7.4877,6.0140,-0.7889,9.6362
11,2,1,3,2,05.295,5295,6.5000,6.4700,-0.5300,9.1865,-0.0109,0.0436,-0.2891,-47.50,96.44,114.94,7.3576,6.0741,-0.7548,9.5707
11,2,1,3,2,05.425,5425,7.4400,6.5000,-0.7200,9.9057,-0.0044,0.0371,0.1298,-47.63,96.81,114.88,7.3684,6.1302,-0.7502,9.6144
11,2,1,3,2,05.555,5555,7.5900,6.6400,-0.8500,10.1203,0.0098,0.0273,-0.1560,-47.50,97.13,114.69,7.3976,6.1974,-0.7634,9.6807
11,2,1,3,2,05.685,5685,6.9200,6.8600,-1.0400,9.7994,0.0305,0.0284,-0.1505,-46.00,97.00,112.94,7.3347,6.2847,-0.7998,9.6920
11,2,1,3,2,05.815,5815,6.9100,6.6700,-0.9200,9.6480,0.0469,0.0349,-0.0305,-45.25,97.00,111.75,7.2787,6.3355,-0.8157,9.6842
11,2,1,3,2,05.945,5945,6.7600,6.9900,-0.8300,9.7594,0.0578,0.0589,-0.2389,-44.31,96.81,110.31,7.2104,6.4217,-0.8175,9.6900
11,2,1,3,2,06.118,6118,6.7700,6.8500,-0.8800,9.6711,-0.0022,0.0938,-0.0415,-42.81,97.00,108.06,7.1523,6.4781,-0.8258,9.6853
11,2,1,3,2,06.248,6248,6.6100,7.0500,-1.2000,9.7383,-0.0862,0.1244,-0.0905,-42.19,98.06,107.13,7.0809,6.5535,-0.8751,9.6878
11,2,1,3,2,06.378,6378,7.0600,7.4300,-1.3700,10.3405,-0.1036,0.0851,0.0011,-42.06,99.56,107.06,7.0781,6.6690,-0.9403,9.7703
11,2,1,3,2,06.508,6508,6.6100,7.3800,-1.4100,10.0072,-0.0633,0.0458,-0.1396,-41.38,100.50,106.50,7.0164,6.7627,-1.0022,9.7964
11,2,1,3,2,06.638,6638,6.6600,7.7300,-1.4500,10.3059,-0.0371,0.0065,-0.1276,-40.31,100.88,105.63,6.9695,6.8902,-1.0612,9.8577
11,2,1,3,2,06.768,6768,6.3900,8.1000,-1.3000,10.3987,0.0382,-0.0622,-0.1353,-39.50,100.50,104.88,6.8931,7.0496,-1.0927,9.9200
11,2,1,3,2,06.898,6898,6.0100,8.3200,-1.5200,10.3756,0.0665,-0.0175,-0.0131,-38.56,99.69,103.81,6.7767,7.2170,-1.1490,9.9664
11,2,1,3,2,07.028,7028,7.3000,8.2400,-1.3000,11.0850,0.0567,0.0109,0.3480,-39.69,99.44,104.56,6.8457,7.3518,-1.1689,10.1133
11,3,1,3,2,07.201,7201,6.6300,7.2900,-1.3500,9.9460,-0.0327,-0.0480,-0.2029,-40.44,99.31,105.44,6.8173,7.3437,-1.1928,10.0909
11,3,1,3,2,07.331,7331,6.2800,7.4800,-1.3700,9.8623,-0.0262,-0.0665,0.1745,-40.38,99.13,105.81,6.7465,7.3616,-1.2161,10.0592
11,3,1,3,2,07.461,7461,6.9800,7.3100,-1.2300,10.1818,-0.0131,-0.0305,0.1527,-42.00,99.13,107.75,6.7772,7.3548,-1.2179,10.0751
11,3,1,3,2,07.591,7591,6.8900,7.2100,-1.0800,10.0311,0.0000,-0.0338,0.0065,-42.38,99.06,108.31,6.7921,7.3357,-1.1998,10.0690
11,3,1,3,2,07.721,7721,6.2700,7.3300,-1.2300,9.7239,0.0076,-0.0218,0.0633,-42.38,98.81,108.50,6.7233,7.3350,-1.2037,10.0227
11,3,1,3,2,07.851,7851,6.7000,7.2300,-1.1800,9.9275,0.0175,0.0371,0.1767,-43.13,98.94,109.06,6.7202,7.3211,-1.2006,10.0101
11,3,1,3,2,07.981,7981,7.1000,6.8300,-0.8800,9.8911,0.0229,0.0185,0.1713,-44.44,99.25,110.06,6.7703,7.2564,-1.1584,9.9917
11,3,1,3,2,08.112,8112,6.8200,6.2200,-0.9100,9.2752,0.0644,-0.0742,0.2029,-45.50,98.69,111.13,6.7768,7.1199,-1.1256,9.8937
11,3,1,3,2,08.284,8284,7.2900,6.3700,-0.6300,9.7014,0.0469,-0.0665,0.1745,-47.63,97.75,113.25,6.8445,7.0210,-1.0603,9.8623
11,3,1,3,2,08.414,8414,5.9900,5.6500,-0.5900,8.2553,0.0022,-0.0796,-0.1025,-47.63,96.94,113.44,6.7319,6.8404,-0.9983,9.6491
11,3,1,3,2,08.544,8544,7.5000,5.9500,-1.0000,9.6256,-0.0327,-0.0022,0.4669,-49.69,97.13,115.81,6.8331,6.7230,-0.9986,9.6378
11,3,1,3,2,08.674,8674,8.1000,5.8700,-0.7900,10.0345,-0.0851,0.0076,-0.0764,-51.19,97.81,117.69,7.0000,6.6106,-0.9711,9.6770
11,3,1,3,2,08.804,8804,7.5700,6.3000,-0.8800,9.8878,-0.0687,-0.0251,-0.0654,-50.25,98.19,117.31,7.0751,6.5697,-0.9591,9.7025
11,3,1,3,2,08.934,8934,7.7900,6.4200,-0.8400,10.1295,-0.0284,-0.0731,0.0393,-50.69,98.06,118.19,7.1693,6.5500,-0.9434,9.7566
11,3,1,3,2,09.064,9064,7.2700,6.2100,-0.9800,9.6113,0.0076,-0.0578,-0.0556,-50.31,97.50,118.19,7.1826,6.5052,-0.9482,9.7368
11,3,1,3,2,09.194,9194,7.4600,6.1300,-0.8100,9.6894,-0.0153,-0.0131,0.0676,-50.50,97.44,118.50,7.2192,6.4557,-0.9300,9.7292
11,3,1,3,2,09.367,9367,7.6500,5.9700,-0.8300,9.7392,-0.0327,0.0229,0.0524,-50.81,97.81,119.06,7.2759,6.3917,-0.9168,9.7280
11,3,1,3,2,09.497,9497,7.5400,6.0000,-1.0500,9.6930,-0.0371,0.0305,-0.1298,-50.75,98.38,119.13,7.3107,6.3401,-0.9344,9.7220
11,3,1,3,2,09.627,9627,7.3500,6.3800,-0.6600,9.7551,0.0415,-0.0087,-0.1800,-49.44,98.25,117.75,7.3159,6.3454,-0.8982,9.7259
11,3,1,3,2,09.757,9757,6.3700,6.0800,-1.0100,8.8636,0.0698,-0.0131,-0.3065,-47.75,97.31,115.69,7.1913,6.3104,-0.9129,9.6109
11,3,1,3,2,09.887,9887,7.1500,6.4700,-0.7700,9.6735,0.0709,0.0000,0.0654,-46.81,96.75,114.38,7.1858,6.3314,-0.8941,9.6189
11,3,1,3,2,10.017,10017,6.9800,6.5300,-0.6000,9.5771,0.0567,0.0240,-0.2782,-46.69,96.25,113.81,7.1587,6.3576,-0.8554,9.6124
11,3,1,3,2,10.147,10147,6.9300,7.1000,-0.9500,9.9668,-0.0033,0.0862,-0.2116,-44.56,96.31,111.31,7.1286,6.4554,-0.8678,9.6562
11,3,1,3,2,10.277,10277,7.4200,7.3000,-0.7100,10.4331,0.0295,0.0785,-0.0458,-43.75,96.75,110.06,7.1670,6.5667,-0.8470,9.7573
11,3,1,3,2,10.450,10450,6.4000,7.1000,-1.0600,9.6174,0.0905,0.0480,-0.0676,-42.56,96.38,108.19,7.0659,6.6370,-0.8751,9.7336
11,3,1,3,2,10.580,10580,6.5600,6.9100,-0.7700,9.5590,0.0785,0.0785,-0.1222,-41.88,96.25,106.63,6.9992,6.6730,-0.8612,9.7087
11,3,1,3,2,10.710,10710,6.6100,7.3800,-0.8900,9.9473,0.0185,0.0731,-0.1691,-40.75,96.44,104.88,6.9479,6.7661,-0.8650,9.7367
11,3,1,3,2,10.840,10840,6.7100,7.4800,-1.0500,10.1033,-0.0055,0.0436,0.0524,-40.63,96.81,104.44,6.9166,6.8602,-0.8894,9.7823
11,3,1,3,2,10.970,10970,6.7300,7.6400,-0.7700,10.2106,-0.0240,0.0196,-0.1538,-40.31,97.06,104.06,6.8920,6.9630,-0.8737,9.8359
11,3,1,3,2,11.100,11100,6.2100,7.4800,-0.8100,9.7555,-0.0371,0.0153,-0.1102,-39.31,97.25,103.13,6.8021,7.0311,-0.8653,9.8211
11,3,1,3,2,11.230,11230,6.2200,8.0500,-1.3000,10.2558,-0.0807,0.0142,0.0458,-39.00,97.69,103.00,6.7254,7.1654,-0.9226,9.8704
11,3,1,3,2,11.360,11360,6.7600,8.3200,-1.3000,10.7986,-0.0927,0.0393,0.0273,-39.25,98.63,103.63,6.7300,7.3175,-0.9723,9.9892
11,3,1,3,2,11.533,11533,7.2600,8.5500,-1.5400,11.3217,-0.0687,0.0000,-0.0164,-40.06,99.75,104.81,6.7998,7.4799,-1.0471,10.1628
11,3,1,3,2,11.663,11663,6.4500,8.2400,-1.5200,10.5740,0.0262,-0.0382,0.0654,-39.69,99.69,104.63,6.7537,7.5801,-1.1094,10.2128
11,4,1,3,2,11.793,11793,6.5900,7.3400,-1.2300,9.9407,0.0218,-0.0207,0.1778,-41.13,99.50,106.06,6.7321,7.5484,-1.1253,10.1768
11,4,1,3,2,11.923,11923,6.7200,7.1600,-1.0700,9.8777,-0.0240,-0.0535,0.0938,-41.88,99.50,107.06,6.7305,7.4973,-1.1180,10.1370
11,4,1,3,2,12.053,12053,6.0400,7.3700,-1.3400,9.6226,-0.0196,-0.0709,0.1374,-42.81,99.31,108.50,6.6396,7.4805,-1.1473,10.0677
11,4,1,3,2,12.183,12183,6.6900,6.7600,-0.9800,9.5611,0.0295,-0.0622,0.3327,-44.69,99.13,110.63,6.6462,7.3855,-1.1252,9.9992
11,4,1,3,2,12.313,12313,6.7800,6.2900,-0.7300,9.2771,0.0665,-0.0796,0.0687,-46.19,98.44,112.13,6.6638,7.2412,-1.0732,9.8991
11,4,1,3,2,12.443,12443,6.6200,6.1800,-0.8200,9.0934,0.0578,-0.0796,0.1385,-46.75,97.25,112.69,6.6581,7.1013,-1.0398,9.7898
11,4,1,3,2,12.616,12616,7.5500,6.0500,-0.5900,9.6929,0.0109,-0.0949,0.0676,-49.06,96.38,115.19,6.7756,6.9628,-0.9805,9.7648
11,4,1,3,2,12.746,12746,6.5700,6.3700,-0.9200,9.1972,-0.0076,-0.0807,-0.1233,-48.13,95.56,114.69,6.7485,6.8847,-0.9725,9.6895
11,4,1,3,2,12.877,12877,7.4100,6.2800,-1.1400,9.7799,-0.0502,0.0076,0.4363,-49.19,95.75,116.00,6.8357,6.8050,-0.9946,9.6966
11,4,1,3,2,13.007,13007,7.8300,6.0700,-0.4200,9.9162,-0.0709,0.0120,0.0153,-51.19,96.56,118.31,6.9667,6.7082,-0.9189,9.7149
11,4,1,3,2,13.138,13138,7.8200,6.1100,-0.6400,9.9446,0.0033,0.0175,0.0665,-51.06,96.69,118.31,7.0791,6.6293,-0.8821,9.7386
11,4,1,3,2,13.268,13268,8.0300,5.9800,-0.6800,10.0351,0.0240,-0.0251,0.0393,-52.00,96.56,119.25,7.2044,6.5438,-0.8555,9.7702
11,4,1,3,2,13.399,13399,7.6900,5.8800,-0.5800,9.6978,0.0164,-0.0185,-0.0916,-51.50,96.19,118.69,7.2684,6.4563,-0.8192,9.7563
11,4,1,3,2,13.529,13529,7.7200,6.0900,-0.6900,9.8571,0.0055,-0.0142,-0.1014,-51.19,95.94,118.44,7.3279,6.4080,-0.8022,9.7675
11,4,1,3,2,13.706,13706,7.1400,6.1000,-0.5200,9.4053,0.0044,0.0327,-0.0360,-49.88,95.81,117.06,7.3032,6.3674,-0.7650,9.7193
11,4,1,3,2,13.837,13837,7.4900,5.8200,-0.6300,9.5063,0.0076,0.0709,0.0491,-50.25,96.38,117.19,7.3278,6.2953,-0.7472,9.6895
11,4,1,3,2,13.967,13967,7.1900,6.1800,-0.5100,9.4947,0.0033,0.0665,-0.3174,-49.25,96.75,115.88,7.3096,6.2801,-0.7159,9.6635
11,4,1,3,2,14.097,14097,6.9500,6.1400,-0.7400,9.3032,-0.0218,0.0382,-0.1484,-47.81,96.88,114.25,7.2622,6.2616,-0.7191,9.6159
11,4,1,3,2,14.228,14228,6.7400,6.3700,-0.9400,9.3214,-0.0513,0.0545,-0.1887,-46.56,97.44,113.00,7.1934,6.2759,-0.7482,9.5756
11,4,1,3,2,14.358,14358,6.9500,6.8000,-1.1700,9.7934,-0.0447,0.0458,-0.1920,-45.06,98.00,111.56,7.1613,6.3450,-0.8038,9.6015
11,4,1,3,2,14.488,14488,7.1000,6.9100,-1.2500,9.9860,-0.0687,0.0447,0.0131,-44.38,98.81,111.00,7.1533,6.4194,-0.8626,9.6500
11,4,1,3,2,14.619,14619,6.9600,6.9100,-1.1300,9.8725,-0.0556,0.0262,-0.2040,-43.94,99.50,110.81,7.1278,6.4841,-0.8978,9.6775
11,4,1,3,2,14.791,14791,6.4800,7.6000,-1.3100,10.0731,0.0349,0.0273,-0.1614,-41.56,99.44,108.31,7.0424,6.6311,-0.9521,9.7198
11,4,1,3,2,14.921,14921,6.3100,7.7100,-1.2200,10.0374,0.0764,0.0251,-0.1582,-40.38,99.00,106.69,6.9459,6.7733,-0.9874,9.7518
11,4,1,3,2,15.051,15051,6.3000,7.5700,-1.0600,9.9055,0.0851,0.0502,-0.0076,-39.75,98.56,105.44,6.8608,6.8783,-0.9970,9.7660
11,4,1,3,2,15.181,15181,6.1800,7.4000,-1.1100,9.7049,0.0065,0.1047,-0.0949,-39.50,98.63,104.44,6.7711,6.9470,-1.0119,9.7536
11,4,1,3,2,15.311,15311,6.5900,7.6300,-1.2200,10.1555,-0.0513,0.1047,0.0567,-38.88,99.38,103.38,6.7472,7.0370,-1.0393,9.8043
11,4,1,3,2,15.441,15441,6.5900,7.5600,-1.3900,10.1249,-0.0753,0.0611,-0.0491,-39.06,100.31,103.50,6.7265,7.1059,-1.0855,9.8447
11,4,1,3,2,15.571,15571,6.3800,7.9600,-1.4900,10.3095,-0.0720,0.0240,-0.1298,-38.13,101.00,102.75,6.6808,7.2185,-1.1388,9.9014
11,4,1,3,2,15.701,15701,5.8800,7.7400,-1.6600,9.8609,-0.0535,0.0196,0.0393,-37.81,101.44,102.69,6.5753,7.2872,-1.2075,9.8892
11,4,1,3,2,15.874,15874,6.1000,7.7100,-1.5800,9.9574,-0.0393,0.0644,-0.0273,-37.75,102.25,102.63,6.5127,7.3429,-1.2566,9.8951
11,4,1,3,2,16.004,16004,6.3000,7.6000,-1.8200,10.0380,-0.0218,0.0295,0.0665,-37.94,102.75,102.69,6.4847,7.3768,-1.3308,9.9116
11,4,1,3,2,16.134,16134,6.2000,7.6400,-1.8700,10.0153,-0.0262,-0.0065,0.0687,-38.38,103.00,103.25,6.4471,7.4115,-1.4019,9.9228
11,4,1,3,2,16.264,16264,6.5200,7.9300,-1.9500,10.4498,-0.0153,-0.0262,-0.0055,-38.63,103.06,103.63,6.4567,7.4798,-1.4741,9.9905
11,4,1,3,2,16.394,16394,6.9400,8.1300,-1.9600,10.8675,-0.0175,-0.0535,0.1429,-39.19,103.00,104.50,6.5204,7.5655,-1.5381,10.1054
11,4,1,3,2,16.524,16524,6.9200,7.9700,-1.9600,10.7354,-0.0458,-0.0567,0.0731,-39.94,103.00,105.75,6.5731,7.6188,-1.5937,10.1878
11,4,1,3,2,16.654,16654,6.9400,7.7300,-1.7000,10.5265,-0.0578,-0.0774,0.0785,-40.75,103.13,107.19,6.6214,7.6334,-1.6077,10.2322
11,5,1,3,2,16.785,16785,6.6300,7.5000,-1.3900,10.1064,-0.0240,-0.1353,0.1658,-41.69,102.75,108.81,6.6226,7.6159,-1.5790,10.2153
11,5,1,3,2,16.957,16957,6.0000,6.9600,-1.5800,9.3241,0.0382,-0.1178,0.2465,-43.31,102.06,111.25,6.5405,7.5294,-1.5792,10.0978
11,5,1,3,2,17.087,17087,6.6300,6.2600,-1.3500,9.2178,0.1134,-0.0807,0.3196,-45.38,101.38,113.25,6.5523,7.3622,-1.5490,9.9766
11,5,1,3,2,17.217,17217,6.6300,5.9400,-1.0600,8.9646,0.1189,-0.0676,0.1287,-47.00,100.25,114.50,6.5626,7.1748,-1.4845,9.8361
11,5,1,3,2,17.347,17347,6.2900,5.6800,-0.7700,8.5100,0.0971,-0.0469,0.1134,-47.63,99.06,114.69,6.5266,6.9778,-1.3904,9.6550
11,5,1,3,2,17.477,17477,7.3700,5.5500,-0.9800,9.2779,0.0164,-0.0207,0.3709,-49.69,98.75,116.56,6.6378,6.7896,-1.3363,9.5888
11,5,1,3,2,17.607,17607,7.6800,5.8200,-0.8700,9.6753,-0.0436,-0.0120,0.0044,-51.00,99.00,118.13,6.7751,6.6619,-1.2749,9.5869
11,5,1,3,2,17.737,17737,7.6100,5.8000,-1.0300,9.6236,-0.0447,0.0131,0.2291,-51.50,99.44,118.94,6.8851,6.5483,-1.2426,9.5828
11,5,1,3,2,17.867,17867,8.2100,5.6700,-0.8100,10.0104,-0.0251,-0.0011,0.1113,-53.63,100.19,121.25,7.0597,6.4326,-1.1856,9.6241
11,5,1,3,2,18.040,18040,7.6600,5.8600,-1.0400,9.7004,0.0360,0.0011,-0.1124,-52.56,99.75,120.06,7.1388,6.3571,-1.1664,9.6300
11,5,1,3,2,18.170,18170,7.8300,5.7200,-0.9800,9.7462,0.0338,-0.0065,0.0153,-52.75,99.50,120.00,7.2299,6.2732,-1.1418,9.6399
11,5,1,3,2,18.300,18300,7.6400,5.8400,-0.8900,9.6575,0.0382,0.0011,-0.0502,-52.25,99.13,119.31,7.2839,6.2161,-1.1087,9.6397
11,5,1,3,2,18.430,18430,7.7200,5.7000,-0.9100,9.6393,0.0295,0.0065,-0.0022,-52.31,98.88,119.13,7.3414,6.1481,-1.0825,9.6367
11,5,1,3,2,18.560,18560,7.7600,5.6400,-0.8700,9.6325,-0.0022,0.0196,-0.0055,-52.25,98.88,119.00,7.3966,6.0811,-1.0545,9.6333
11,5,1,3,2,18.690,18690,7.8300,5.7200,-0.8500,9.7340,-0.0033,0.0327,-0.1058,-52.00,99.00,118.63,7.4537,6.0335,-1.0275,9.6445
11,5,1,3,2,18.820,18820,7.1000,5.6000,-0.7600,9.0746,0.0098,0.0196,-0.3360,-50.63,99.00,117.13,7.4071,5.9764,-0.9923,9.5690
11,5,1,3,2,18.950,18950,6.8100,6.3900,-1.0300,9.3952,-0.0033,0.0175,-0.1724,-48.19,98.69,114.63,7.3284,6.0309,-0.9972,9.5431
11,5,1,3,2,19.123,19123,7.0400,6.0800,-1.0000,9.3556,-0.0218,0.0480,-0.0622,-47.75,98.88,114.06,7.2904,6.0374,-0.9976,9.5181
11,5,1,3,2,19.253,19253,7.0700,6.3000,-1.0800,9.5311,-0.0840,0.1091,-0.1811,-47.00,99.94,113.31,7.2613,6.0720,-1.0085,9.5191
11,5,1,3,2,19.383,19383,6.8000,6.5200,-1.2200,9.4994,-0.1233,0.0731,-0.1963,-45.38,101.06,111.88,7.2006,6.1310,-1.0363,9.5137
11,5,1,3,2,19.513,19513,6.8200,6.7400,-1.4400,9.6961,-0.1244,0.0404,-0.0993,-44.63,102.25,111.69,7.1504,6.2113,-1.0895,9.5339
11,5,1,3,2,19.643,19643,6.6000,7.1700,-1.6400,9.8822,-0.0665,0.0207,-0.2269,-43.31,102.88,110.69,7.0779,6.3376,-1.1621,9.5714
11,5,1,3,2,19.773,19773,6.5300,7.0400,-1.6800,9.7481,-0.0142,0.0175,-0.1745,-42.13,103.00,109.56,7.0057,6.4302,-1.2303,9.5885
11,5,1,3,2,19.903,19903,6.3400,7.2200,-1.7900,9.7738,-0.0175,0.0295,-0.1080,-40.94,103.06,108.38,6.9180,6.5342,-1.3041,9.6050
11,5,1,3,2,20.033,20033,6.2300,7.4500,-1.9700,9.9094,-0.0371,0.0709,-0.1014,-40.19,103.50,107.44,6.8273,6.6549,-1.3918,9.6352
11,5,1,3,2,20.206,20206,6.8300,7.9400,-1.9600,10.6552,-0.0436,0.0600,0.0175,-39.44,104.63,106.63,6.8277,6.8243,-1.4667,9.7641
11,5,1,3,2,20.336,20336,6.8000,7.6700,-2.1200,10.4672,0.0262,0.0076,0.0502,-40.06,104.88,107.13,6.8240,6.9357,-1.5528,9.8530
11,5,1,3,2,20.466,20466,6.6500,7.6300,-1.8500,10.2889,0.0535,0.0055,-0.0458,-39.69,104.50,106.56,6.8011,7.0272,-1.5919,9.9081
11,5,1,3,2,20.596,20596,6.5300,7.4400,-1.8500,10.0706,0.0491,-0.0022,0.0218,-39.81,104.06,106.31,6.7654,7.0816,-1.6260,9.9279
11,5,1,3,2,20.726,20726,6.4400,7.2400,-1.8300,9.8610,0.0153,0.0076,0.0371,-39.94,103.81,106.19,6.7225,7.1025,-1.6528,9.9181
11,5,1,3,2,20.857,20857,7.1300,7.6700,-1.9400,10.6503,-0.0284,0.0087,0.0818,-40.63,104.00,106.94,6.7762,7.1773,-1.6907,10.0144
11,5,1,3,2,20.987,20987,7.0500,7.6700,-1.9800,10.6043,-0.0502,-0.0295,0.0404,-40.94,104.31,107.63,6.8123,7.2422,-1.7288,10.0918
11,5,1,3,2,21.117,21117,7.2200,7.4900,-2.0300,10.5995,-0.0436,-0.0840,0.1985,-42.13,104.56,109.44,6.8660,7.2748,-1.7685,10.1584
11,6,1,3,2,21.290,21290,6.8200,7.2700,-1.8500,10.1384,0.0316,-0.1374,0.1669,-43.69,103.94,111.81,6.8599,7.2742,-1.7792,10.1557
11,6,1,3,2,21.422,21422,7.0500,7.0100,-1.4000,10.0401,0.0622,-0.1091,0.2203,-45.31,103.13,113.69,6.8850,7.2394,-1.7293,10.1391
11,6,1,3,2,21.553,21553,6.5600,6.4100,-1.4200,9.2811,0.0502,-0.0687,0.1276,-46.25,102.25,114.63,6.8422,7.1301,-1.6885,10.0252
11,6,1,3,2,21.687,21687,7.2900,5.9500,-1.0900,9.4728,0.0480,-0.0491,0.4178,-48.31,102.06,116.69,6.9012,6.9746,-1.6096,9.9429
11,6,1,3,2,21.818,21818,6.5900,5.3200,-0.9100,8.5181,0.0556,-0.1080,-0.1538,-49.56,101.13,117.88,6.8602,6.7566,-1.5174,9.7476
11,6,1,3,2,21.948,21948,6.7500,5.8100,-1.3800,9.0124,0.0676,-0.0993,0.3240,-49.69,99.81,118.00,6.8457,6.6318,-1.4993,9.6484
11,6,1,3,2,22.079,22079,7.5200,5.1800,-1.0300,9.1893,0.0295,-0.0273,0.2651,-53.13,99.69,121.31,6.9345,6.4405,-1.4375,9.5726
11,6,1,3,2,22.209,22209,7.9100,5.5900,-1.1000,9.7481,-0.0240,0.0720,0.0938,-53.75,100.31,121.88,7.0631,6.3284,-1.3930,9.5852
11,6,1,3,2,22.382,22382,8.0300,5.8200,-1.0400,9.9717,-0.0262,0.0109,-0.1342,-54.00,100.88,122.19,7.1905,6.2614,-1.3465,9.6292
11,6,1,3,2,22.513,22513,8.0800,5.5000,-1.1100,9.8371,0.0153,0.0011,0.2149,-54.50,100.94,122.69,7.3077,6.1611,-1.3153,9.6484
11,6,1,3,2,22.643,22643,8.1300,5.4600,-1.1200,9.8571,0.0120,-0.0098,-0.1593,-54.81,100.88,122.88,7.4161,6.0687,-1.2896,9.6690
11,6,1,3,2,22.774,22774,7.8700,5.6900,-1.0300,9.7660,0.0360,-0.0175,0.0142,-54.00,100.44,122.00,7.4759,6.0188,-1.2554,9.6794
11,6,1,3,2,22.905,22905,8.0900,5.5200,-0.9600,9.8407,0.0480,-0.0240,-0.0120,-54.44,100.00,122.19,7.5568,5.9531,-1.2165,9.6966
11,6,1,3,2,23.035,23035,7.7700,5.6300,-0.9500,9.6422,0.0240,-0.0229,-0.0884,-53.81,99.31,121.44,7.5849,5.9105,-1.1813,9.6881
11,6,1,3,2,23.166,23166,7.7400,5.7500,-0.8900,9.6831,0.0065,-0.0087,-0.0316,-53.56,99.00,121.13,7.6053,5.8894,-1.1430,9.6867
11,6,1,3,2,23.298,23298,7.7900,5.6900,-0.8700,9.6859,-0.0065,0.0055,0.0153,-53.50,98.94,121.06,7.6297,5.8631,-1.1070,9.6857
11,6,1,3,2,23.471,23471,7.8000,5.7500,-0.8800,9.7302,-0.0164,0.0011,0.0404,-53.56,99.13,121.31,7.6521,5.8482,-1.0771,9.6910
11,6,1,3,2,23.603,23603,8.0500,5.6500,-0.8900,9.8751,-0.0109,-0.0076,0.0731,-54.25,99.38,122.06,7.7045,5.8221,-1.0524,9.7141
11,6,1,3,2,23.733,23733,7.9200,5.5900,-0.9600,9.7415,0.0022,-0.0055,0.0065,-54.38,99.44,122.19,7.7329,5.7915,-1.0402,9.7171
11,6,1,3,2,23.863,23863,7.8900,5.3900,-0.9900,9.6065,0.0131,0.0153,0.0098,-54.50,99.44,122.31,7.7536,5.7386,-1.0336,9.7015
11,6,1,3,2,23.993,23993,7.4400,5.1700,-1.0300,9.1183,0.0229,0.0676,-0.0087,-54.44,99.75,122.00,7.7123,5.6637,-1.0331,9.6241
11,6,1,3,2,24.124,24124,7.0000,5.2000,-1.0700,8.7855,0.0535,0.1025,-0.3622,-53.38,100.06,120.38,7.6184,5.6026,-1.0380,9.5135
11,6,1,3,2,24.254,24254,6.9900,5.5900,-0.6100,8.9711,0.0196,0.1364,-0.3960,-50.25,100.31,116.44,7.5356,5.6009,-0.9816,9.4403
11,6,1,3,2,24.385,24385,7.1500,5.9300,-1.1800,9.3637,-0.0011,0.1276,-0.1625,-48.38,100.69,114.00,7.4848,5.6443,-1.0077,9.4285
11,6,1,3,2,24.558,24558,6.6700,6.3700,-1.6400,9.3678,-0.1473,0.1767,-0.3120,-45.31,102.50,110.69,7.3774,5.7399,-1.0911,9.4108
11,6,1,3,2,24.688,24688,7.4100,7.2300,-1.7900,10.5064,-0.1494,0.1265,-0.0142,-44.38,104.63,109.94,7.3817,5.9363,-1.1832,9.5462
11,6,1,3,2,24.818,24818,6.8400,7.4000,-2.3000,10.3361,-0.0807,0.0774,-0.2989,-43.19,105.81,109.06,7.3103,6.1291,-1.3303,9.6321
11,6,1,3,2,24.948,24948,6.7200,7.5200,-2.1400,10.3096,0.0011,0.0840,-0.0654,-41.50,106.31,107.19,7.2326,6.3124,-1.4370,9.7068
11,6,1,3,2,25.078,25078,6.6800,7.6700,-2.0900,10.3836,0.0949,0.0382,-0.1756,-40.88,106.13,105.94,7.1597,6.4913,-1.5231,9.7836
11,6,1,3,2,25.208,25208,6.1400,7.1400,-2.0200,9.6312,0.1124,0.0295,-0.1233,-39.50,105.19,103.69,7.0254,6.5768,-1.5886,9.7536
11,6,1,3,2,25.338,25338,6.7500,7.6800,-2.0700,10.4322,0.0524,0.0513,-0.0327,-39.25,104.88,102.75,6.9891,6.7222,-1.6520,9.8369
11,6,1,3,2,25.468,25468,7.0000,7.9500,-2.1300,10.8046,-0.0153,0.0076,-0.1025,-38.75,104.75,101.94,6.9905,6.8840,-1.7150,9.9598
11,6,1,3,2,25.641,25641,6.7800,7.8000,-2.2400,10.5748,-0.0916,-0.0611,0.1004,-39.50,105.31,103.38,6.9628,7.0047,-1.7842,10.0364
11,6,1,3,2,25.772,25772,6.7300,7.9400,-2.3500,10.6705,-0.0687,-0.0949,-0.0916,-39.63,105.56,104.44,6.9321,7.1279,-1.8587,10.1152
11,6,1,3,2,25.902,25902,6.8700,7.8700,-2.1100,10.6577,-0.0120,-0.1571,0.1811,-40.13,105.25,105.75,6.9239,7.2257,-1.8918,10.1848
11,7,1,3,2,26.033,26033,6.7000,7.4600,-1.8000,10.1873,0.0229,-0.1854,0.1516,-41.88,104.38,108.31,6.8944,7.2566,-1.8797,10.1845
11,7,1,3,2,26.164,26164,6.3200,6.9800,-1.6200,9.5544,0.0327,-0.1276,0.1222,-42.81,103.25,109.81,6.8187,7.2201,-1.8455,10.1011
11,7,1,3,2,26.294,26294,6.4000,6.5000,-1.4800,9.2412,0.0251,-0.0949,0.1876,-44.00,102.56,111.31,6.7635,7.1252,-1.7973,9.9872
11,7,1,3,2,26.425,26425,6.2600,6.0600,-1.2400,8.8005,0.0545,-0.1418,0.1854,-45.56,101.75,113.19,6.6972,6.9849,-1.7239,9.8292
11,7,1,3,2,26.559,26559,6.4800,6.4300,-1.1600,9.2022,0.0774,-0.1604,0.3043,-47.13,100.50,115.00,6.6686,6.9118,-1.6496,9.7449
11,7,1,3,2,26.732,26732,7.2100,5.3600,-0.7900,9.0187,0.0687,-0.1494,0.5116,-51.75,98.88,119.81,6.7399,6.7073,-1.5363,9.6319
11,7,1,3,2,26.862,26862,7.7100,5.2400,-0.9600,9.3714,0.0404,-0.1014,0.2683,-54.88,97.94,123.13,6.8677,6.5139,-1.4604,9.5776
11,7,1,3,2,26.992,26992,7.9900,5.2200,-0.7500,9.5735,0.0338,-0.0251,0.0567,-55.88,97.38,124.06,7.0156,6.3434,-1.3668,9.5565
11,7,1,3,2,27.122,27122,7.8100,5.1800,-0.8900,9.4139,0.0175,-0.0196,-0.0273,-56.06,97.06,124.19,7.1203,6.1901,-1.3039,9.5245
11,7,1,3,2,27.252,27252,8.2400,5.2200,-0.5200,9.7681,0.0087,0.0218,0.1724,-56.81,97.38,124.88,7.2679,6.0623,-1.2006,9.5401
11,7,1,3,2,27.382,27382,8.0700,5.1100,-0.5800,9.5694,0.0175,0.0338,-0.0535,-56.88,97.38,124.75,7.3736,5.9368,-1.1189,9.5324
11,7,1,3,2,27.513,27513,8.5500,4.9400,-0.4600,9.8852,0.0065,0.0371,0.1494,-57.69,97.75,125.38,7.5286,5.8054,-1.0320,9.5628
11,7,1,3,2,27.643,27643,8.3300,5.1600,-0.5800,9.8158,-0.0153,0.0087,-0.1189,-57.81,97.69,125.44,7.6342,5.7204,-0.9725,9.5890
11,7,1,3,2,27.816,27816,8.2200,4.9800,-0.6600,9.6335,-0.0044,0.0120,0.2051,-58.19,97.81,125.88,7.7114,5.6228,-0.9313,9.5890
11,7,1,3,2,27.946,27946,8.4600,4.7900,-0.8300,9.7573,-0.0262,0.0229,0.0185,-59.13,98.38,126.88,7.8100,5.5131,-0.9179,9.6038
11,7,1,3,2,28.076,28076,8.2700,4.8900,-0.8700,9.6469,-0.0295,0.0251,-0.0109,-58.94,98.88,126.81,7.8706,5.4310,-0.9116,9.6059
11,7,1,3,2,28.206,28206,8.3000,4.6400,-0.7900,9.5417,-0.0153,0.0425,-0.0731,-58.88,99.44,126.75,7.9272,5.3267,-0.8956,9.5926
11,7,1,3,2,28.336,28336,7.8000,4.9800,-0.9000,9.2979,-0.0295,0.0524,-0.3447,-57.19,99.63,125.06,7.9105,5.2810,-0.8962,9.5534
11,7,1,3,2,28.466,28466,7.9300,5.2800,-0.7800,9.5589,-0.0262,0.0720,-0.1156,-55.38,100.06,123.25,7.9130,5.2809,-0.8809,9.5541
11,7,1,3,2,28.596,28596,7.4200,5.0800,-0.7500,9.0236,0.0076,0.0295,-0.5040,-53.44,100.25,121.19,7.8481,5.2544,-0.8636,9.4840
11,7,1,3,2,28.726,28726,6.4100,6.0700,-1.1500,8.9026,-0.0273,0.0513,-0.5661,-49.00,99.63,116.63,7.6586,5.3619,-0.9014,9.3923
11,7,1,3,2,28.899,28899,6.8900,6.6200,-1.4600,9.6658,0.0000,0.0971,-0.0185,-46.63,100.06,113.88,7.5573,5.5277,-0.9750,9.4137
11,7,1,3,2,29.030,29030,7.1400,6.6500,-1.5400,9.8779,-0.0556,0.0993,-0.1614,-45.94,101.19,112.94,7.5023,5.6756,-1.0494,9.4656
11,7,1,3,2,29.160,29160,7.1900,6.9900,-1.7100,10.1725,-0.0425,0.0349,-0.0436,-45.13,102.06,112.19,7.4611,5.8488,-1.1365,9.5482
11,7,1,3,2,29.291,29291,6.8800,7.1700,-1.6100,10.0665,0.0164,-0.0229,-0.1113,-44.38,102.06,111.50,7.3846,6.0229,-1.1989,9.6044
11,7,1,3,2,29.422,29422,7.0000,6.7100,-1.5300,9.8166,0.0502,-0.0316,0.1254,-44.50,101.69,111.56,7.3339,6.1134,-1.2425,9.6283
11,7,1,3,2,29.552,29552,7.3000,7.1900,-1.3800,10.3388,0.0371,0.0022,-0.1047,-44.69,101.31,111.56,7.3294,6.2553,-1.2606,9.7179
11,7,1,3,2,29.683,29683,6.6500,7.1200,-1.2300,9.8199,0.0327,0.0382,-0.2127,-42.88,100.88,109.38,7.2399,6.3692,-1.2566,9.7243
11,7,1,3,2,29.815,29815,6.5400,7.4300,-1.4400,10.0025,0.0087,0.0447,0.0022,-42.19,100.88,108.38,7.1477,6.5090,-1.2808,9.7518
11,7,1,3,2,29.988,29988,7.1400,7.8400,-1.3800,10.6934,0.0425,0.0665,0.0458,-42.44,101.19,108.13,7.1467,6.6844,-1.2938,9.8707
11,7,1,3,2,30.120,30120,7.7800,7.9400,-1.6100,11.2323,0.0316,0.0415,0.1702,-42.88,101.25,108.06,7.2301,6.8499,-1.3355,10.0488
11,7,1,3,2,30.250,30250,7.7800,7.4200,-1.5600,10.8636,-0.0044,-0.0076,0.0196,-44.13,101.56,109.19,7.3026,6.9250,-1.3651,10.1561
11,8,1,3,2,30.380,30380,6.7600,7.3500,-1.5300,10.1025,-0.0404,-0.0295,0.0742,-44.06,101.56,109.38,7.2311,6.9810,-1.3868,10.1462
11,8,1,3,2,30.511,30511,7.3100,6.7900,-1.3400,10.0666,-0.0120,-0.0611,0.2553,-45.69,101.75,111.38,7.2415,6.9558,-1.3806,10.1355
11,8,1,3,2,30.641,30641,6.9800,6.2600,-1.4000,9.4799,-0.0491,-0.0982,0.1418,-46.94,101.56,113.19,7.2070,6.8641,-1.3832,10.0484
11,8,1,3,2,30.772,30772,7.1000,6.3400,-1.3100,9.6084,-0.0611,-0.1014,0.0589,-47.69,101.44,114.75,7.1929,6.7951,-1.3736,9.9899
11,8,1,3,2,30.902,30902,6.8700,5.9000,-1.1500,9.1285,-0.0556,-0.1560,0.2334,-48.94,101.06,116.94,7.1504,6.6771,-1.3441,9.8751
11,8,1,3,2,31.075,31075,7.2500,5.2200,-0.7100,8.9619,-0.0371,-0.1931,0.1745,-51.50,100.13,120.75,7.1635,6.4851,-1.2605,9.7448
11,8,1,3,2,31.205,31205,7.9800,5.2900,-0.8300,9.6101,-0.1451,-0.2836,0.2236,-53.50,98.75,124.13,7.2711,6.3276,-1.2038,9.7137
11,8,1,3,2,31.335,31335,7.3900,5.1600,-0.5700,9.0312,-0.2171,-0.2738,0.3534,-55.56,97.56,128.44,7.2868,6.1738,-1.1203,9.6160
11,8,1,3,2,31.465,31465,8.3000,4.5100,-0.6800,9.4706,-0.2782,-0.2269,0.6163,-59.75,97.50,135.06,7.4203,5.9545,-1.0623,9.5732
11,8,1,3,2,31.595,31595,8.9000,4.3900,-0.4400,9.9336,-0.2803,-0.2618,0.4723,-63.50,97.13,141.44,7.6153,5.7484,-0.9803,9.5915
11,8,1,3,2,31.725,31725,8.6800,3.7000,-0.6500,9.4581,-0.2716,-0.2149,0.1724,-66.25,95.94,146.75,7.7556,5.4784,-0.9367,9.5415
11,8,1,3,2,31.855,31855,8.3700,4.4000,-0.2000,9.4582,-0.1974,-0.0698,-0.2214,-65.81,95.69,148.31,7.8365,5.3363,-0.8397,9.5180
11,8,1,3,2,31.985,31985,8.5100,4.7300,-0.5700,9.7528,-0.0436,0.0065,-0.0851,-64.06,95.25,147.31,7.9253,5.2564,-0.8041,9.5439
11,8,1,3,2,32.158,32158,8.4800,4.7200,-0.1500,9.7063,0.1047,0.1124,-0.1713,-62.25,95.88,144.88,7.9984,5.1857,-0.7179,9.5594
11,8,1,3,2,32.289,32289,8.2900,5.0100,-0.5800,9.7036,0.1996,0.1702,-0.1396,-60.56,96.19,141.69,8.0368,5.1626,-0.6998,9.5777
11,8,1,3,2,32.419,32419,8.4900,4.6300,-0.5900,9.6884,0.2716,0.2018,0.1058,-60.50,96.88,139.50,8.0965,5.0924,-0.6853,9.5894
11,8,1,3,2,32.550,32550,8.4300,4.4600,-0.8400,9.5740,0.2978,0.2400,-0.0229,-60.38,97.69,136.75,8.1405,5.0091,-0.7057,9.5842
11,8,1,3,2,32.681,32681,8.7300,4.3400,-0.7900,9.7812,0.3229,0.2574,-0.0044,-60.63,99.13,134.31,8.2182,4.9209,-0.7168,9.6056
11,8,1,3,2,32.815,32815,7.6300,4.2300,-0.7000,8.7521,0.3076,0.2378,-0.3272,-59.06,99.50,129.88,8.1407,4.8299,-0.7146,9.4925
11,8,1,3,2,32.945,32945,7.8700,4.2500,-0.9500,8.9945,0.2193,0.2705,0.0545,-57.88,100.50,126.19,8.1050,4.7534,-0.7456,9.4256
11,8,1,3,2,33.077,33077,8.2500,5.1300,-0.8600,9.7529,0.1025,0.2160,-0.5160,-55.88,101.75,122.25,8.1241,4.8031,-0.7607,9.4683
11,8,1,3,2,33.250,33250,7.4000,5.3600,-1.2300,9.2197,-0.0120,0.1342,-0.0316,-52.06,102.63,117.31,8.0287,4.8765,-0.8225,9.4295
11,8,1,3,2,33.380,33380,8.2200,5.7000,-1.2200,10.0770,-0.0142,0.1069,-0.0982,-52.13,103.88,117.19,8.0539,4.9850,-0.8749,9.5121
11,8,1,3,2,33.510,33510,7.8000,6.2700,-1.9400,10.1939,-0.0327,0.0949,-0.5301,-49.50,104.13,114.31,8.0204,5.1543,-1.0153,9.5878
11,8,1,3,2,33.640,33640,7.6400,6.7300,-1.9100,10.3591,-0.0415,0.0316,-0.2476,-46.44,104.19,111.13,7.9703,5.3619,-1.1332,9.6727
11,8,1,3,2,33.770,33770,7.3700,6.8600,-2.0600,10.2772,-0.0120,-0.0469,-0.2596,-45.63,104.25,110.63,7.8912,5.5594,-1.2553,9.7341
11,8,1,3,2,33.900,33900,6.4000,7.4200,-2.0100,10.0028,0.0251,-0.0022,-0.4516,-42.69,103.38,107.63,7.6947,5.8045,-1.3547,9.7333
11,8,1,3,2,34.030,34030,6.6800,7.5900,-1.4900,10.2201,0.0982,0.0175,-0.0185,-41.38,102.75,105.81,7.5610,6.0398,-1.3726,9.7740
11,8,1,3,2,34.160,34160,6.6000,7.3700,-1.6500,10.0299,0.0709,0.0175,-0.1593,-40.75,101.88,104.56,7.4344,6.2151,-1.4091,9.7920
11,8,1,3,2,34.333,34333,6.7200,7.3300,-1.5500,10.0643,-0.0349,0.0993,-0.4123,-38.94,102.00,102.19,7.3402,6.3620,-1.4277,9.8180
11,8,1,3,2,34.463,34463,6.2200,7.8300,-1.7100,10.1450,-0.1113,0.0415,-0.0818,-36.75,102.63,100.00,7.1926,6.5555,-1.4649,9.8414
11,8,1,3,2,34.593,34593,6.9600,8.4700,-2.2700,11.1953,-0.1549,-0.0382,0.1789,-37.69,103.81,101.69,7.1620,6.8077,-1.5710,10.0053
11,8,1,3,2,34.723,34723,7.1300,8.4700,-2.4800,11.3458,-0.1407,-0.1244,0.1254,-39.13,104.75,104.50,7.1577,7.0268,-1.6908,10.1719
11,8,1,3,2,34.853,34853,6.6900,8.0500,-2.1900,10.6937,-0.0535,-0.1800,0.2793,-40.75,104.88,107.44,7.0961,7.1616,-1.7566,10.2337
11,8,1,3,2,34.983,34983,6.8400,7.4100,-1.7900,10.2420,0.0207,-0.1942,0.3894,-43.19,104.19,110.88,7.0624,7.1944,-1.7610,10.2341
11,9,1,3,2,35.113,35113,6.9100,6.4300,-1.6100,9.5752,0.0196,-0.1396,0.3120,-46.06,103.50,114.31,7.0423,7.0936,-1.7411,10.1462
11,9,1,3,2,35.243,35243,7.0800,6.0100,-1.3800,9.3889,-0.0513,-0.1069,0.2498,-48.25,103.25,117.19,7.0473,6.9508,-1.6935,10.0422
11,9,1,3,2,35.416,35416,6.7400,5.7200,-1.0100,8.8975,-0.0665,-0.1342,0.0469,-50.19,103.06,120.38,7.0068,6.7886,-1.6034,9.8869
11,9,1,3,2,35.546,35546,6.2200,5.5700,-1.0500,8.4152,0.0545,-0.1298,0.2323,-50.50,101.75,121.19,6.9031,6.6281,-1.5305,9.6916
11,9,1,3,2,35.676,35676,7.7200,4.8800,-1.3100,9.2265,0.0894,-0.1058,0.6610,-54.19,100.81,124.75,7.0107,6.3977,-1.5014,9.6091
11,9,1,3,2,35.806,35806,8.3100,5.1400,-1.3000,9.8573,0.0393,-0.0436,0.0600,-57.00,100.44,127.44,7.1819,6.2320,-1.4749,9.6225
11,9,1,3,2,35.936,35936,8.1800,5.2800,-0.8300,9.7714,0.0731,-0.0011,0.1538,-56.94,100.13,127.06,7.3135,6.1065,-1.3899,9.6285
11,9,1,3,2,36.066,36066,8.5500,4.6600,-0.8900,9.7780,0.1004,-0.0273,0.2596,-59.19,99.81,128.81,7.4764,5.9159,-1.3240,9.6254
11,9,1,3,2,36.196,36196,8.3300,4.5200,-0.7600,9.5077,0.0633,0.0098,-0.0011,-59.81,99.38,128.94,7.5889,5.7320,-1.2497,9.5921
11,9,1,3,2,36.326,36326,8.4000,4.4300,-0.6800,9.5209,0.0240,0.0305,0.0382,-60.19,99.25,129.00,7.6958,5.5604,-1.1746,9.5668
11,9,1,3,2,36.499,36499,8.8100,4.5400,-0.7300,9.9378,-0.0120,0.0305,0.0273,-61.06,100.00,129.75,7.8426,5.4259,-1.1160,9.6017
11,9,1,3,2,36.629,36629,8.5000,4.7000,-0.8200,9.7474,-0.0131,0.0065,-0.1222,-60.56,100.13,129.25,7.9292,5.3303,-1.0770,9.6148
11,9,1,3,2,36.759,36759,8.1800,4.4300,-0.6700,9.3266,0.0175,-0.0120,-0.1265,-59.81,99.88,128.50,7.9623,5.2116,-1.0234,9.5711
11,9,1,3,2,36.889,36889,7.3700,5.4700,-0.9900,9.2314,0.0316,0.0011,-0.4723,-57.69,98.88,126.19,7.8842,5.2457,-1.0190,9.5245
11,9,1,3,2,37.019,37019,8.1400,5.7400,-0.8200,9.9940,0.0284,0.0753,0.1647,-56.69,98.94,124.81,7.9179,5.3108,-0.9928,9.5856
11,9,1,3,2,37.149,37149,8.2200,4.8600,-0.6800,9.5734,-0.0055,0.0960,0.0207,-57.63,100.06,125.50,7.9577,5.2514,-0.9516,9.5817
11,9,1,3,2,37.279,37279,7.5600,4.9400,-0.9600,9.0818,-0.0425,0.1822,-0.2989,-56.25,101.50,123.88,7.9053,5.2104,-0.9527,9.5158
11,9,1,3,2,37.409,37409,7.9600,5.1300,-1.3300,9.5628,-0.0785,0.1353,-0.1069,-54.38,103.31,121.88,7.9125,5.1998,-1.0024,9.5211
11,9,1,3,2,37.582,37582,7.2400,5.4300,-1.8100,9.2292,-0.1374,0.1331,-0.3338,-52.75,105.19,120.69,7.8239,5.2301,-1.1088,9.4761
11,9,1,3,2,37.713,37713,7.7500,5.9200,-2.0300,9.9614,-0.1407,0.1069,-0.1756,-50.56,106.88,119.06,7.8142,5.3210,-1.2302,9.5335
11,9,1,3,2,37.843,37843,7.5900,6.0900,-2.0800,9.9510,-0.0873,0.0556,-0.2051,-49.31,107.94,118.31,7.7846,5.4224,-1.3422,9.5814
11,9,1,3,2,37.973,37973,7.4500,6.2200,-2.1700,9.9448,-0.0415,0.0055,-0.1996,-47.63,108.19,116.94,7.7405,5.5275,-1.4513,9.6216
11,9,1,3,2,38.104,38104,7.2500,7.0400,-2.2500,10.3531,0.0251,-0.0447,-0.0960,-46.44,107.63,115.75,7.6759,5.7268,-1.5565,9.7025
11,9,1,3,2,38.234,38234,6.7000,6.3900,-1.9000,9.4516,0.0469,-0.0545,-0.0415,-46.31,106.88,115.56,7.5473,5.8142,-1.6018,9.6609
11,9,1,3,2,38.365,38365,7.0800,6.7500,-1.9800,9.9804,0.0240,0.0000,-0.0404,-45.81,106.31,114.94,7.4857,5.9375,-1.6516,9.6963
11,9,1,3,2,38.496,38496,7.5400,7.2400,-2.0800,10.6581,0.0153,-0.0065,-0.1004,-45.38,106.13,114.38,7.4929,6.1091,-1.7081,9.8174
11,9,1,3,2,38.672,38672,7.2300,6.9700,-1.9900,10.2379,0.0404,-0.0404,0.0753,-45.38,105.50,114.25,7.4582,6.2226,-1.7452,9.8687
11,9,1,3,2,38.802,38802,7.3800,6.9600,-1.8800,10.3170,0.0218,-0.0273,-0.0567,-45.50,105.06,114.31,7.4479,6.3197,-1.7630,9.9257
11,9,1,3,2,38.933,38933,7.1200,6.8100,-1.8300,10.0209,0.0055,-0.0229,0.0425,-45.50,104.75,114.31,7.4047,6.3844,-1.7718,9.9362
11,9,1,3,2,39.063,39063,7.4800,7.1300,-1.9300,10.5125,0.0109,0.0131,0.1178,-45.94,104.88,114.75,7.4146,6.4826,-1.7927,10.0107
11,9,1,3,2,39.194,39194,8.1900,7.1900,-1.8400,11.0525,-0.0076,-0.0109,0.0840,-46.75,105.19,115.56,7.5168,6.5758,-1.7989,10.1479
11,9,1,3,2,39.324,39324,7.5800,6.8800,-1.8800,10.4079,-0.0218,-0.1036,0.1844,-47.69,105.00,116.88,7.5251,6.6159,-1.8096,10.1820
11,10,1,3,2,39.454,39454,7.2600,6.1600,-1.7100,9.6735,0.0065,-0.1145,0.3829,-50.06,104.75,119.81,7.4902,6.5558,-1.7965,10.1148
11,10,1,3,2,39.585,39585,7.8700,5.4400,-1.4100,9.6705,0.0142,-0.1047,0.2040,-52.44,104.31,122.44,7.5402,6.4088,-1.7455,10.0486
11,10,1,3,2,39.757,39757,7.2400,5.3100,-1.1500,9.0519,-0.0011,-0.1560,0.2094,-54.00,103.06,124.63,7.5007,6.2640,-1.6671,9.9135
11,10,1,3,2,39.887,39887,6.9000,4.7900,-0.8100,8.4386,0.0251,-0.1854,0.2814,-56.00,101.69,127.06,7.4215,6.0698,-1.5541,9.7127
11,10,1,3,2,40.017,40017,7.9600,4.4400,-0.9200,9.1609,0.0218,-0.1647,0.4712,-59.00,100.31,130.44,7.4925,5.8550,-1.4706,9.6219
11,10,1,3,2,40.147,40147,7.8000,4.3200,-0.7500,8.9479,-0.0164,-0.0665,0.0207,-61.06,99.44,132.88,7.5330,5.6527,-1.3756,9.5180
11,10,1,3,2,40.277,40277,8.2800,4.4600,-0.9600,9.4537,-0.0415,0.0349,0.2029,-61.44,99.81,133.44,7.6314,5.4956,-1.3208,9.4966
11,10,1,3,2,40.407,40407,9.2800,4.4700,-0.6100,10.3185,-0.0316,0.0436,0.0567,-62.88,101.38,135.06,7.8487,5.3604,-1.2272,9.5834
11,10,1,3,2,40.537,40537,8.4900,4.7800,-0.8700,9.7819,-0.0076,-0.0055,-0.2825,-61.31,100.94,133.63,7.9332,5.2839,-1.1801,9.6046
11,10,1,3,2,40.668,40668,8.5200,4.5400,-1.0700,9.7132,0.0229,-0.0175,0.1462,-61.50,100.75,133.69,8.0105,5.1859,-1.1656,9.6136
11,10,1,3,2,40.841,40841,8.1300,4.6400,-0.8600,9.4003,0.0011,0.0393,-0.1374,-60.38,100.50,132.50,8.0263,5.1140,-1.1253,9.5833
11,10,1,3,2,40.971,40971,8.6200,4.6500,-0.7800,9.8252,0.0098,0.0807,0.0000,-60.50,101.31,132.44,8.1045,5.0528,-1.0798,9.6115
11,10,1,3,2,41.102,41102,8.1200,4.8300,-0.9900,9.4997,-0.0316,0.0687,-0.1484,-59.19,101.88,131.00,8.1065,5.0235,-1.0680,9.5964
11,10,1,3,2,41.232,41232,8.6900,4.7600,-1.0900,9.9680,0.0185,0.0665,0.1833,-59.69,102.94,131.44,8.1834,4.9887,-1.0709,9.6438
11,10,1,3,2,41.363,41363,8.5300,4.5700,-1.2100,9.7524,0.0196,0.0458,-0.2585,-59.50,103.38,130.88,8.2291,4.9336,-1.0892,9.6563
11,10,1,3,2,41.493,41493,7.6100,5.1900,-1.1700,9.2853,0.0251,0.0251,-0.2345,-57.50,102.88,128.63,8.1475,4.9674,-1.0999,9.6055
11,10,1,3,2,41.624,41624,7.8400,5.4200,-1.3100,9.6207,0.0251,0.0545,-0.0327,-55.88,102.88,126.69,8.1070,5.0270,-1.1276,9.6055
11,10,1,3,2,41.755,41755,8.4300,5.1600,-1.1500,9.9505,0.0556,0.0600,0.0175,-56.31,103.38,126.63,8.1496,5.0445,-1.1305,9.6509
11,10,1,3,2,41.931,41931,7.8500,5.2700,-1.1800,9.5283,-0.0142,0.0338,-0.2607,-54.75,103.44,124.69,8.1101,5.0742,-1.1370,9.6340
11,10,1,3,2,42.061,42061,7.7800,5.4800,-1.2400,9.5967,0.0076,-0.0109,-0.0251,-53.94,103.19,123.88,8.0666,5.1277,-1.1506,9.6274
11,10,1,3,2,42.192,42192,7.5900,5.7000,-1.3300,9.5847,-0.0120,0.0207,-0.3327,-52.81,102.88,122.75,8.0038,5.2031,-1.1742,9.6183
11,10,1,3,2,42.322,42322,6.9800,5.9200,-1.5600,9.2844,-0.0556,0.0709,-0.3622,-50.06,102.94,120.00,7.8689,5.2976,-1.2251,9.5648
11,10,1,3,2,42.453,42453,7.0400,6.3100,-1.4100,9.5585,-0.0262,0.0535,-0.2116,-47.94,103.31,117.88,7.7597,5.4310,-1.2494,9.5535
11,10,1,3,2,42.583,42583,6.9500,6.4100,-1.7700,9.6189,-0.0262,0.0469,-0.0284,-46.94,103.56,116.81,7.6530,5.5600,-1.3180,9.5508
11,10,1,3,2,42.713,42713,7.2100,6.8900,-1.7100,10.1183,-0.0327,0.0884,-0.0785,-46.44,104.44,116.25,7.5946,5.7353,-1.3697,9.6149
11,10,1,3,2,42.844,42844,7.2500,6.9000,-1.8500,10.1782,-0.0087,0.0644,-0.2029,-45.06,104.75,114.63,7.5492,5.8887,-1.4330,9.6810
11,10,1,3,2,43.016,43016,7.1200,7.4000,-1.6300,10.3977,0.0829,-0.0044,0.0109,-44.13,104.44,113.25,7.4926,6.0879,-1.4589,9.7637
11,10,1,3,2,43.146,43146,6.8400,6.6900,-1.7500,9.7265,0.1440,-0.0284,0.0524,-44.25,103.44,112.75,7.4066,6.1672,-1.4973,9.7537
11,10,1,3,2,43.276,43276,6.9800,6.9200,-1.6500,9.9664,0.1189,-0.0218,0.0894,-44.75,102.50,112.56,7.3504,6.2664,-1.5174,9.7775
11,10,1,3,2,43.406,43406,7.8200,7.1800,-1.5800,10.7332,0.0665,0.0033,0.1047,-45.81,102.00,113.06,7.4123,6.3868,-1.5257,9.9026
11,10,1,3,2,43.536,43536,7.6700,7.3100,-1.4700,10.6970,0.0295,-0.0273,-0.0284,-45.75,101.56,112.75,7.4462,6.5085,-1.5183,10.0056
11,10,1,3,2,43.666,43666,8.1200,7.3700,-1.4500,11.0614,-0.0153,-0.0578,0.3011,-47.00,101.50,114.19,7.5350,6.6220,-1.5093,10.1442
11,10,1,3,2,43.796,43796,7.8400,7.0600,-1.6700,10.6817,-0.0458,-0.0273,0.3752,-49.56,102.00,117.25,7.5752,6.6797,-1.5305,10.2149
11,10,1,3,2,43.927,43927,7.6300,6.3700,-1.4000,10.0376,0.0371,-0.0316,0.3011,-51.56,102.69,119.44,7.5824,6.6389,-1.5133,10.1911
11,10,1,3,2,44.100,44100,7.9900,4.8600,-1.2400,9.4338,0.0938,-0.1036,0.7276,-56.00,102.50,123.56,7.6361,6.4045,-1.4773,10.0752
11,10,1,3,2,44.232,44232,7.9100,4.4300,-0.8400,9.1049,0.0654,-0.1320,0.2116,-59.75,101.75,127.19,7.6722,6.1443,-1.3933,9.9276
11,10,1,3,2,44.363,44363,7.9700,4.2600,-0.5600,9.0544,0.1102,-0.1484,0.4200,-61.69,100.13,128.88,7.7115,5.8960,-1.2835,9.7917
11,10,1,3,2,44.497,44497,8.1800,4.2100,-0.2600,9.2035,0.1156,-0.1669,-0.0153,-63.56,97.25,130.31,7.7732,5.6738,-1.1486,9.6920
11,10,1,3,2,44.628,44628,8.1000,3.8400,-0.1300,8.9651,0.1113,-0.1396,0.1625,-63.88,93.75,130.19,7.8163,5.4322,-1.0144,9.5724
11,10,1,3,2,44.759,44759,8.4500,3.6100,-0.7300,9.2178,0.0436,-0.0644,0.1920,-65.19,91.56,131.25,7.8998,5.1921,-0.9769,9.5036
11,10,1,3,2,44.889,44889,9.2900,3.5100,0.1000,9.9315,-0.0218,-0.0142,-0.0622,-67.00,91.25,133.06,8.0830,4.9704,-0.8350,9.5256
11,10,1,3,2,45.020,45020,8.1500,4.4500,-0.0500,9.2859,0.0251,-0.0404,-0.0273,-65.06,90.81,131.31,8.0918,4.9018,-0.7316,9.4890
11,10,1,3,2,45.193,45193,8.7500,3.4600,0.1500,9.4105,0.0131,-0.0644,0.2454,-67.63,88.81,133.75,8.1785,4.7118,-0.6154,9.4588
11,10,1,3,2,45.324,45324,8.7400,3.5000,0.0900,9.4152,-0.0469,0.0065,-0.0600,-68.06,88.31,134.50,8.2525,4.5521,-0.5224,9.4392
11,10,1,3,2,45.454,45454,8.8100,3.6000,0.1000,9.5177,-0.0338,0.0535,0.0556,-68.13,89.19,134.69,8.3260,4.4267,-0.4404,9.4399
11,10,1,3,2,45.585,45585,8.9900,3.4200,-0.0100,9.6186,-0.0371,0.0862,-0.0284,-68.31,90.69,134.94,8.4135,4.2940,-0.3837,9.4537
11,10,1,3,2,45.716,45716,8.9900,3.5100,-0.1600,9.6522,-0.0469,0.0905,-0.0567,-67.94,92.63,134.56,8.4895,4.1907,-0.3542,9.4741
11,10,1,3,2,45.846,45846,9.1800,3.6800,-0.4600,9.9008,-0.0185,0.0796,-0.0654,-67.44,94.44,134.19,8.5805,4.1234,-0.3682,9.5269
11,10,1,3,2,45.977,45977,8.9400,3.8700,-0.3200,9.7469,0.0087,0.0665,-0.2836,-66.38,95.44,133.00,8.6278,4.0900,-0.3618,9.5550
11,10,1,3,2,46.110,46110,8.3100,4.3000,-0.3700,9.3639,0.0000,0.0796,-0.5236,-63.25,95.88,129.56,8.5860,4.1177,-0.3629,9.5292
