participant,rep,equipment_code,exercise_code,quality_code,timestamp,timestamp_ms,accelX,accelY,accelZ,accelMag,gyroX,gyroY,gyroZ,roll,pitch,yaw,filteredX,filteredY,filteredZ,filteredMag
11,1,1,3,2,00.000,0,-4.4900,8.3800,-0.8800,9.5477,0.0011,-0.0164,-0.2967,17.94,87.81,52.50,-1.9637,9.1351,0.3101,9.3489
11,1,1,3,2,00.130,130,-3.6100,10.0100,1.1700,10.7052,-0.1025,0.0513,-0.4145,18.94,88.25,51.38,-2.1806,9.2504,0.4234,9.5133
11,1,1,3,2,00.262,262,-2.2800,9.9300,0.7200,10.2138,0.0971,0.1669,-0.1233,19.13,87.94,50.25,-2.1937,9.3399,0.4625,9.6052
11,1,1,3,2,00.392,392,-1.0600,8.5900,0.1900,8.6572,0.1014,-0.0535,-0.1658,19.50,86.94,49.69,-2.0443,9.2411,0.4266,9.4741
11,1,1,3,2,00.522,522,-4.6300,8.7400,0.0100,9.8906,0.0404,-0.2814,-0.5563,23.63,86.88,47.38,-2.3851,9.1751,0.3717,9.4873
11,1,1,3,2,00.653,653,-2.5800,8.2900,1.4300,8.7992,0.0382,-0.1276,0.4963,20.81,87.50,52.00,-2.4107,9.0584,0.5112,9.3877
11,1,1,3,2,00.783,783,-2.3300,6.8100,0.4900,7.2142,0.0425,-0.0480,-0.6578,21.81,87.38,51.69,-2.4001,8.7622,0.5084,9.0991
11,1,1,3,2,00.956,956,-4.3000,8.9900,1.1900,10.0362,0.0665,-0.0175,0.2280,22.81,87.31,51.50,-2.6505,8.7922,0.5982,9.2025
11,1,1,3,2,01.087,1087,-3.6000,9.5600,-0.0500,10.2155,-0.0055,0.0545,0.2367,21.31,87.00,53.06,-2.7756,8.8934,0.5128,9.3305
11,1,1,3,2,01.218,1218,-2.8200,9.1600,0.7000,9.6098,0.0185,0.0273,0.0971,20.50,86.81,53.81,-2.7814,8.9285,0.5374,9.3671
11,1,1,3,2,01.348,1348,-3.2900,8.3200,0.3800,8.9549,-0.0785,0.0033,-0.2105,20.38,86.88,53.81,-2.8485,8.8483,0.5167,9.3098
11,1,1,3,2,01.479,1479,-3.2600,7.8400,0.1400,8.4919,-0.2083,-0.0109,-0.0098,22.13,87.94,51.69,-2.9027,8.7154,0.4671,9.1980
11,1,1,3,2,01.609,1609,-3.3700,8.4200,-0.0400,9.0694,-0.3982,-0.0578,0.3534,20.75,90.25,52.63,-2.9643,8.6765,0.4002,9.1776
11,1,1,3,2,01.740,1740,-3.7800,9.9200,-1.0700,10.6696,-0.3938,0.0131,0.0055,18.69,93.25,53.88,-3.0718,8.8404,0.2065,9.3611
11,1,1,3,2,01.871,1871,-3.5000,9.2200,-1.1300,9.9265,-0.2422,0.0731,-0.0851,18.88,95.38,52.75,-3.1282,8.8904,0.0304,9.4247
11,1,1,3,2,02.044,2044,-3.1100,9.7200,-0.9300,10.2477,-0.0905,0.1582,0.0305,19.06,96.63,50.81,-3.1258,8.9997,-0.0962,9.5276
11,1,1,3,2,02.175,2175,-3.7200,9.9700,-1.2000,10.7088,-0.0305,0.1374,-0.2345,19.94,96.63,48.75,-3.2041,9.1276,-0.2416,9.6766
11,1,1,3,2,02.308,2308,-3.9300,9.9900,-1.4900,10.8381,-0.0076,0.0633,-0.1963,21.94,96.63,45.94,-3.2997,9.2412,-0.4061,9.8211
11,1,1,3,2,02.439,2439,-4.0400,9.7300,-1.4100,10.6293,0.0513,-0.0382,-0.1396,23.00,96.56,44.88,-3.3973,9.3056,-0.5384,9.9210
11,1,1,3,2,02.570,2570,-4.5100,9.7900,-1.1100,10.8359,0.0360,-0.0840,0.0949,23.00,96.56,45.38,-3.5439,9.3695,-0.6137,10.0361
11,1,1,3,2,02.700,2700,-4.2700,9.8300,-1.1200,10.7757,0.0447,-0.1080,-0.0371,22.69,96.63,46.44,-3.6396,9.4301,-0.6804,10.1310
11,2,1,3,2,02.831,2831,-3.9800,9.1500,-0.9900,10.0271,0.0938,-0.0927,0.0022,22.69,96.44,47.38,-3.6845,9.3932,-0.7212,10.1157
11,2,1,3,2,02.961,2961,-3.5700,8.3900,-0.6600,9.1418,0.0993,-0.0818,-0.0185,22.81,95.88,48.19,-3.6694,9.2610,-0.7132,9.9870
11,2,1,3,2,03.134,3134,-4.2500,8.5400,-0.5200,9.5532,0.0556,-0.0611,-0.0818,23.31,95.31,48.63,-3.7459,9.1660,-0.6877,9.9257
11,2,1,3,2,03.264,3264,-3.9700,8.8800,-0.7200,9.7537,-0.0022,-0.0207,0.1702,23.19,95.06,49.06,-3.7754,9.1283,-0.6920,9.9025
11,2,1,3,2,03.394,3394,-3.8400,9.4300,-0.6700,10.2039,-0.0142,-0.0109,0.1658,21.75,95.00,50.56,-3.7839,9.1681,-0.6891,9.9422
11,2,1,3,2,03.524,3524,-3.8800,9.3200,-0.6200,10.1144,-0.0382,0.0185,-0.0185,21.31,95.13,50.88,-3.7966,9.1881,-0.6800,9.9648
11,2,1,3,2,03.654,3654,-3.8800,9.3100,-0.7000,10.1104,-0.0415,0.0382,0.0284,21.31,95.44,50.50,-3.8076,9.2042,-0.6826,9.9840
11,2,1,3,2,03.784,3784,-3.6700,9.2000,-0.8000,9.9372,0.0055,0.0251,0.1691,20.75,95.38,50.81,-3.7895,9.2036,-0.6981,9.9777
11,2,1,3,2,03.915,3915,-3.2000,8.9500,-0.6400,9.5264,0.0513,-0.0022,0.2596,19.06,95.00,52.56,-3.7118,9.1702,-0.6904,9.9170
11,2,1,3,2,04.045,4045,-2.5100,7.9900,-0.4900,8.3893,0.0535,-0.0120,0.2389,17.06,94.50,54.69,-3.5534,9.0147,-0.6640,9.7125
11,2,1,3,2,04.218,4218,-1.5400,8.5100,-0.4700,8.6610,0.0491,-0.0185,0.2673,15.19,93.88,56.94,-3.2881,8.9482,-0.6384,9.5545
11,2,1,3,2,04.348,4348,-2.2900,8.2600,0.0900,8.5720,-0.0600,-0.0513,-0.0927,15.50,94.06,56.38,-3.1566,8.8575,-0.5425,9.4188
11,2,1,3,2,04.478,4478,-1.7900,8.5900,-0.3100,8.7800,0.0131,-0.0175,0.1538,14.63,94.25,56.88,-2.9765,8.8222,-0.5118,9.3249
11,2,1,3,2,04.608,4608,-1.5300,9.6000,-0.6700,9.7442,0.0425,-0.0065,0.5105,12.19,93.94,59.06,-2.7859,8.9247,-0.5327,9.3646
11,2,1,3,2,04.738,4738,-2.1200,9.1100,-0.6500,9.3760,0.0076,0.0316,-0.0229,10.88,93.69,59.88,-2.6981,8.9491,-0.5481,9.3631
11,2,1,3,2,04.869,4869,-1.2000,9.1200,-0.4700,9.2106,0.0120,0.0807,0.0393,10.38,93.50,59.50,-2.5007,8.9717,-0.5378,9.3292
11,2,1,3,2,04.999,4999,-1.4400,9.1100,-0.0800,9.2235,0.0000,0.0556,-0.2716,10.63,93.19,58.38,-2.3609,8.9899,-0.4775,9.3070
11,2,1,3,2,05.130,5130,-1.6200,8.4200,-0.3700,8.5824,-0.0556,-0.0120,-0.1342,12.31,93.25,56.44,-2.2633,8.9148,-0.4633,9.2093
11,2,1,3,2,05.302,5302,-1.8800,8.0100,-0.1500,8.2290,-0.0589,-0.0502,-0.3392,13.81,93.94,55.06,-2.2128,8.7956,-0.4220,9.0795
11,2,1,3,2,05.433,5433,-2.3700,8.7800,-0.7900,9.1285,-0.0676,-0.0262,0.1080,15.19,94.56,53.81,-2.2335,8.7935,-0.4705,9.0849
11,2,1,3,2,05.563,5563,-2.3100,8.4900,-0.8200,8.8368,-0.0753,-0.0065,-0.0240,15.00,95.00,53.94,-2.2436,8.7535,-0.5166,9.0512
11,2,1,3,2,05.693,5693,-2.3400,8.6700,-1.0600,9.0426,-0.1385,-0.0076,-0.3894,15.94,95.81,52.75,-2.2563,8.7425,-0.5882,9.0481
11,2,1,3,2,05.823,5823,-3.2600,9.2300,-0.9600,9.8358,-0.1036,0.0207,-0.4102,19.13,96.88,49.19,-2.3886,8.8067,-0.6372,9.1471
11,2,1,3,2,05.953,5953,-4.3400,8.7800,-1.2000,9.8673,-0.0862,0.0698,-0.4974,22.75,97.63,44.94,-2.6457,8.8032,-0.7114,9.2197
11,2,1,3,2,06.084,6084,-4.0900,8.8900,-1.3400,9.8770,-0.0305,0.1113,-0.0415,24.38,97.75,42.44,-2.8360,8.8147,-0.7942,9.2937
11,2,1,3,2,06.214,6214,-4.0800,8.8000,-1.0300,9.7543,0.0000,0.0818,-0.1462,25.06,97.50,41.13,-3.0000,8.8127,-0.8253,9.3459
11,2,1,3,2,06.387,6387,-4.3600,8.8800,-1.1100,9.9547,0.0196,0.0491,-0.0447,25.94,97.06,39.81,-3.1792,8.8216,-0.8628,9.4166
11,2,1,3,2,06.517,6517,-4.3900,8.8400,-1.1700,9.9391,0.0458,0.0055,-0.0665,26.13,96.69,39.56,-3.3387,8.8240,-0.9033,9.4777
11,2,1,3,2,06.647,6647,-4.4600,9.0200,-1.0700,10.1191,0.0818,-0.0240,-0.0065,26.56,96.25,39.44,-3.4865,8.8498,-0.9252,9.5567
11,2,1,3,2,06.777,6777,-4.4100,8.4900,-1.0100,9.6202,0.0796,-0.0556,-0.0731,26.38,95.75,40.63,-3.6082,8.8024,-0.9364,9.5592
11,2,1,3,2,06.907,6907,-4.7000,8.7800,-0.8400,9.9942,0.0273,-0.0644,-0.1287,27.25,95.69,40.63,-3.7521,8.7995,-0.9237,9.6105
11,2,1,3,2,07.037,7037,-4.8700,8.6400,-0.7500,9.9463,-0.0033,-0.0807,-0.0305,27.88,95.94,40.81,-3.8994,8.7785,-0.9008,9.6477
11,2,1,3,2,07.168,7168,-4.8600,9.2300,-0.9700,10.4763,0.0142,-0.0742,0.0611,27.56,96.19,41.56,-4.0260,8.8380,-0.9099,9.7543
11,2,1,3,2,07.298,7298,-5.0000,8.9300,-0.8300,10.2681,0.0709,-0.0480,0.0185,27.44,96.13,42.44,-4.1543,8.8501,-0.8994,9.8179
11,3,1,3,2,07.471,7471,-4.2600,8.3200,-1.0200,9.4027,0.0425,0.0305,0.1069,26.38,95.44,44.00,-4.1682,8.7802,-0.9153,9.7624
11,3,1,3,2,07.601,7601,-4.2300,8.4000,-0.7300,9.4332,-0.0349,0.0338,-0.1254,26.25,95.44,43.94,-4.1764,8.7301,-0.8909,9.7186
11,3,1,3,2,07.731,7731,-4.3300,8.5500,-0.7800,9.6156,-0.0022,0.0098,0.1614,26.44,95.44,43.69,-4.1966,8.7064,-0.8763,9.7047
11,3,1,3,2,07.861,7861,-4.3600,8.6200,-0.7400,9.6882,-0.0120,-0.0175,0.1254,25.31,95.50,44.81,-4.2181,8.6950,-0.8583,9.7022
11,3,1,3,2,07.991,7991,-4.5500,8.5700,-0.7200,9.7296,-0.0218,-0.0175,0.2803,24.31,95.69,45.81,-4.2619,8.6785,-0.8401,9.7050
11,3,1,3,2,08.121,8121,-3.6000,8.0700,-0.7000,8.8642,-0.0033,-0.0098,0.4211,21.63,95.63,48.56,-4.1747,8.5983,-0.8216,9.5935
11,3,1,3,2,08.253,8253,-2.6300,8.4900,-0.8100,8.9249,0.0327,-0.0164,0.5967,18.13,95.31,52.06,-3.9711,8.5841,-0.8201,9.4936
11,3,1,3,2,08.383,8383,-1.5900,8.5400,-0.5400,8.7035,0.0753,-0.0273,0.6207,13.81,94.88,56.69,-3.6573,8.5783,-0.7832,9.3582
11,3,1,3,2,08.556,8556,-1.8200,8.6400,-0.6700,8.8550,0.0545,0.0065,-0.1549,12.69,94.19,58.13,-3.4152,8.5864,-0.7683,9.2726
11,3,1,3,2,08.686,8686,-1.5600,9.3800,-0.7500,9.5384,0.0633,0.0273,0.2803,12.19,93.75,58.56,-3.1708,8.6910,-0.7659,9.2830
11,3,1,3,2,08.817,8817,-1.1000,9.3800,-0.4200,9.4536,0.1004,0.0000,0.2509,9.81,93.13,60.94,-2.8979,8.7818,-0.7203,9.2756
11,3,1,3,2,08.948,8948,-1.5100,9.4300,-0.1800,9.5518,0.0916,-0.0055,0.1702,8.69,92.44,62.19,-2.7150,8.8672,-0.6491,9.2962
11,3,1,3,2,09.078,9078,-0.6000,8.9600,-0.1200,8.9809,0.0480,-0.0033,0.1625,7.00,91.81,63.31,-2.4363,8.8794,-0.5794,9.2258
11,3,1,3,2,09.208,9208,-0.8800,9.1700,0.0500,9.2123,-0.0491,-0.0065,0.0120,6.56,91.75,63.31,-2.2312,8.9177,-0.4964,9.2060
11,3,1,3,2,09.338,9338,-0.9400,9.3600,-0.3100,9.4122,-0.0720,-0.0055,-0.0207,6.44,92.13,63.25,-2.0611,8.9760,-0.4719,9.2217
11,3,1,3,2,09.468,9468,-0.8900,8.5600,-0.4200,8.6164,-0.1036,0.0185,0.0796,6.44,92.69,62.75,-1.9067,8.9212,-0.4650,9.1345
11,3,1,3,2,09.643,9643,-1.3900,9.0500,-0.3200,9.1617,-0.1167,0.0720,-0.5509,7.13,94.00,61.25,-1.8387,8.9382,-0.4459,9.1362
11,3,1,3,2,09.777,9777,-0.8300,10.3800,-0.6600,10.4340,-0.0065,0.0175,0.0284,9.13,94.31,58.38,-1.7057,9.1282,-0.4741,9.2983
11,3,1,3,2,09.908,9908,-1.0800,8.4100,-0.7900,8.5158,0.0774,0.0273,-0.3589,10.56,93.88,56.81,-1.6233,9.0335,-0.5158,9.1927
11,3,1,3,2,10.039,10039,-1.7700,9.1600,-0.5800,9.3475,0.0513,0.0360,-0.0600,11.50,93.38,55.75,-1.6426,9.0502,-0.5242,9.2130
11,3,1,3,2,10.169,10169,-1.6900,8.8800,-0.4800,9.0521,0.0480,0.0480,-0.1953,12.63,93.00,54.44,-1.6489,9.0278,-0.5184,9.1917
11,3,1,3,2,10.315,10315,-1.8000,9.3000,-0.4500,9.4833,-0.0076,-0.0120,-0.5411,15.38,92.88,51.50,-1.6688,9.0636,-0.5094,9.2300
11,3,1,3,2,10.450,10450,-4.1100,8.9800,-0.7400,9.9035,-0.0207,-0.0218,-0.8683,21.19,93.00,45.88,-1.9905,9.0526,-0.5398,9.2846
11,3,1,3,2,10.581,10581,-4.2400,8.8200,-0.5700,9.8028,0.0000,-0.0218,-0.2563,24.50,93.19,43.06,-2.2869,9.0220,-0.5438,9.3232
11,3,1,3,2,10.754,10754,-4.1200,8.7900,-0.4700,9.7190,0.0109,0.0480,0.1025,25.56,93.25,42.25,-2.5285,8.9914,-0.5340,9.3554
11,3,1,3,2,10.884,10884,-4.3100,8.6800,-0.5200,9.7051,0.0065,0.0774,0.1538,25.00,93.00,42.88,-2.7632,8.9504,-0.5322,9.3823
11,3,1,3,2,11.014,11014,-3.9900,8.6400,-0.2800,9.5209,0.0055,0.0884,-0.0469,24.38,92.63,43.06,-2.9249,8.9095,-0.4990,9.3905
11,3,1,3,2,11.144,11144,-4.2300,9.2200,-0.2900,10.1482,-0.0447,0.1069,0.0055,24.94,92.56,41.94,-3.0969,8.9504,-0.4714,9.4827
11,3,1,3,2,11.274,11274,-3.7200,8.8400,-0.4600,9.6019,-0.0120,0.0447,-0.0065,24.63,92.38,41.81,-3.1790,8.9358,-0.4699,9.4961
11,3,1,3,2,11.405,11405,-4.1700,9.0000,-0.4900,9.9312,-0.0131,-0.0218,-0.0218,24.94,92.44,41.56,-3.3096,8.9443,-0.4726,9.5487
11,3,1,3,2,11.535,11535,-4.3300,9.7100,-0.5900,10.6481,-0.0469,-0.0676,-0.0545,25.06,92.88,41.75,-3.4440,9.0452,-0.4880,9.6910
11,3,1,3,2,11.665,11665,-4.1800,9.1100,-0.5700,10.0394,0.0055,-0.0949,0.0840,24.88,93.31,42.56,-3.5410,9.0537,-0.4988,9.7344
11,3,1,3,2,11.838,11838,-4.1700,8.8900,-0.7300,9.8465,0.0338,-0.0447,-0.0971,24.63,93.50,43.50,-3.6239,9.0322,-0.5293,9.7464
11,3,1,3,2,11.968,11968,-3.9600,8.4900,-0.3600,9.3750,0.0044,0.0349,-0.1800,25.69,93.38,42.50,-3.6682,8.9607,-0.5070,9.6957
11,3,1,3,2,12.098,12098,-5.3900,8.9700,-0.6600,10.4856,-0.0327,0.0513,-0.2193,27.81,93.38,40.00,-3.8951,8.9619,-0.5272,9.7860
11,3,1,3,2,12.228,12228,-5.0800,8.5300,-0.6100,9.9468,-0.0338,0.0851,0.1887,28.25,93.44,39.00,-4.0512,8.9050,-0.5381,9.7980
11,4,1,3,2,12.359,12359,-3.8100,8.7600,-0.6100,9.5721,-0.0327,0.0982,0.1800,26.44,93.38,40.00,-4.0194,8.8859,-0.5475,9.7681
11,4,1,3,2,12.489,12489,-4.0000,8.9300,-0.5800,9.8021,0.0033,0.0327,0.1058,25.56,93.38,40.44,-4.0169,8.8917,-0.5518,9.7725
11,4,1,3,2,12.619,12619,-3.9000,8.2200,-0.6300,9.1200,0.0011,-0.0240,0.2465,24.50,93.38,41.50,-4.0015,8.8032,-0.5621,9.6863
11,4,1,3,2,12.750,12750,-3.4900,7.0400,-0.5400,7.8761,-0.0360,-0.0393,0.2749,22.63,93.50,43.63,-3.9341,8.5709,-0.5592,9.4472
11,4,1,3,2,12.922,12922,-1.8100,8.9700,-0.2800,9.1551,-0.0251,-0.0076,0.5618,17.31,93.75,49.00,-3.6542,8.6235,-0.5224,9.3803
11,4,1,3,2,13.053,13053,-2.3900,7.4300,-0.0200,7.8050,-0.0425,0.0011,-0.2051,17.13,94.00,48.94,-3.4876,8.4662,-0.4562,9.1678
11,4,1,3,2,13.183,13183,-1.9900,9.4500,-0.3700,9.6643,0.0207,-0.0065,0.6840,16.19,94.19,49.50,-3.2902,8.5958,-0.4449,9.2148
11,4,1,3,2,13.313,13313,-2.6200,8.8700,-0.8600,9.2888,0.0415,-0.0316,-0.0720,14.31,93.94,51.38,-3.2019,8.6320,-0.4996,9.2202
11,4,1,3,2,13.443,13443,-1.9100,9.2100,-0.9000,9.4489,-0.0164,-0.0251,0.1091,13.88,94.00,51.88,-3.0317,8.7081,-0.5523,9.2373
11,4,1,3,2,13.573,13573,-2.1200,9.1600,-0.7800,9.4344,0.0142,-0.0491,0.0142,13.50,94.19,52.38,-2.9115,8.7677,-0.5823,9.2568
11,4,1,3,2,13.703,13703,-1.7800,9.2600,-0.7400,9.4585,0.0065,-0.0480,0.1396,12.88,94.19,53.38,-2.7624,8.8326,-0.6031,9.2741
11,4,1,3,2,13.834,13834,-1.7600,8.8800,-0.7100,9.0805,-0.0316,-0.0567,-0.2083,13.06,94.31,53.50,-2.6303,8.8388,-0.6172,9.2425
11,4,1,3,2,14.007,14007,-2.3700,9.0800,-0.5100,9.3981,-0.0436,-0.0480,-0.0600,14.44,94.94,52.56,-2.5960,8.8706,-0.6031,9.2623
11,4,1,3,2,14.138,14138,-2.0800,8.7300,-0.9300,9.0224,-0.0633,-0.0076,-0.1113,15.25,95.31,51.81,-2.5280,8.8521,-0.6461,9.2286
11,4,1,3,2,14.269,14269,-2.0800,9.2000,-0.5000,9.4454,-0.0513,-0.0065,-0.2531,16.63,95.81,50.25,-2.4690,8.8979,-0.6269,9.2554
11,4,1,3,2,14.399,14399,-2.2900,8.8400,-1.2100,9.2116,-0.0175,-0.0109,-0.2007,18.19,95.94,48.69,-2.4454,8.8903,-0.7037,9.2473
11,4,1,3,2,14.530,14530,-2.9900,9.0500,-1.0600,9.5899,-0.0011,-0.0218,-0.4265,20.13,96.38,46.81,-2.5172,8.9113,-0.7507,9.2904
11,4,1,3,2,14.660,14660,-4.0300,7.3700,-1.1600,8.4796,0.0415,0.0458,-0.5781,24.06,96.38,42.88,-2.7165,8.7082,-0.8046,9.1575
11,4,1,3,2,14.792,14792,-4.5000,8.8700,-0.8700,9.9842,0.0807,0.0818,-0.0229,25.63,95.88,41.06,-2.9515,8.7295,-0.8132,9.2508
11,4,1,3,2,14.923,14923,-4.1700,8.0400,-0.9700,9.1089,0.0742,0.0960,-0.2400,26.63,95.00,39.75,-3.1121,8.6387,-0.8339,9.2199
11,4,1,3,2,15.098,15098,-3.9400,7.7300,-0.7500,8.7086,0.1200,0.1113,-0.1604,28.63,93.50,37.38,-3.2212,8.5189,-0.8228,9.1447
11,4,1,3,2,15.229,15229,-5.3000,8.2300,-0.0200,9.7889,0.0938,0.0720,-0.2880,31.50,92.44,34.31,-3.4951,8.4809,-0.7170,9.2008
11,4,1,3,2,15.360,15360,-5.2100,7.1000,0.0600,8.8067,0.0175,0.0120,-0.2334,33.25,91.69,32.50,-3.7211,8.2989,-0.6146,9.1157
11,4,1,3,2,15.490,15490,-5.3000,7.5300,-0.4100,9.2173,-0.0600,-0.0513,-0.0153,34.06,92.06,33.00,-3.9292,8.1976,-0.5877,9.1096
11,4,1,3,2,15.621,15621,-5.4100,7.8400,-0.3500,9.5319,-0.0753,-0.0491,-0.0654,34.06,92.81,33.25,-4.1243,8.1505,-0.5564,9.1515
11,4,1,3,2,15.751,15751,-5.1000,7.7500,-0.4800,9.2899,-0.0807,-0.0295,-0.0927,34.44,93.56,33.25,-4.2529,8.0977,-0.5463,9.1629
11,4,1,3,2,15.881,15881,-5.4600,7.9300,-0.5500,9.6436,-0.0305,-0.0742,-0.0142,34.69,94.25,33.56,-4.4119,8.0756,-0.5468,9.2184
11,4,1,3,2,16.012,16012,-6.2700,8.0800,-0.7600,10.2556,-0.0611,-0.0785,-0.1058,35.06,95.00,33.56,-4.6568,8.0762,-0.5749,9.3403
11,4,1,3,2,16.185,16185,-5.4500,8.3900,-1.2100,10.0776,-0.0742,-0.1102,0.1724,34.50,96.25,34.69,-4.7613,8.1175,-0.6586,9.4339
11,4,1,3,2,16.315,16315,-5.6500,8.3600,-1.2500,10.1673,-0.0011,-0.0785,0.0818,33.63,96.94,36.00,-4.8784,8.1495,-0.7365,9.5266
11,4,1,3,2,16.445,16445,-5.4200,8.1500,-1.1000,9.8493,0.0262,-0.0425,0.0622,33.13,97.13,37.06,-4.9498,8.1495,-0.7844,9.5672
11,4,1,3,2,16.575,16575,-5.4300,8.3000,-1.0900,9.9781,0.0404,-0.0153,0.0491,32.63,97.00,37.88,-5.0131,8.1694,-0.8247,9.6203
11,4,1,3,2,16.705,16705,-4.6300,7.6600,-1.0500,9.0119,0.0305,0.0000,-0.0524,32.56,96.75,38.13,-4.9626,8.1023,-0.8544,9.5396
11,4,1,3,2,16.835,16835,-5.2200,8.1000,-0.9500,9.6830,0.0295,0.0033,-0.0295,33.50,96.63,37.38,-4.9965,8.1020,-0.8670,9.5582
11,4,1,3,2,16.966,16966,-5.5000,8.7000,-1.1500,10.3568,0.0305,0.0055,-0.0480,33.19,96.31,37.75,-5.0629,8.1808,-0.9043,9.6631
11,4,1,3,2,17.096,17096,-5.9700,8.5900,-1.0400,10.5124,0.0676,-0.0044,-0.1276,34.06,96.00,37.13,-5.1824,8.2347,-0.9222,9.7733
11,4,1,3,2,17.269,17269,-5.3800,8.2700,-0.8400,9.9017,0.1058,0.0076,0.4309,32.63,94.94,39.19,-5.2084,8.2393,-0.9113,9.7900
11,5,1,3,2,17.399,17399,-4.8200,8.3100,-0.7300,9.6344,0.0175,0.0055,-0.0011,30.19,94.31,41.81,-5.1572,8.2487,-0.8874,9.7686
11,5,1,3,2,17.529,17529,-5.3400,8.2500,-0.5400,9.8422,0.0480,-0.0175,-0.1244,30.75,94.13,41.38,-5.1813,8.2488,-0.8417,9.7774
11,5,1,3,2,17.659,17659,-5.3400,7.6300,-0.9100,9.3574,-0.0142,-0.0327,0.2607,29.81,94.00,42.63,-5.2022,8.1673,-0.8507,9.7207
11,5,1,3,2,17.789,17789,-4.4900,8.1500,-0.4400,9.3154,-0.1364,0.0120,0.2465,27.50,94.63,44.63,-5.1084,8.1650,-0.7965,9.6642
11,5,1,3,2,17.920,17920,-4.1900,8.4300,-0.9600,9.4627,-0.1124,-0.0262,0.3414,25.81,95.50,45.88,-4.9874,8.1999,-0.8181,9.6323
11,5,1,3,2,18.050,18050,-4.3400,7.5500,-0.4100,8.7182,0.0055,0.0065,0.0589,23.50,95.75,48.19,-4.9021,8.1143,-0.7643,9.5108
11,5,1,3,2,18.181,18181,-2.8000,7.8000,-0.4900,8.3018,0.0273,0.0251,0.4898,20.19,95.25,51.31,-4.6251,8.0729,-0.7282,9.3323
11,5,1,3,2,18.353,18353,-2.7700,9.0200,-0.8200,9.4713,0.0349,0.0251,0.5400,16.19,94.75,54.63,-4.3806,8.1977,-0.7403,9.3241
11,5,1,3,2,18.483,18483,-0.9800,9.3300,-0.6900,9.4067,0.0120,0.0164,0.2138,12.63,94.56,57.69,-3.9325,8.3469,-0.7336,9.2560
11,5,1,3,2,18.613,18613,-1.8400,9.1000,-0.7400,9.3136,0.0905,-0.0698,0.2443,11.31,94.13,58.81,-3.6568,8.4461,-0.7345,9.2330
11,5,1,3,2,18.743,18743,-1.0300,9.5100,-0.6000,9.5844,0.0611,-0.0851,0.3632,8.63,93.75,61.75,-3.3106,8.5863,-0.7168,9.2303
11,5,1,3,2,18.873,18873,-1.3900,9.1200,-0.1300,9.2262,0.0829,-0.0589,-0.0273,8.81,93.31,62.00,-3.0575,8.6566,-0.6394,9.2030
11,5,1,3,2,19.003,19003,-1.7200,9.0800,-0.3300,9.2474,-0.0098,-0.0120,0.1625,8.69,93.06,62.19,-2.8813,8.7124,-0.5987,9.1960
11,5,1,3,2,19.149,19149,-1.1600,9.3000,-0.2700,9.3760,-0.0742,0.0033,0.0611,7.81,93.38,62.69,-2.6545,8.7899,-0.5554,9.1987
11,5,1,3,2,19.284,19284,-1.4000,9.6900,-0.6000,9.8090,-0.0774,0.0251,0.0796,7.31,93.94,62.94,-2.4892,8.9085,-0.5612,9.2667
11,5,1,3,2,19.457,19457,-0.6000,9.4400,-0.7300,9.4872,-0.0927,0.0284,-0.0589,6.38,94.63,63.44,-2.2402,8.9785,-0.5835,9.2721
11,5,1,3,2,19.587,19587,-2.2100,9.4500,-0.6900,9.7295,-0.0873,0.0382,-0.5520,8.94,95.25,60.56,-2.2362,9.0406,-0.5975,9.3323
11,5,1,3,2,19.717,19717,-1.2400,9.1000,-1.0400,9.2428,-0.0480,0.0229,-0.1909,11.13,95.69,58.00,-2.1050,9.0485,-0.6558,9.3132
11,5,1,3,2,19.847,19847,-2.8400,9.7200,-1.1900,10.1961,-0.0011,0.0022,-0.0687,12.19,95.88,56.88,-2.2018,9.1370,-0.7262,9.4265
11,5,1,3,2,19.977,19977,-1.7300,9.1900,-0.9800,9.4026,0.0305,0.0698,0.2127,9.88,95.63,59.00,-2.1396,9.1439,-0.7597,9.4216
11,5,1,3,2,20.108,20108,-0.9000,8.0300,-0.8200,8.1218,0.0022,0.0884,-0.1647,10.06,95.50,58.19,-1.9763,8.9972,-0.7676,9.2436
11,5,1,3,2,20.239,20239,-2.2900,9.0000,-1.0300,9.3437,-0.0425,0.0818,-0.2640,12.19,95.56,55.44,-2.0176,8.9975,-0.8022,9.2558
11,5,1,3,2,20.369,20369,-1.4700,9.3000,-0.8000,9.4494,0.0076,0.0709,-0.2193,12.56,95.50,54.44,-1.9455,9.0374,-0.8019,9.2791
11,5,1,3,2,20.542,20542,-2.7500,8.7100,-0.6900,9.1598,0.0305,0.0393,-0.4581,15.94,95.13,50.88,-2.0515,8.9942,-0.7872,9.2588
11,5,1,3,2,20.672,20672,-2.8700,8.8100,-1.0700,9.3273,0.0622,0.0818,-0.7003,19.75,94.69,46.69,-2.1593,8.9700,-0.8244,9.2630
11,5,1,3,2,20.802,20802,-4.7100,8.1800,-0.5900,9.4575,0.0785,0.0665,-0.5269,24.56,94.13,42.06,-2.4955,8.8659,-0.7935,9.2445
11,5,1,3,2,20.932,20932,-3.9400,8.5100,-0.7000,9.4039,0.0273,0.0633,-0.0175,25.75,93.50,40.63,-2.6858,8.8190,-0.7812,9.2519
11,5,1,3,2,21.062,21062,-5.2000,9.4800,-0.5100,10.8245,0.0065,-0.0229,-0.1200,27.06,93.44,39.44,-3.0171,8.9061,-0.7455,9.4328
11,5,1,3,2,21.192,21192,-4.3000,8.8700,-0.7700,9.8874,-0.0284,-0.0709,0.0087,26.88,93.63,40.25,-3.1862,8.9013,-0.7487,9.4840
11,5,1,3,2,21.323,21323,-4.1800,8.8100,-0.6200,9.7710,-0.0164,-0.0927,0.0436,26.88,94.13,41.00,-3.3171,8.8893,-0.7317,9.5162
11,5,1,3,2,21.453,21453,-4.7100,8.9300,-0.6300,10.1156,0.0382,-0.0480,-0.1625,27.38,94.38,41.19,-3.5007,8.8947,-0.7183,9.5857
11,5,1,3,2,21.626,21626,-5.1600,8.3200,-0.8300,9.8253,0.0131,-0.0284,0.0076,28.88,94.25,40.19,-3.7193,8.8189,-0.7330,9.5992
11,5,1,3,2,21.757,21757,-4.9700,8.9900,-0.6200,10.2910,-0.0022,-0.0316,0.0000,28.44,94.44,41.13,-3.8841,8.8415,-0.7182,9.6837
11,5,1,3,2,21.887,21887,-4.7400,8.6400,-0.8100,9.8880,0.0633,-0.0011,0.0993,28.38,94.25,41.44,-3.9969,8.8149,-0.7303,9.7063
11,5,1,3,2,22.018,22018,-4.5900,8.6000,-0.6400,9.7692,0.0524,0.0109,0.0393,27.81,93.81,42.19,-4.0751,8.7866,-0.7184,9.7122
11,5,1,3,2,22.148,22148,-4.5900,8.7400,-0.4600,9.8827,0.0611,0.0153,0.1604,27.44,93.38,42.69,-4.1429,8.7805,-0.6843,9.7329
11,5,1,3,2,22.278,22278,-4.1200,8.7100,-0.6100,9.6546,0.0022,0.0153,0.1124,26.31,93.06,43.81,-4.1399,8.7712,-0.6745,9.7225
11,5,1,3,2,22.408,22408,-4.7800,9.1500,-0.3700,10.3299,0.0065,-0.0142,-0.0567,26.88,93.06,43.25,-4.2243,8.8211,-0.6344,9.8009
11,5,1,3,2,22.538,22538,-4.6500,8.6600,-0.7100,9.8551,-0.0109,-0.0382,0.1244,25.94,93.06,44.44,-4.2804,8.7999,-0.6444,9.8069
11,5,1,3,2,22.711,22711,-4.4400,9.1800,-0.6900,10.2207,-0.0284,0.0273,0.2029,24.69,93.44,45.63,-4.3014,8.8500,-0.6504,9.8614
11,6,1,3,2,22.841,22841,-3.1500,8.9600,-0.7800,9.5296,-0.0251,-0.0240,0.3076,22.81,93.56,47.38,-4.1497,8.8645,-0.6675,9.8104
11,6,1,3,2,22.973,22973,-2.8700,7.7500,-0.4200,8.2750,0.0055,-0.0458,0.0938,21.44,93.88,49.00,-3.9810,8.7176,-0.6348,9.6046
11,6,1,3,2,23.104,23104,-2.6700,8.2700,-0.7600,8.7235,-0.0360,-0.0175,0.4931,21.13,94.00,49.50,-3.8083,8.6586,-0.6513,9.4815
11,6,1,3,2,23.239,23239,-3.3600,7.3600,-0.3400,8.0978,-0.0829,-0.0316,0.1004,18.94,94.44,51.81,-3.7492,8.4875,-0.6103,9.2987
11,6,1,3,2,23.369,23369,-2.6400,9.2200,-0.3900,9.5984,-0.0774,0.0109,0.4974,16.38,95.25,54.13,-3.6030,8.5840,-0.5813,9.3277
11,6,1,3,2,23.501,23501,-0.7400,9.1300,-0.7300,9.1890,0.0000,0.0033,0.3905,12.38,95.56,57.88,-3.2258,8.6560,-0.6009,9.2570
11,6,1,3,2,23.631,23631,-1.5600,9.9600,-1.2900,10.1636,0.0404,-0.0774,0.2520,10.50,95.44,60.19,-3.0063,8.8278,-0.6917,9.3513
11,6,1,3,2,23.804,23804,-1.3600,9.6100,-1.0900,9.7668,0.0971,-0.0196,0.0884,9.31,95.00,61.06,-2.7893,8.9309,-0.7442,9.3859
11,6,1,3,2,23.934,23934,-1.6300,8.7900,-0.8500,8.9802,0.0556,0.0055,-0.2182,9.94,94.56,60.25,-2.6366,8.9123,-0.7581,9.3250
11,6,1,3,2,24.064,24064,-1.9100,9.5600,-0.6700,9.7719,-0.0022,0.0273,0.2258,9.50,94.31,60.44,-2.5408,8.9977,-0.7465,9.3793
11,6,1,3,2,24.194,24194,-0.4000,9.5800,-0.4200,9.5975,0.0273,0.0502,0.4352,7.06,94.13,62.25,-2.2587,9.0744,-0.7035,9.3777
11,6,1,3,2,24.324,24324,-1.0500,9.4300,-0.6600,9.5112,0.0011,0.0295,-0.1254,6.88,93.94,61.81,-2.0994,9.1213,-0.6978,9.3857
11,6,1,3,2,24.455,24455,-0.2500,9.5200,-0.5000,9.5364,0.0065,-0.0033,0.0098,6.94,93.94,61.38,-1.8557,9.1738,-0.6717,9.3837
11,6,1,3,2,24.585,24585,-0.3600,8.8100,-0.2400,8.8206,0.0556,-0.0513,-0.2094,8.13,93.81,60.25,-1.6586,9.1259,-0.6148,9.2957
11,6,1,3,2,24.715,24715,-1.9100,9.5200,-0.5400,9.7247,0.0687,-0.0120,-0.1931,10.31,93.50,58.38,-1.6918,9.1778,-0.6049,9.3520
11,6,1,3,2,24.888,24888,-1.5900,8.5000,-0.5100,8.6625,-0.0098,-0.0240,-0.3153,12.06,93.13,56.69,-1.6783,9.0885,-0.5924,9.2611
11,6,1,3,2,25.019,25019,-2.7700,8.0200,-0.4500,8.4968,0.0251,-0.0327,-0.5138,14.56,93.19,54.38,-1.8222,8.9477,-0.5737,9.1493
11,6,1,3,2,25.149,25149,-1.8000,9.2900,-0.4700,9.4744,0.0109,0.0098,-0.0622,16.13,93.06,52.94,-1.8193,8.9928,-0.5600,9.1920
11,6,1,3,2,25.279,25279,-3.9300,9.6500,-0.8500,10.4542,-0.0589,-0.0076,-0.6807,19.50,93.19,49.63,-2.0974,9.0794,-0.5982,9.3377
11,6,1,3,2,25.409,25409,-5.0500,9.1200,-0.5100,10.4373,-0.0033,0.0622,-0.5705,24.50,93.31,44.63,-2.4865,9.0847,-0.5866,9.4371
11,6,1,3,2,25.539,25539,-5.6900,8.8900,-1.4900,10.6597,-0.0567,0.0567,-0.3360,27.81,93.31,41.25,-2.9086,9.0591,-0.7056,9.5407
11,6,1,3,2,25.669,25669,-4.9800,8.8500,-0.6200,10.1739,-0.1124,0.0065,0.0436,28.56,94.06,40.63,-3.1816,9.0315,-0.6944,9.6007
11,6,1,3,2,25.800,25800,-4.7300,9.1200,-0.8700,10.3104,-0.0796,-0.0425,0.1189,27.88,94.88,41.13,-3.3856,9.0432,-0.7175,9.6828
11,6,1,3,2,25.972,25972,-4.6400,8.9200,-0.7200,10.0804,0.0065,-0.0556,0.2345,26.69,95.44,43.00,-3.5509,9.0270,-0.7178,9.7268
11,6,1,3,2,26.102,26102,-3.6100,8.9000,-1.0400,9.6604,0.0535,-0.0218,0.2094,24.25,95.25,45.81,-3.5587,9.0102,-0.7603,9.7173
11,6,1,3,2,26.232,26232,-4.4200,9.1900,-0.8200,10.2306,0.0644,-0.0153,0.0371,24.31,95.00,46.13,-3.6722,9.0339,-0.7682,9.7820
11,6,1,3,2,26.362,26362,-3.5100,9.2300,-0.4400,9.8847,0.1505,-0.0044,0.3731,22.00,94.13,49.00,-3.6508,9.0598,-0.7249,9.7945
11,6,1,3,2,26.492,26492,-3.4700,8.5600,-0.6800,9.2616,0.0218,0.0120,-0.1974,22.06,93.50,49.19,-3.6270,8.9939,-0.7190,9.7243
11,6,1,3,2,26.623,26623,-3.6600,9.3400,-0.7100,10.0566,-0.0349,-0.0196,-0.0458,23.13,93.63,48.19,-3.6313,9.0395,-0.7178,9.7680
11,6,1,3,2,26.753,26753,-3.8900,9.7200,-0.9200,10.5098,-0.0513,-0.0393,-0.1560,23.69,94.06,47.69,-3.6654,9.1292,-0.7445,9.8657
11,6,1,3,2,26.884,26884,-5.2800,9.4700,-1.4700,10.9417,-0.0109,-0.0305,-0.3665,25.88,94.50,45.69,-3.8782,9.1741,-0.8401,9.9955
11,6,1,3,2,27.056,27056,-4.1600,8.8800,-0.6900,9.8304,0.0371,-0.0185,0.0502,25.63,94.44,46.13,-3.9153,9.1353,-0.8203,9.9728
11,6,1,3,2,27.186,27186,-4.8000,8.9000,-0.8400,10.1467,-0.0480,0.0000,-0.0993,25.94,94.63,45.88,-4.0319,9.1043,-0.8229,9.9911
11,6,1,3,2,27.316,27316,-4.7600,8.8600,-0.8500,10.0935,-0.0840,-0.0284,0.0142,26.81,95.31,44.69,-4.1278,9.0721,-0.8265,10.0013
11,7,1,3,2,27.446,27446,-3.6600,7.7700,-0.8500,8.6308,-0.0764,-0.0295,0.5280,25.06,95.81,46.44,-4.0662,8.9005,-0.8296,9.8205
11,7,1,3,2,27.576,27576,-3.3100,7.7100,-0.5100,8.4060,-0.1287,-0.0447,0.4102,21.75,96.56,49.63,-3.9665,8.7437,-0.7874,9.6335
11,7,1,3,2,27.707,27707,-2.1600,8.1200,-0.9200,8.4526,-0.0905,0.0131,0.6010,17.94,97.13,53.31,-3.7285,8.6615,-0.8049,9.4642
11,7,1,3,2,27.837,27837,-1.9200,9.2400,-1.0400,9.4945,-0.0535,-0.0185,0.2771,15.63,97.56,55.44,-3.4902,8.7377,-0.8359,9.4460
11,7,1,3,2,27.968,27968,-1.6200,9.3200,-1.2600,9.5433,0.0349,-0.0480,0.2847,13.06,97.50,57.88,-3.2437,8.8144,-0.8918,9.4346
11,7,1,3,2,28.141,28141,-2.0600,9.3600,-1.5300,9.7054,0.1582,-0.0087,0.0284,11.69,96.75,59.44,-3.0878,8.8863,-0.9759,9.4580
11,7,1,3,2,28.271,28271,-1.7500,9.0400,-0.8300,9.2452,0.1276,0.0415,0.0982,10.56,95.63,60.44,-2.9115,8.9066,-0.9567,9.4191
11,7,1,3,2,28.401,28401,-1.2300,9.1800,-0.8800,9.3037,0.0709,0.0109,0.1680,9.88,94.94,61.00,-2.6899,8.9426,-0.9466,9.3863
11,7,1,3,2,28.531,28531,-0.9900,9.2200,-0.4100,9.2821,0.0131,0.0000,0.2476,8.31,94.56,62.31,-2.4659,8.9792,-0.8759,9.3527
11,7,1,3,2,28.661,28661,-1.5400,9.6500,-0.4000,9.7803,-0.0229,0.0415,-0.0262,7.31,94.50,62.81,-2.3439,9.0676,-0.8131,9.4008
11,7,1,3,2,28.791,28791,-0.8000,9.8700,-0.2800,9.9063,0.0545,0.0491,0.1145,6.81,94.25,62.38,-2.1404,9.1733,-0.7429,9.4490
11,7,1,3,2,28.922,28922,-0.8100,9.6900,-0.8300,9.7592,0.0709,-0.0142,-0.0447,6.31,93.69,62.81,-1.9651,9.2414,-0.7544,9.4781
11,7,1,3,2,29.052,29052,-1.6600,9.5700,-0.5100,9.7263,0.0469,-0.0185,-0.0665,6.88,93.38,62.44,-1.9249,9.2847,-0.7222,9.5096
11,7,1,3,2,29.225,29225,-0.6500,9.1600,-0.4800,9.1956,0.0098,0.0284,0.3349,5.75,93.13,63.44,-1.7569,9.2683,-0.6903,9.4585
11,7,1,3,2,29.355,29355,-0.4100,9.1000,-0.6500,9.1324,-0.0415,0.0316,-0.1374,4.75,93.19,64.25,-1.5794,9.2461,-0.6850,9.4050
11,7,1,3,2,29.485,29485,-1.0600,9.7200,-0.2700,9.7814,0.0055,0.0589,-0.2858,6.75,93.38,61.94,-1.5110,9.3085,-0.6303,9.4514
11,7,1,3,2,29.615,29615,-0.6100,8.8400,-0.1500,8.8623,0.0611,0.0884,-0.6414,9.06,93.00,59.13,-1.3923,9.2468,-0.5670,9.3682
11,7,1,3,2,29.745,29745,-2.6300,7.6900,0.0400,8.1274,0.0207,0.0720,-0.7014,14.50,92.75,53.06,-1.5554,9.0417,-0.4870,9.1874
11,7,1,3,2,29.876,29876,-2.9300,8.5100,-0.4700,9.0125,-0.0535,0.1211,-0.5869,18.63,92.88,48.06,-1.7365,8.9716,-0.4848,9.1510
11,7,1,3,2,30.006,30006,-3.3400,8.5000,-0.8800,9.1750,-0.0491,0.0622,-0.4636,22.88,93.31,43.31,-1.9478,8.9094,-0.5368,9.1357
11,7,1,3,2,30.136,30136,-4.8000,8.6800,-0.7500,9.9471,-0.1058,0.0055,-0.2498,25.88,93.94,40.50,-2.3236,8.8792,-0.5649,9.1956
11,7,1,3,2,30.309,30309,-4.1400,8.4100,-0.8500,9.4122,-0.1669,-0.0698,-0.3294,27.38,95.38,38.63,-2.5630,8.8174,-0.6025,9.2021
11,7,1,3,2,30.439,30439,-5.0000,8.9000,-1.0000,10.2572,-0.0894,-0.1200,-0.1113,29.25,96.94,37.25,-2.8841,8.8283,-0.6549,9.3105
11,7,1,3,2,30.569,30569,-5.1900,8.6300,-1.2200,10.1440,0.0109,-0.0262,-0.0404,29.44,97.25,37.56,-3.1880,8.8021,-0.7293,9.3900
11,7,1,3,2,30.699,30699,-4.9700,8.8200,-1.2700,10.2032,-0.0578,-0.0175,-0.1462,29.94,97.56,37.25,-3.4228,8.8045,-0.8006,9.4803
11,7,1,3,2,30.830,30830,-5.0700,8.6600,-1.5100,10.1479,0.0076,-0.0273,0.0829,30.31,97.75,37.00,-3.6399,8.7855,-0.8941,9.5516
11,7,1,3,2,30.960,30960,-5.3300,8.6700,-1.1300,10.2399,0.0218,-0.0251,-0.1091,30.25,98.00,37.56,-3.8626,8.7702,-0.9252,9.6277
11,7,1,3,2,31.090,31090,-4.9000,8.4400,-1.2100,9.8340,0.0502,-0.0360,0.0120,30.50,97.69,37.88,-3.9993,8.7267,-0.9627,9.6476
11,7,1,3,2,31.221,31221,-5.2400,8.4800,-1.1800,10.0379,0.0425,-0.0535,-0.0022,30.44,97.69,38.44,-4.1628,8.6942,-0.9913,9.6902
11,7,1,3,2,31.393,31393,-4.7200,8.5000,-1.1500,9.7903,0.0513,-0.0415,-0.1156,30.75,97.50,38.69,-4.2362,8.6686,-1.0122,9.7013
11,7,1,3,2,31.523,31523,-5.1600,8.3900,-1.2500,9.9288,0.0360,-0.0316,0.0033,31.19,97.44,38.69,-4.3579,8.6319,-1.0436,9.7258
11,7,1,3,2,31.653,31653,-5.4100,8.5000,-1.1400,10.1399,0.0567,-0.0218,0.0044,31.50,97.25,38.75,-4.4966,8.6145,-1.0563,9.7747
11,7,1,3,2,31.783,31783,-5.0100,8.7900,-1.1500,10.1827,0.0873,0.0055,0.2291,30.19,96.63,40.38,-4.5642,8.6376,-1.0686,9.8277
11,7,1,3,2,31.914,31914,-4.9500,8.5400,-0.9700,9.9184,0.0971,0.0295,-0.0076,29.63,95.94,41.25,-4.6151,8.6248,-1.0556,9.8387
11,7,1,3,2,32.044,32044,-5.4400,8.2700,-0.8700,9.9370,0.0949,0.0971,0.0229,29.88,95.06,41.00,-4.7238,8.5780,-1.0312,9.8468
11,7,1,3,2,32.175,32175,-5.0800,8.5400,-0.5800,9.9536,0.1396,0.1418,0.1833,29.50,93.63,41.06,-4.7707,8.5730,-0.9717,9.8590
11,8,1,3,2,32.305,32305,-3.8200,8.6600,-0.1100,9.4657,0.1702,0.1134,0.3632,27.00,92.00,43.25,-4.6454,8.5845,-0.8582,9.7985
11,8,1,3,2,32.478,32478,-4.1300,8.0700,0.2700,9.0694,0.1636,0.0785,0.2280,25.13,89.94,45.13,-4.5775,8.5167,-0.7095,9.6949
11,8,1,3,2,32.609,32609,-3.5100,8.6500,0.2400,9.3381,0.2105,0.0633,0.2182,23.31,88.50,47.00,-4.4368,8.5343,-0.5844,9.6364
11,8,1,3,2,32.739,32739,-3.2300,8.1000,0.4700,8.7329,0.2934,0.0829,0.1124,22.31,86.44,48.13,-4.2778,8.4770,-0.4454,9.5057
11,8,1,3,2,32.869,32869,-2.7400,8.1000,0.7700,8.5855,0.3207,0.0502,0.4920,20.13,84.06,50.69,-4.0752,8.4273,-0.2853,9.3653
11,8,1,3,2,32.999,32999,-1.9000,8.9900,1.4600,9.3039,0.3676,0.0305,0.5705,16.19,81.69,55.06,-3.7885,8.5015,-0.0553,9.3076
11,8,1,3,2,33.129,33129,-1.3800,7.9500,1.5800,8.2221,0.2858,-0.0044,0.0360,14.19,79.38,57.50,-3.4712,8.4288,0.1602,9.1170
11,8,1,3,2,33.259,33259,-2.2200,8.8200,2.1200,9.3389,0.0851,-0.0087,0.8290,12.50,78.19,59.56,-3.3063,8.4804,0.4184,9.1117
11,8,1,3,2,33.390,33390,-1.2800,9.1100,2.7800,9.6104,0.0327,0.0251,0.0371,8.44,78.06,63.81,-3.0393,8.5633,0.7296,9.1159
11,8,1,3,2,33.562,33562,-0.1300,9.1800,2.3800,9.4844,0.0611,0.0458,0.0818,6.25,77.38,65.56,-2.6559,8.6446,0.9471,9.0928
11,8,1,3,2,33.692,33692,-1.0700,9.1300,2.2700,9.4686,-0.0251,0.0273,-0.4320,7.50,77.06,63.75,-2.4469,8.7086,1.1214,9.1150
11,8,1,3,2,33.822,33822,-1.7900,9.4000,2.2700,9.8345,-0.0251,0.0229,-0.2356,9.69,77.13,61.25,-2.3604,8.7997,1.2728,9.1992
11,8,1,3,2,33.952,33952,-1.1900,9.2800,2.2600,9.6251,-0.0065,0.0109,0.0316,9.88,77.13,60.63,-2.2061,8.8630,1.4029,9.2405
11,8,1,3,2,34.082,34082,-1.1100,8.9900,1.9900,9.2743,-0.0349,-0.0753,-0.0207,9.50,77.25,61.31,-2.0617,8.8797,1.4802,9.2353
11,8,1,3,2,34.213,34213,-1.0500,8.1400,1.6500,8.3717,-0.0469,-0.1254,-0.2542,10.44,77.56,61.00,-1.9284,8.7822,1.5026,9.1161
11,8,1,3,2,34.344,34344,-2.2500,8.0500,1.7200,8.5337,-0.0305,-0.1745,-0.4734,13.81,77.94,58.81,-1.9708,8.6857,1.5313,9.0372
11,8,1,3,2,34.474,34474,-1.9200,9.5700,1.7000,9.9076,0.0240,-0.1254,0.2563,13.69,78.38,60.06,-1.9641,8.8023,1.5535,9.1515
11,8,1,3,2,34.647,34647,-2.8400,9.3100,0.3800,9.7410,-0.0076,-0.1014,-0.3185,16.81,78.06,58.06,-2.0795,8.8692,1.3989,9.2165
11,8,1,3,2,34.777,34777,-2.8500,7.5800,2.0400,8.3511,0.1516,-0.0873,-1.0003,21.25,77.06,54.44,-2.1810,8.6993,1.4833,9.0904
11,8,1,3,2,34.907,34907,-6.2100,8.1700,2.8800,10.6587,0.1560,-0.0524,-0.6087,27.25,75.75,49.94,-2.7119,8.6295,1.6674,9.1980
11,8,1,3,2,35.037,35037,-5.5400,7.5400,2.1300,9.5958,0.0295,0.0120,-0.2880,29.56,74.69,48.63,-3.0846,8.4860,1.7283,9.1931
11,8,1,3,2,35.167,35167,-5.6600,8.7200,2.4800,10.6876,-0.0065,-0.0044,-0.0567,30.69,74.56,48.38,-3.4240,8.5168,1.8274,9.3594
11,8,1,3,2,35.297,35297,-5.7700,7.6000,2.3300,9.8225,-0.0393,0.0207,0.2607,30.13,74.63,49.19,-3.7331,8.3960,1.8936,9.3816
11,8,1,3,2,35.428,35428,-5.0200,8.8600,2.5000,10.4857,-0.1418,-0.0316,0.1069,28.00,75.75,51.63,-3.9027,8.4571,1.9735,9.5210
11,8,1,3,2,35.558,35558,-4.7600,8.8200,1.7600,10.1758,-0.0458,-0.0229,-0.2073,28.56,76.50,51.13,-4.0157,8.5050,1.9454,9.6044
11,8,1,3,2,35.731,35731,-5.4800,8.7000,1.7100,10.4233,-0.0087,-0.0033,-0.1625,30.31,76.69,49.56,-4.2086,8.5307,1.9144,9.7031
11,8,1,3,2,35.862,35862,-5.1600,8.0500,1.7800,9.7261,0.0589,0.0251,-0.0284,31.19,76.19,48.88,-4.3340,8.4673,1.8967,9.6993
11,8,1,3,2,35.992,35992,-4.9600,8.0900,2.0900,9.7169,0.0556,0.0065,0.0644,30.69,75.75,49.63,-4.4165,8.4176,1.9221,9.6982
11,8,1,3,2,36.122,36122,-5.4800,8.3200,2.1900,10.2004,-0.0131,-0.0196,0.0000,30.88,75.69,49.81,-4.5566,8.4047,1.9574,9.7588
11,8,1,3,2,36.252,36252,-4.9600,8.5600,2.0400,10.1013,-0.0371,-0.0065,0.2694,30.06,76.13,50.69,-4.6098,8.4252,1.9683,9.8035
11,9,1,3,2,36.382,36382,-4.3900,8.5300,1.8600,9.7720,-0.0305,-0.0185,0.0371,28.94,76.50,51.75,-4.5808,8.4390,1.9540,9.7989
11,9,1,3,2,36.512,36512,-4.2100,7.8100,1.6700,9.0282,0.0000,-0.0316,-0.0720,29.00,76.81,51.88,-4.5320,8.3561,1.9166,9.6973
11,9,1,3,2,36.642,36642,-5.1800,8.5900,1.9400,10.2169,0.0196,-0.0218,0.0316,29.81,76.81,51.25,-4.6174,8.3869,1.9197,9.7645
11,9,1,3,2,36.815,36815,-5.2800,8.2200,1.9600,9.9644,0.0109,0.0360,-0.0753,29.94,76.63,51.06,-4.7047,8.3649,1.9250,9.7884
11,9,1,3,2,36.945,36945,-5.6100,8.3100,1.8600,10.1974,-0.0349,0.0447,0.0251,30.31,76.50,50.44,-4.8240,8.3577,1.9164,9.8384
11,9,1,3,2,37.075,37075,-5.2300,8.0900,1.8400,9.8075,-0.0982,0.0295,0.3436,29.56,76.94,50.88,-4.8775,8.3224,1.9064,9.8329
11,9,1,3,2,37.205,37205,-4.6600,7.9400,1.7500,9.3713,-0.1014,0.1058,0.3425,27.19,77.75,52.63,-4.8488,8.2720,1.8858,9.7721
11,9,1,3,2,37.335,37335,-3.6000,7.4100,1.6200,8.3960,-0.1276,0.1538,0.5160,24.31,78.31,54.38,-4.6843,8.1584,1.8507,9.5879
11,9,1,3,2,37.465,37465,-2.8600,7.6800,1.5700,8.3443,-0.1145,0.1593,0.2749,21.44,78.94,55.88,-4.4439,8.0954,1.8137,9.4113
11,9,1,3,2,37.596,37596,-2.3800,8.1900,1.4300,8.6479,-0.1014,0.1462,0.2629,19.19,79.38,56.81,-4.1719,8.1079,1.7632,9.2871
11,9,1,3,2,37.726,37726,-2.3200,9.0700,1.6500,9.5063,-0.1036,0.0644,0.3371,16.94,80.00,57.75,-3.9279,8.2346,1.7483,9.2895
11,9,1,3,2,37.899,37899,-1.9600,9.1500,1.2200,9.4368,-0.0469,0.0273,0.3185,14.13,80.69,59.75,-3.6686,8.3553,1.6787,9.2783
11,9,1,3,2,38.029,38029,-1.7700,9.4500,1.4900,9.7291,-0.0371,0.0491,0.1407,12.06,81.06,60.81,-3.4184,8.4995,1.6538,9.3093
11,9,1,3,2,38.159,38159,-1.4500,9.4300,1.4700,9.6534,-0.0207,0.0633,-0.0371,11.44,81.19,60.44,-3.1590,8.6221,1.6296,9.3261
11,9,1,3,2,38.289,38289,-1.2800,9.0800,1.3900,9.2745,-0.0065,0.0240,0.0098,11.50,81.25,59.56,-2.9114,8.6825,1.5980,9.2960
11,9,1,3,2,38.419,38419,-1.1100,8.2100,1.4800,8.4159,-0.0022,-0.0262,-0.4723,12.31,81.19,58.13,-2.6740,8.6202,1.5825,9.1631
11,9,1,3,2,38.549,38549,-2.0900,8.6700,1.0900,8.9847,-0.0578,-0.0807,-0.4287,15.56,81.31,55.00,-2.5971,8.6268,1.5176,9.1361
11,9,1,3,2,38.680,38680,-2.7100,8.7100,1.3400,9.2198,0.0251,-0.0949,-0.3818,18.31,81.56,52.88,-2.6119,8.6377,1.4942,9.1469
11,9,1,3,2,38.811,38811,-3.4200,9.2500,0.3000,9.8666,0.1822,-0.0938,-0.3872,21.63,81.00,50.56,-2.7184,8.7184,1.3368,9.2297
11,9,1,3,2,38.983,38983,-3.7600,8.3800,1.7300,9.3464,0.1789,-0.0578,-0.1996,23.31,79.13,50.19,-2.8557,8.6738,1.3886,9.2368
11,9,1,3,2,39.113,39113,-4.1400,7.7900,1.8600,9.0157,0.0698,-0.0938,-0.3698,26.00,78.00,48.31,-3.0249,8.5574,1.4507,9.1915
11,9,1,3,2,39.243,39243,-4.4100,7.8900,1.8100,9.2183,-0.0316,-0.1538,-0.0611,27.56,78.25,48.19,-3.2074,8.4694,1.4981,9.1795
11,9,1,3,2,39.373,39373,-4.6600,8.4000,1.6200,9.7417,-0.0731,-0.1680,-0.0535,28.44,79.19,48.63,-3.3988,8.4603,1.5141,9.2423
11,9,1,3,2,39.503,39503,-5.0700,8.8700,1.4100,10.3136,-0.0109,-0.0862,-0.0785,29.00,80.00,49.13,-3.6191,8.5143,1.5004,9.3724
11,9,1,3,2,39.633,39633,-5.4900,8.3300,1.0600,10.0326,-0.0654,-0.1047,-0.0818,29.88,80.56,48.88,-3.8656,8.4900,1.4424,9.4394
11,9,1,3,2,39.764,39764,-5.7900,8.8300,1.2300,10.6304,-0.0098,-0.0622,-0.0022,30.44,81.19,48.75,-4.1192,8.5348,1.4144,9.5818
11,9,1,3,2,39.895,39895,-5.1700,8.6600,1.1400,10.1501,0.0262,-0.0240,0.2400,29.19,81.31,50.63,-4.2577,8.5513,1.3782,9.6515
11,9,1,3,2,40.067,40067,-4.7400,8.5800,1.2000,9.8754,0.0415,0.0742,-0.0807,27.69,80.81,52.31,-4.3212,8.5551,1.3548,9.6797
11,9,1,3,2,40.197,40197,-4.6900,8.9200,1.5400,10.1948,0.0415,0.0807,-0.0371,27.94,80.31,51.75,-4.3698,8.6032,1.3792,9.7474
11,10,1,3,2,40.327,40327,-4.0700,8.5400,1.5000,9.5784,0.0425,0.0480,-0.1636,28.44,79.69,50.94,-4.3303,8.5948,1.3951,9.7247
11,10,1,3,2,40.457,40457,-3.8200,7.5600,1.4100,8.5869,0.0251,0.0087,-0.2182,30.63,79.13,48.56,-4.2631,8.4585,1.3971,9.5745
11,10,1,3,2,40.587,40587,-5.5900,8.6500,1.3000,10.3808,0.0185,-0.0764,-0.2040,32.13,79.13,47.38,-4.4379,8.4837,1.3843,9.6739
11,10,1,3,2,40.718,40718,-6.0100,8.5800,1.1600,10.5395,0.0000,-0.0960,-0.1614,33.69,79.44,46.38,-4.6451,8.4964,1.3547,9.7776
11,10,1,3,2,40.848,40848,-6.5300,8.2900,1.4400,10.6508,0.0065,-0.0295,0.1276,34.31,79.75,46.19,-4.8935,8.4692,1.3659,9.8762
11,10,1,3,2,40.978,40978,-5.7400,8.3500,1.4600,10.2373,-0.0316,0.0349,0.0556,33.13,79.94,47.25,-5.0050,8.4535,1.3783,9.9203
11,10,1,3,2,41.151,41151,-6.0500,8.1000,1.3100,10.1945,-0.0109,0.0295,-0.0065,33.19,80.13,46.75,-5.1427,8.4069,1.3693,9.9498
11,10,1,3,2,41.281,41281,-5.4700,7.9900,1.2100,9.7583,0.0055,0.0589,0.3131,32.25,80.19,47.50,-5.1858,8.3520,1.3483,9.9230
11,10,1,3,2,41.411,41411,-3.3100,7.3800,1.3100,8.1937,0.0164,0.0589,0.4254,29.19,80.25,50.13,-4.9387,8.2239,1.3433,9.6864
11,10,1,3,2,41.541,41541,-4.0600,6.8000,1.4900,8.0588,-0.0327,0.0305,0.1014,28.00,80.31,51.06,-4.8229,8.0363,1.3626,9.4709
11,10,1,3,2,41.671,41671,-3.7800,7.9300,1.0300,8.8450,-0.0578,0.0720,0.7483,24.75,80.88,53.88,-4.6854,8.0223,1.3188,9.3835
11,10,1,3,2,41.802,41802,-2.2700,8.9100,1.6300,9.3380,-0.0164,0.1614,0.3534,20.19,81.06,57.50,-4.3672,8.1392,1.3598,9.3364
11,10,1,3,2,41.932,41932,-3.6800,9.1700,0.9700,9.9284,0.0742,0.1636,-0.0142,21.75,80.50,54.63,-4.2766,8.2751,1.3084,9.4063
11,10,1,3,2,42.063,42063,-3.1000,7.8200,1.4600,8.5378,0.0654,0.0687,0.1974,20.31,79.69,55.38,-4.1216,8.2151,1.3284,9.2865
11,10,1,3,2,42.235,42235,-3.0300,9.0700,2.0100,9.7717,-0.0415,0.0796,0.2313,17.25,79.56,57.69,-3.9777,8.3278,1.4182,9.3373
11,10,1,3,2,42.365,42365,-2.3300,9.0000,1.6700,9.4455,0.0087,0.1167,0.0633,16.38,79.50,57.63,-3.7606,8.4163,1.4514,9.3318
11,10,1,3,2,42.495,42495,-1.7100,9.5000,2.0400,9.8659,0.0240,0.0545,0.2673,14.69,79.31,58.25,-3.4904,8.5591,1.5290,9.3691
11,10,1,3,2,42.625,42625,-1.6000,8.9500,1.7100,9.2513,0.0175,-0.0098,-0.2160,14.69,79.06,58.00,-3.2413,8.6106,1.5528,9.3306
11,10,1,3,2,42.755,42755,-1.9700,8.8000,1.9900,9.2348,0.0469,-0.0742,-0.2007,16.75,78.88,56.19,-3.0738,8.6356,1.6104,9.3067
11,10,1,3,2,42.885,42885,-3.2600,7.5200,2.2000,8.4863,0.0644,-0.1222,-0.4036,19.81,78.50,53.88,-3.0983,8.4886,1.6881,9.1927
11,10,1,3,2,43.016,43016,-3.1200,8.3800,2.1500,9.1968,0.0425,-0.1756,-0.2040,21.69,78.38,53.13,-3.1012,8.4743,1.7490,9.1918
11,10,1,3,2,43.146,43146,-3.7700,7.7300,1.5200,8.7336,0.0556,-0.2214,-0.3054,23.81,78.38,52.81,-3.1893,8.3762,1.7188,9.1262
11,10,1,3,2,43.319,43319,-3.7000,7.5700,1.0400,8.4898,-0.0371,-0.1451,-0.4614,26.63,78.69,51.63,-3.2566,8.2700,1.6294,9.0362
11,10,1,3,2,43.450,43450,-5.1500,8.5100,1.5000,10.0595,-0.0360,-0.1353,-0.2007,29.25,79.31,50.13,-3.5061,8.3016,1.6123,9.1547
11,10,1,3,2,43.581,43581,-5.3900,8.2800,1.1800,9.9500,0.0371,-0.0567,-0.2509,31.50,79.25,48.81,-3.7543,8.2988,1.5553,9.2403
11,10,1,3,2,43.711,43711,-5.1100,8.1800,1.6200,9.7800,0.0316,-0.0196,0.0535,32.19,79.13,49.00,-3.9330,8.2831,1.5639,9.3018
11,10,1,3,2,43.842,43842,-5.1900,8.0300,1.2900,9.6479,0.0382,0.0120,-0.2094,32.56,78.88,48.88,-4.0986,8.2497,1.5278,9.3376
11,10,1,3,2,43.972,43972,-6.2000,8.7300,2.0300,10.8983,0.0862,0.0284,0.0676,33.75,78.25,48.00,-4.3755,8.3130,1.5940,9.5285
11,10,1,3,2,44.104,44104,-4.9600,7.5800,1.3800,9.1631,0.0567,0.0044,0.0011,32.81,77.63,49.13,-4.4526,8.2164,1.5658,9.4756
11,10,1,3,2,44.235,44235,-5.9200,8.4800,2.0600,10.5452,0.0120,-0.0153,-0.0731,33.50,77.50,48.50,-4.6459,8.2512,1.6309,9.6087
11,10,1,3,2,44.411,44411,-5.3300,8.1600,1.7700,9.9059,-0.0087,-0.0404,0.2618,32.50,77.63,49.88,-4.7361,8.2392,1.6492,9.6454
11,10,1,3,2,44.541,44541,-5.0700,8.4400,1.6500,9.9830,-0.0349,-0.0535,0.0087,31.63,78.06,51.00,-4.7801,8.2656,1.6493,9.6897
11,10,1,3,2,44.672,44672,-5.6700,8.1400,1.7400,10.0715,-0.0349,-0.0022,-0.0273,32.06,78.38,50.69,-4.8973,8.2491,1.6613,9.7361
11,10,1,3,2,44.802,44802,-5.3700,8.7300,1.6300,10.3782,-0.0076,0.0360,0.0644,31.88,78.56,50.69,-4.9596,8.3124,1.6572,9.8204
11,10,1,3,2,44.933,44933,-5.6300,8.1200,1.5500,10.0017,0.0131,0.0676,-0.1364,31.94,78.31,50.31,-5.0480,8.2871,1.6430,9.8416
11,10,1,3,2,45.064,45064,-5.1500,8.1300,2.0800,9.8461,-0.0175,0.0458,0.1080,31.75,78.06,50.06,-5.0614,8.2664,1.7006,9.8409
11,10,1,3,2,45.194,45194,-5.1800,8.3100,1.6400,9.9287,-0.0654,-0.0164,0.0153,31.19,78.31,50.44,-5.0770,8.2721,1.6926,9.8524
11,10,1,3,2,45.325,45325,-5.7500,8.6700,1.4700,10.5068,-0.0491,-0.0524,0.2182,30.56,79.13,51.19,-5.1657,8.3246,1.6633,9.9373
11,10,1,3,2,45.497,45497,-4.1600,8.0900,1.6200,9.2400,-0.0185,0.0087,0.5967,27.13,79.88,54.88,-5.0332,8.2937,1.6576,9.8420
11,10,1,3,2,45.627,45627,-3.8100,7.5800,1.3400,8.5888,-0.1789,-0.0175,0.0022,25.31,80.81,56.50,-4.8720,8.1996,1.6157,9.6737
11,10,1,3,2,45.757,45757,-3.7700,7.8600,1.1300,8.7903,-0.1865,-0.0142,0.5629,24.13,82.19,57.31,-4.7268,8.1549,1.5517,9.5526
11,10,1,3,2,45.887,45887,-3.1900,8.0700,0.9400,8.7284,-0.1691,0.0175,0.4440,20.25,83.69,60.75,-4.5243,8.1437,1.4711,9.4315
11,10,1,3,2,46.017,46017,-2.2300,8.5600,0.6900,8.8726,-0.1167,0.0611,0.6054,16.44,84.81,64.00,-4.2220,8.1985,1.3682,9.3227
11,10,1,3,2,46.148,46148,-0.8800,9.3900,0.6300,9.4522,-0.1625,0.0633,0.5487,11.38,85.88,67.25,-3.7816,8.3555,1.2709,9.2591
