participant,rep,equipment_code,exercise_code,quality_code,timestamp,timestamp_ms,accelX,accelY,accelZ,accelMag,gyroX,gyroY,gyroZ,roll,pitch,yaw,filteredX,filteredY,filteredZ,filteredMag
11,1,1,3,2,00.000,0,-0.2100,9.7200,1.7100,9.8715,0.0087,-0.0327,0.1614,2.50,78.50,78.63,-0.3816,9.6699,1.4694,9.7884
11,1,1,3,2,00.131,131,-0.4800,9.6300,1.7500,9.7995,-0.0033,-0.1069,0.0458,2.13,78.63,79.56,-0.3946,9.6647,1.5063,9.7893
11,1,1,3,2,00.261,261,-0.5000,9.6900,1.8000,9.8684,0.0207,-0.0600,0.0316,1.75,78.69,80.63,-0.4085,9.6680,1.5450,9.7992
11,1,1,3,2,00.434,434,-0.3700,9.4800,1.5700,9.6162,0.0065,-0.0185,0.0774,2.50,78.75,80.13,-0.4034,9.6432,1.5483,9.7751
11,1,1,3,2,00.564,564,-0.3600,9.6100,1.4900,9.7315,-0.0262,-0.0131,-0.0404,2.13,79.06,80.63,-0.3977,9.6389,1.5406,9.7693
11,1,1,3,2,00.694,694,-0.5300,9.4000,1.5800,9.5466,-0.0251,0.0273,-0.1331,3.00,79.44,79.69,-0.4151,9.6074,1.5458,9.7398
11,1,1,3,2,00.824,824,-0.4300,8.8100,1.2600,8.9100,0.0273,0.0240,-0.2171,3.94,79.56,78.50,-0.4171,9.5023,1.5082,9.6303
11,1,1,3,2,00.954,954,-0.9700,8.9600,1.3600,9.1144,0.0513,0.0098,-0.0960,5.31,79.56,77.06,-0.4899,9.4308,1.4886,9.5602
11,1,1,3,2,01.084,1084,-1.1500,9.1600,1.7300,9.3926,0.1134,0.0218,-0.1549,6.25,79.00,76.00,-0.5769,9.3952,1.5204,9.5349
11,1,1,3,2,01.215,1215,-1.0500,9.2400,1.9600,9.5038,0.1025,0.0305,0.1134,6.44,78.13,75.69,-0.6393,9.3747,1.5784,9.5281
11,1,1,3,2,01.346,1346,-0.5600,9.8400,2.1700,10.0920,0.0295,0.0207,-0.1680,6.06,77.69,75.88,-0.6288,9.4360,1.6563,9.6009
11,1,1,3,2,01.518,1518,-1.5300,9.5300,2.1600,9.8908,0.0273,-0.0185,-0.3120,9.00,77.44,72.88,-0.7476,9.4484,1.7227,9.6332
11,1,1,3,2,01.649,1649,-2.0200,8.7700,2.2200,9.2694,-0.0087,-0.0469,-0.2225,11.06,77.31,71.06,-0.9152,9.3590,1.7882,9.5722
11,1,1,3,2,01.779,1779,-1.9700,9.2100,1.7400,9.5777,-0.0349,-0.0371,0.1025,11.19,77.63,71.25,-1.0542,9.3394,1.7819,9.5661
11,1,1,3,2,01.909,1909,-2.4900,9.7200,1.9500,10.2216,-0.0251,-0.0196,-0.2083,11.75,77.94,70.81,-1.2434,9.3895,1.8040,9.6418
11,1,1,3,2,02.039,2039,-2.4000,9.8600,1.9700,10.3373,0.0240,0.0229,0.0709,12.69,77.88,69.94,-1.3958,9.4515,1.8259,9.7270
11,1,1,3,2,02.169,2169,-1.8900,9.7600,1.9000,10.1213,-0.0065,0.0502,-0.1494,12.38,77.81,69.94,-1.4610,9.4922,1.8357,9.7778
11,1,1,3,2,02.299,2299,-2.5600,9.5000,1.8000,10.0022,-0.0469,-0.0055,-0.3818,14.31,78.00,67.69,-1.6058,9.4932,1.8310,9.8006
11,1,1,3,2,02.429,2429,-3.2500,9.5900,1.9200,10.3062,-0.0295,-0.0415,-0.0360,16.06,78.25,66.06,-1.8224,9.5060,1.8427,9.8529
11,1,1,3,2,02.602,2602,-2.3000,9.4800,1.7500,9.9107,0.0251,-0.0218,0.0894,14.88,78.50,67.63,-1.8854,9.5025,1.8305,9.8592
11,1,1,3,2,02.732,2732,-2.6300,9.1500,1.8500,9.6986,0.0371,-0.0044,-0.0644,15.06,78.25,67.63,-1.9835,9.4561,1.8331,9.8342
11,1,1,3,2,02.862,2862,-3.0100,9.7800,2.0200,10.4302,-0.0011,0.0251,0.0415,15.31,78.13,67.31,-2.1188,9.4988,1.8577,9.9079
11,1,1,3,2,02.992,2992,-2.5100,8.5800,1.7800,9.1151,-0.0196,0.0622,-0.1145,15.25,78.13,67.06,-2.1703,9.3777,1.8475,9.8013
11,1,1,3,2,03.122,3122,-2.4200,9.1900,1.8900,9.6894,-0.0502,0.0622,0.1854,15.31,78.25,66.44,-2.2032,9.3530,1.8531,9.7860
11,1,1,3,2,03.252,3252,-2.2300,10.0300,2.0000,10.4678,-0.0524,0.0142,-0.0873,14.44,78.56,67.00,-2.2067,9.4422,1.8724,9.8758
11,1,1,3,2,03.383,3383,-2.3400,9.0400,1.7200,9.4950,-0.0316,-0.0218,-0.0491,15.19,78.81,66.19,-2.2243,9.3892,1.8523,9.8252
11,1,1,3,2,03.513,3513,-2.4100,9.1700,1.6200,9.6188,-0.0371,-0.0578,-0.0731,15.38,79.19,66.19,-2.2488,9.3603,1.8217,9.7975
11,1,1,3,2,03.686,3686,-2.8800,10.2300,1.8700,10.7909,0.0055,-0.0589,0.0175,15.88,79.50,66.19,-2.3320,9.4749,1.8281,9.9274
11,1,1,3,2,03.816,3816,-3.0300,9.6800,1.6100,10.2701,-0.0076,-0.0545,0.0164,16.06,79.63,66.50,-2.4239,9.5019,1.7993,9.9699
11,1,1,3,2,03.946,3946,-2.8200,10.0500,1.6300,10.5646,0.0055,-0.0349,0.0567,15.50,79.94,67.31,-2.4761,9.5742,1.7770,10.0476
11,2,1,3,2,04.076,4076,-3.2100,9.0600,1.5200,9.7313,0.0665,0.0055,0.0513,15.75,79.75,67.31,-2.5728,9.5064,1.7432,10.0015
11,2,1,3,2,04.206,4206,-2.4900,9.8600,1.9200,10.3492,0.0404,0.0447,0.2836,14.19,79.38,68.75,-2.5619,9.5530,1.7665,10.0471
11,2,1,3,2,04.336,4336,-2.2000,9.4300,1.8200,9.8528,0.0894,0.0513,0.0818,13.00,78.81,69.69,-2.5142,9.5368,1.7735,10.0208
11,2,1,3,2,04.466,4466,-2.0100,8.9500,1.9700,9.3821,0.0807,0.0644,0.2247,11.88,78.13,70.50,-2.4478,9.4595,1.7994,9.9353
11,2,1,3,2,04.597,4597,-1.7200,9.4100,2.2300,9.8224,0.0415,0.0742,0.1418,10.63,77.69,71.38,-2.3519,9.4529,1.8561,9.9164
11,2,1,3,2,04.770,4770,-1.3000,8.7400,2.1100,9.0846,0.0055,0.0360,0.1920,8.50,77.25,73.06,-2.2133,9.3590,1.8896,9.8010
11,2,1,3,2,04.900,4900,-1.5200,7.5500,2.0700,7.9748,-0.0185,0.0164,0.0447,8.00,77.31,73.38,-2.1219,9.1206,1.9134,9.5577
11,2,1,3,2,05.030,5030,-1.1200,8.6300,1.7700,8.8806,-0.0611,0.0164,0.5520,6.31,77.50,75.00,-1.9899,9.0560,1.8945,9.4636
11,2,1,3,2,05.160,5160,0.1900,9.6000,2.0200,9.8121,-0.0698,0.0120,0.4767,2.06,78.13,79.19,-1.7026,9.1277,1.9110,9.4797
11,2,1,3,2,05.290,5290,-0.0700,9.1200,1.9100,9.3181,-0.0524,0.0425,0.0960,0.13,78.50,81.00,-1.4875,9.1266,1.9109,9.4424
11,2,1,3,2,05.420,5420,0.8800,9.4900,1.7900,9.6973,-0.0927,0.0698,0.4232,-1.94,79.13,82.69,-1.1755,9.1745,1.8950,9.4416
11,2,1,3,2,05.550,5550,0.6100,9.6900,1.7700,9.8692,-0.1069,0.0109,-0.0153,-2.75,79.75,83.31,-0.9402,9.2425,1.8785,9.4782
11,2,1,3,2,05.681,5681,0.7000,9.8700,1.4100,9.9947,-0.0622,0.0120,-0.0513,-3.00,80.56,83.50,-0.7241,9.3251,1.8168,9.5280
11,2,1,3,2,05.854,5854,0.7400,9.8800,1.5200,10.0236,0.0458,-0.0109,0.0709,-3.31,80.63,83.75,-0.5312,9.3983,1.7777,9.5796
11,2,1,3,2,05.985,5985,0.8100,9.6300,1.5300,9.7844,0.0905,-0.0305,0.0251,-3.38,80.19,83.94,-0.3544,9.4288,1.7450,9.5955
11,2,1,3,2,06.115,6115,0.9500,8.1500,1.7400,8.3876,0.0491,-0.0327,-0.0469,-3.69,79.56,84.50,-0.1825,9.2603,1.7444,9.4249
11,2,1,3,2,06.245,6245,0.1500,9.6400,1.9400,9.8344,0.0480,-0.0458,-0.5225,-0.88,79.25,81.88,-0.1387,9.3103,1.7701,9.4781
11,2,1,3,2,06.375,6375,-0.0900,9.0300,1.9500,9.2386,0.1200,-0.0720,-0.1756,0.88,78.63,80.50,-0.1323,9.2734,1.7938,9.4462
11,2,1,3,2,06.505,6505,-0.9300,9.0700,2.1600,9.3699,0.1287,-0.0305,-0.3687,3.38,77.63,78.38,-0.2374,9.2466,1.8421,9.4313
11,2,1,3,2,06.635,6635,-1.2600,8.3400,2.0000,8.6685,0.0567,0.0142,-0.5312,6.88,76.75,74.94,-0.3722,9.1271,1.8629,9.3227
11,2,1,3,2,06.765,6765,-2.1800,9.1200,2.1500,9.6203,-0.0578,0.0316,-0.3371,9.88,76.75,71.69,-0.6104,9.1262,1.9007,9.3420
11,2,1,3,2,06.938,6938,-1.6500,9.6000,2.1800,9.9817,-0.0120,-0.0055,-0.0567,11.81,77.13,69.38,-0.7474,9.1886,1.9375,9.4204
11,2,1,3,2,07.068,7068,-1.8000,9.5800,2.0100,9.9527,0.0076,-0.1058,-0.1985,12.13,77.31,69.38,-0.8861,9.2402,1.9471,9.4846
11,2,1,3,2,07.198,7198,-2.4000,9.2900,2.2100,9.8462,0.0338,-0.1364,-0.2018,14.06,77.31,68.31,-1.0856,9.2468,1.9817,9.5188
11,2,1,3,2,07.328,7328,-3.0000,9.1100,2.4500,9.8992,0.0349,-0.1331,-0.1167,15.88,77.13,67.56,-1.3379,9.2287,2.0434,9.5465
11,2,1,3,2,07.458,7458,-3.4200,9.1000,2.4600,10.0279,-0.0251,-0.1004,-0.0916,17.25,76.81,67.13,-1.6122,9.2118,2.0983,9.5843
11,2,1,3,2,07.588,7588,-3.3600,9.8800,2.2000,10.6651,-0.0687,-0.0447,0.0240,17.38,77.25,67.38,-1.8425,9.2998,2.1117,9.7129
11,2,1,3,2,07.719,7719,-3.2200,9.6700,1.7600,10.3429,-0.0349,-0.0076,-0.1680,18.31,77.69,66.50,-2.0241,9.3486,2.0654,9.7857
11,2,1,3,2,07.849,7849,-3.4100,9.2500,1.7300,10.0092,-0.0076,-0.0284,0.0065,18.88,77.94,66.00,-2.2067,9.3356,2.0212,9.8035
11,2,1,3,2,08.022,8022,-3.0000,9.2400,1.7700,9.8747,-0.0480,0.0055,0.1287,18.00,78.31,67.06,-2.3112,9.3230,1.9881,9.8088
11,2,1,3,2,08.152,8152,-3.1300,9.0900,1.7400,9.7700,-0.0404,0.0404,-0.0633,18.13,78.63,66.69,-2.4191,9.2923,1.9554,9.7991
11,2,1,3,2,08.282,8282,-2.9800,9.4000,1.7200,10.0099,-0.0371,0.0327,0.0622,17.63,78.88,66.75,-2.4930,9.3065,1.9244,9.8249
11,2,1,3,2,08.412,8412,-2.9900,9.7200,1.8500,10.3364,-0.0153,0.0415,0.0753,17.38,79.06,66.69,-2.5585,9.3610,1.9146,9.8914
11,2,1,3,2,08.542,8542,-2.5900,9.6800,1.9900,10.2162,0.0000,0.0076,0.0480,16.56,79.00,67.31,-2.5627,9.4030,1.9245,9.9342
11,2,1,3,2,08.672,8672,-2.7900,9.3400,1.7500,9.9036,-0.0425,-0.0131,-0.1025,16.75,79.06,67.06,-2.5926,9.3947,1.9015,9.9297
11,2,1,3,2,08.802,8802,-2.9300,9.2900,1.5500,9.8636,-0.0578,-0.0513,-0.0622,17.25,79.56,66.69,-2.6371,9.3809,1.8552,9.9196
11,2,1,3,2,08.932,8932,-3.5600,9.6400,1.6000,10.4002,-0.0251,-0.0305,0.1985,17.38,79.94,66.88,-2.7587,9.4151,1.8216,9.9786
11,2,1,3,2,09.105,9105,-3.1300,10.1600,1.6600,10.7600,-0.0076,0.0316,0.2302,15.56,80.31,68.69,-2.8076,9.5132,1.8003,10.0809
11,3,1,3,2,09.235,9235,-2.0600,9.2700,1.5000,9.6139,0.0142,0.0687,0.2313,13.44,80.25,70.50,-2.7091,9.4812,1.7607,10.0166
11,3,1,3,2,09.365,9365,-2.4800,9.0700,1.5900,9.5364,-0.0305,0.0993,0.2389,12.13,80.25,71.19,-2.6789,9.4270,1.7382,9.9532
11,3,1,3,2,09.495,9495,-1.0900,8.9900,1.4900,9.1776,-0.0611,0.1538,0.4091,9.44,80.50,72.94,-2.4695,9.3694,1.7055,9.8384
11,3,1,3,2,09.625,9625,-1.3900,8.9600,1.4800,9.1872,-0.0829,0.1244,-0.0436,8.13,80.88,73.13,-2.3273,9.3155,1.6758,9.7469
11,3,1,3,2,09.756,9756,-1.0300,8.3200,1.4100,8.5013,-0.0633,0.0709,0.2814,6.94,81.25,73.56,-2.1563,9.1843,1.6408,9.5756
11,3,1,3,2,09.886,9886,-0.8500,9.0000,1.4500,9.1556,-0.0873,0.0382,0.2422,5.06,81.81,75.06,-1.9842,9.1600,1.6156,9.5107
11,3,1,3,2,10.016,10016,-0.1300,9.4000,0.7500,9.4308,-0.1014,-0.0065,0.4254,3.06,82.50,76.88,-1.7399,9.1916,1.5016,9.4746
11,3,1,3,2,10.189,10189,0.7400,9.5400,1.2200,9.6461,-0.0447,-0.0393,0.0720,-1.94,83.19,82.25,-1.4131,9.2375,1.4645,9.4590
11,3,1,3,2,10.319,10319,1.2200,9.9500,1.1300,10.0880,-0.0382,-0.0469,0.4385,-3.25,83.50,83.88,-1.0661,9.3314,1.4204,9.4989
11,3,1,3,2,10.449,10449,0.3000,10.2500,0.9500,10.2983,0.0011,-0.0971,-0.2465,-3.19,83.56,84.44,-0.8861,9.4525,1.3584,9.5906
11,3,1,3,2,10.579,10579,0.6500,9.7900,1.1200,9.8753,0.0687,-0.0589,0.1058,-3.50,83.25,85.25,-0.6837,9.4969,1.3270,9.6135
11,3,1,3,2,10.709,10709,0.6600,9.6700,1.2600,9.7741,0.0949,-0.0851,-0.0251,-3.25,82.63,85.50,-0.5066,9.5197,1.3182,9.6239
11,3,1,3,2,10.839,10839,0.3800,9.8400,1.1800,9.9178,0.0884,-0.0731,-0.0578,-3.00,81.94,85.81,-0.3898,9.5619,1.3000,9.6578
11,3,1,3,2,10.985,10985,0.2600,9.7300,1.4200,9.8365,0.0993,-0.0109,-0.0971,-2.38,81.25,85.50,-0.3042,9.5841,1.3158,9.6788
11,3,1,3,2,11.119,11119,0.4600,9.3500,1.5900,9.4954,0.0884,0.0284,-0.1014,-1.69,80.56,84.69,-0.2035,9.5532,1.3519,9.6506
11,3,1,3,2,11.292,11292,0.5200,9.1200,1.6500,9.2826,0.1080,-0.0305,-0.3098,-0.63,79.63,83.50,-0.1081,9.4962,1.3912,9.5981
11,3,1,3,2,11.422,11422,-0.5600,8.9700,1.9400,9.1945,0.1331,-0.0349,-0.3360,2.06,78.75,80.94,-0.1677,9.4268,1.4635,9.5412
11,3,1,3,2,11.552,11552,-0.8000,8.7600,2.1400,9.0530,0.0327,-0.0109,-0.3894,4.19,78.13,78.88,-0.2510,9.3390,1.5527,9.4705
11,3,1,3,2,11.683,11683,-1.3300,9.2300,2.0800,9.5545,0.0273,-0.0447,-0.3360,7.00,77.94,76.25,-0.3932,9.3246,1.6221,9.4728
11,3,1,3,2,11.813,11813,-2.1100,8.9200,2.0600,9.3948,0.0196,-0.0447,-0.1069,9.06,77.69,74.56,-0.6194,9.2713,1.6798,9.4426
11,3,1,3,2,11.943,11943,-1.4300,9.4600,1.7600,9.7280,-0.0764,-0.0425,0.0600,8.81,77.94,75.13,-0.7262,9.2961,1.6904,9.4765
11,3,1,3,2,12.074,12074,-1.9000,9.4800,1.8100,9.8365,-0.0524,-0.0535,-0.3142,10.06,78.56,74.19,-0.8809,9.3204,1.7062,9.5161
11,3,1,3,2,12.204,12204,-1.7800,9.5600,1.9000,9.9082,0.0349,-0.0153,-0.0829,11.25,78.63,73.13,-0.9994,9.3520,1.7317,9.5633
11,3,1,3,2,12.377,12377,-2.4500,9.3100,1.9500,9.8225,0.0065,-0.0491,-0.2105,13.25,78.25,71.50,-1.1905,9.3464,1.7605,9.5850
11,3,1,3,2,12.507,12507,-2.5800,9.5300,1.8900,10.0523,-0.0295,-0.0295,-0.1713,14.56,78.31,70.50,-1.3736,9.3706,1.7775,9.6361
11,3,1,3,2,12.637,12637,-3.0800,9.7700,1.9100,10.4205,-0.0273,-0.0469,-0.2531,16.19,78.56,69.00,-1.5985,9.4232,1.7950,9.7250
11,3,1,3,2,12.767,12767,-3.1800,9.9500,1.8400,10.6066,0.0011,-0.0295,0.1167,16.50,78.75,69.06,-1.8069,9.4927,1.8009,9.8295
11,3,1,3,2,12.897,12897,-3.0000,9.8000,1.9700,10.4365,-0.0044,0.0065,-0.0316,16.50,78.88,69.13,-1.9641,9.5332,1.8232,9.9027
11,4,1,3,2,13.027,13027,-2.9700,9.1200,1.6900,9.7392,0.0142,0.0164,0.0305,16.63,78.81,68.94,-2.0967,9.4787,1.8057,9.8743
11,4,1,3,2,13.158,13158,-2.7700,9.2400,1.8100,9.8146,-0.0153,0.0447,0.0633,16.19,78.81,69.19,-2.1854,9.4473,1.8062,9.8635
11,4,1,3,2,13.289,13289,-2.6400,9.0800,1.8500,9.6353,-0.0044,0.0415,0.0262,16.00,78.75,69.06,-2.2453,9.3989,1.8120,9.8317
11,4,1,3,2,13.461,13461,-2.5000,9.0400,1.7300,9.5375,-0.0611,0.0316,0.0087,15.38,78.94,69.31,-2.2789,9.3516,1.8012,9.7923
11,4,1,3,2,13.592,13592,-2.9000,10.5900,1.9200,11.1465,-0.0327,0.0065,0.0545,15.06,79.31,69.38,-2.3607,9.5148,1.8168,9.9702
11,4,1,3,2,13.722,13722,-2.5900,10.3500,1.8900,10.8353,-0.0076,-0.0218,0.0818,14.69,79.44,69.75,-2.3909,9.6248,1.8265,10.0841
11,4,1,3,2,13.852,13852,-2.2300,9.4100,1.5300,9.7909,-0.0098,-0.0469,0.0753,13.94,79.56,70.75,-2.3697,9.5965,1.7874,10.0451
11,4,1,3,2,13.982,13982,-3.1000,10.1600,1.8400,10.7806,-0.0142,-0.0229,0.0175,14.00,79.81,71.00,-2.4660,9.6708,1.7943,10.1402
11,4,1,3,2,14.112,14112,-2.1900,9.7600,1.8800,10.1778,0.0458,0.0044,0.3142,12.44,79.69,72.63,-2.4296,9.6825,1.8056,10.1447
11,4,1,3,2,14.242,14242,-1.9700,8.8900,1.6000,9.2452,-0.0109,0.0109,0.2651,10.63,79.63,74.50,-2.3690,9.5781,1.7785,10.0257
11,4,1,3,2,14.372,14372,-1.4900,8.8900,1.5900,9.1532,-0.0720,0.0513,0.3065,8.69,79.94,76.19,-2.2532,9.4874,1.7537,9.9077
11,4,1,3,2,14.545,14545,-0.7100,9.1200,1.5900,9.2848,-0.0753,0.0502,0.2869,5.50,80.69,78.75,-2.0498,9.4390,1.7321,9.8131
11,4,1,3,2,14.675,14675,-0.7300,8.1300,1.2900,8.2640,-0.0622,0.0458,0.2138,3.50,81.13,80.38,-1.8759,9.2665,1.6739,9.6015
11,4,1,3,2,14.805,14805,-0.1700,9.0900,1.2400,9.1758,-0.0600,0.0589,0.6774,0.81,81.56,82.75,-1.6511,9.2433,1.6167,9.5277
11,4,1,3,2,14.935,14935,1.5800,9.3900,1.2400,9.6024,-0.0425,0.0687,0.5236,-4.56,81.94,87.75,-1.2253,9.2626,1.5671,9.4738
11,4,1,3,2,15.065,15065,0.4800,9.4600,1.8100,9.6436,-0.0556,0.1004,-0.2389,-4.81,82.38,87.44,-1.0006,9.2886,1.5991,9.4782
11,4,1,3,2,15.196,15196,1.1600,10.2500,1.5200,10.4268,0.0513,0.1396,0.2847,-4.94,82.50,86.69,-0.7159,9.4153,1.5886,9.5752
11,4,1,3,2,15.326,15326,1.0600,9.6500,0.8100,9.7418,0.0676,0.0894,-0.2454,-5.50,82.13,86.38,-0.4819,9.4462,1.4860,9.5745
11,4,1,3,2,15.456,15456,0.3400,9.0100,0.8300,9.0545,0.0295,0.0873,-0.2116,-4.00,81.88,84.13,-0.3736,9.3887,1.3996,9.4998
11,4,1,3,2,15.629,15629,1.3400,9.4800,1.6600,9.7171,-0.0207,0.0011,0.1364,-4.00,82.13,83.63,-0.1478,9.4008,1.4339,9.5106
11,4,1,3,2,15.760,15760,-0.1300,10.4500,1.9500,10.6312,0.0349,-0.0622,-0.1254,-2.69,82.06,82.69,-0.1454,9.5390,1.5019,9.6576
11,4,1,3,2,15.890,15890,1.3400,9.3100,1.6700,9.5530,0.1025,-0.0273,0.2411,-4.81,81.44,85.00,0.0503,9.5088,1.5241,9.6303
11,4,1,3,2,16.021,16021,1.1600,9.0500,1.4200,9.2339,0.0251,-0.0185,-0.2334,-4.31,81.00,84.56,0.1965,9.4484,1.5104,9.5704
11,4,1,3,2,16.151,16151,0.3400,7.7800,1.3200,7.8985,-0.0535,-0.0316,-0.4058,-2.56,81.13,83.00,0.2154,9.2285,1.4853,9.3498
11,4,1,3,2,16.281,16281,0.2000,10.1000,1.4600,10.2069,-0.0894,-0.0753,0.0327,-0.25,81.69,81.06,0.2134,9.3434,1.4819,9.4626
11,4,1,3,2,16.411,16411,0.9800,8.6600,1.3600,8.8207,-0.0185,-0.0916,-0.4222,-0.25,82.13,81.63,0.3144,9.2533,1.4659,9.3740
11,4,1,3,2,16.541,16541,-0.8000,8.8200,1.1900,8.9358,0.0338,-0.0949,-0.7439,5.13,82.00,76.88,0.1676,9.1962,1.4295,9.3082
11,4,1,3,2,16.714,16714,-2.3800,9.3800,1.3000,9.7642,0.0338,-0.1102,-0.4723,10.69,81.63,72.38,-0.1681,9.2204,1.4125,9.3295
11,4,1,3,2,16.844,16844,-2.9300,9.0100,1.3000,9.5632,-0.0338,-0.0622,-0.2105,13.06,81.75,70.56,-0.5321,9.1927,1.3976,9.3136
11,4,1,3,2,16.977,16977,-2.9400,10.2900,1.4600,10.8009,-0.0098,0.0033,0.1014,13.50,82.00,70.31,-0.8494,9.3373,1.4059,9.4807
11,4,1,3,2,17.107,17107,-2.3600,10.2100,1.4300,10.5763,0.1069,0.0502,0.3207,11.81,81.63,71.88,-1.0484,9.4523,1.4090,9.6141
11,4,1,3,2,17.239,17239,-1.5500,9.8500,1.7200,10.1185,0.0862,0.0698,0.0404,10.06,80.81,73.31,-1.1145,9.5047,1.4500,9.6791
11,4,1,3,2,17.370,17370,-2.0300,9.6200,1.5600,9.9548,0.0436,0.0545,-0.1571,11.00,80.19,71.94,-1.2352,9.5199,1.4645,9.7108
11,4,1,3,2,17.503,17503,-3.1200,10.7300,1.9300,11.3398,-0.0251,0.0720,-0.1582,12.19,80.06,70.31,-1.4835,9.6794,1.5258,9.9106
11,4,1,3,2,17.634,17634,-1.4300,9.7500,1.8800,10.0320,0.0491,0.0556,0.2716,11.06,79.94,70.88,-1.4765,9.6887,1.5725,9.9259
11,4,1,3,2,17.807,17807,-2.1500,8.5800,1.7000,9.0072,-0.0185,-0.0109,-0.0633,12.00,79.69,69.88,-1.5652,9.5426,1.5893,9.7998
11,4,1,3,2,17.937,17937,-1.7000,9.9500,1.6800,10.2330,-0.0840,-0.0360,0.0862,10.75,80.19,71.25,-1.5830,9.5963,1.6013,9.8569
11,4,1,3,2,18.067,18067,-1.9600,10.2300,1.6400,10.5444,-0.0545,-0.0218,0.0404,11.06,80.75,71.06,-1.6327,9.6798,1.6064,9.9471
11,4,1,3,2,18.197,18197,-1.4200,9.9400,1.4400,10.1436,-0.0447,-0.0262,-0.1309,10.75,81.19,71.44,-1.6047,9.7141,1.5844,9.9724
11,4,1,3,2,18.327,18327,-2.7900,10.3400,1.5000,10.8143,-0.0175,-0.0535,-0.1647,12.75,81.44,69.69,-1.7608,9.7965,1.5733,10.0771
11,4,1,3,2,18.458,18458,-2.7900,10.0700,1.6900,10.5851,0.0305,-0.0164,-0.0120,12.88,81.38,69.88,-1.8965,9.8326,1.5887,10.1390
11,4,1,3,2,18.588,18588,-2.3000,9.4600,1.4600,9.8445,-0.0240,0.0044,0.0960,13.25,81.13,69.56,-1.9496,9.7835,1.5717,10.0989
11,4,1,3,2,18.718,18718,-2.4500,10.3200,1.4700,10.7082,-0.0164,-0.0698,0.1669,12.25,81.56,70.81,-2.0156,9.8542,1.5583,10.1782
11,5,1,3,2,18.891,18891,-1.2200,9.2500,1.0100,9.3846,-0.0589,0.0371,0.3458,9.38,81.88,73.69,-1.9107,9.7746,1.4861,10.0698
11,5,1,3,2,19.022,19022,-1.7800,9.2200,1.2500,9.4731,-0.0033,0.0229,0.1331,8.25,82.13,74.63,-1.8935,9.7015,1.4550,9.9911
11,5,1,3,2,19.152,19152,-1.3500,8.7500,1.3100,8.9499,-0.0131,0.0687,0.4080,6.31,82.19,76.25,-1.8219,9.5761,1.4359,9.8531
11,5,1,3,2,19.283,19283,-0.4100,8.5500,1.4400,8.6801,-0.0011,0.0676,0.4909,3.06,82.13,79.06,-1.6358,9.4409,1.4364,9.6886
11,5,1,3,2,19.414,19414,0.3900,8.7100,1.3100,8.8166,-0.0415,0.0207,0.4222,-0.44,82.25,82.31,-1.3689,9.3446,1.4197,9.5504
11,5,1,3,2,19.544,19544,0.7900,9.0100,1.3900,9.1508,0.0000,0.0022,0.4254,-3.25,82.38,85.13,-1.0844,9.3005,1.4158,9.4699
11,5,1,3,2,19.675,19675,1.8800,9.6700,0.7500,9.8796,-0.0044,0.0022,0.5869,-7.25,82.25,89.19,-0.6938,9.3492,1.3281,9.4685
11,5,1,3,2,19.805,19805,2.1500,9.7900,1.6600,10.1598,0.0273,-0.0131,-0.1462,-8.88,82.19,90.81,-0.3190,9.4073,1.3718,9.5121
11,5,1,3,2,19.978,19978,0.9000,9.6600,1.3400,9.7939,0.0545,0.0251,0.2629,-6.25,81.75,88.13,-0.1584,9.4406,1.3676,9.5404
11,5,1,3,2,20.111,20111,2.1500,9.5900,1.3800,9.9245,0.0556,-0.0371,-0.0393,-8.56,81.31,90.38,0.1458,9.4603,1.3693,9.5600
11,5,1,3,2,20.244,20244,0.8500,9.5600,1.5800,9.7269,0.0578,-0.0316,-0.0218,-6.81,80.81,88.94,0.2386,9.4734,1.3970,9.5788
11,5,1,3,2,20.374,20374,1.6700,9.2300,1.7200,9.5363,0.0251,-0.0545,0.0654,-7.69,80.44,90.06,0.4272,9.4413,1.4396,9.5600
11,5,1,3,2,20.505,20505,1.4500,9.2300,1.6200,9.4826,-0.0436,-0.0742,-0.0862,-7.13,80.31,90.00,0.5620,9.4135,1.4634,9.5431
11,5,1,3,2,20.636,20636,1.6100,9.5800,1.5900,9.8436,-0.0502,-0.0709,-0.2934,-6.63,80.75,89.94,0.7001,9.4354,1.4801,9.5764
11,5,1,3,2,20.766,20766,0.6500,8.6400,1.5500,8.8020,-0.0120,-0.0600,-0.6000,-3.00,80.88,86.81,0.6935,9.3306,1.4893,9.4741
11,5,1,3,2,20.896,20896,-1.0700,8.3600,1.1700,8.5090,-0.0491,-0.0796,-0.7156,2.25,81.06,82.00,0.4611,9.2027,1.4472,9.3272
11,5,1,3,2,21.069,21069,-0.1700,9.0200,1.3600,9.1235,0.0185,-0.0873,-0.1865,4.44,81.44,80.50,0.3779,9.1786,1.4357,9.2979
11,5,1,3,2,21.199,21199,-2.1700,8.8500,1.2300,9.1948,0.0033,-0.0807,-0.5705,7.69,81.31,77.88,0.0422,9.1353,1.4086,9.2434
11,5,1,3,2,21.329,21329,-2.5600,9.1300,1.2900,9.5695,-0.0578,0.0076,-0.1189,10.69,81.63,75.19,-0.3007,9.1346,1.3930,9.2451
11,5,1,3,2,21.459,21459,-2.2700,9.4300,1.3200,9.7888,-0.0589,0.0524,0.0229,11.56,82.00,74.00,-0.5602,9.1735,1.3834,9.2942
11,5,1,3,2,21.589,21589,-1.3600,10.1700,1.2400,10.3352,-0.0687,0.0458,0.1833,10.25,82.44,74.81,-0.6656,9.3049,1.3645,9.4279
11,5,1,3,2,21.720,21720,-1.7800,10.3600,1.2900,10.5907,-0.0654,0.0295,-0.0349,9.88,82.88,74.94,-0.8125,9.4439,1.3547,9.5751
11,5,1,3,2,21.850,21850,-1.4800,9.8900,1.2400,10.0767,-0.0513,-0.0098,0.0774,9.56,83.25,75.06,-0.9004,9.5027,1.3395,9.6388
11,5,1,3,2,21.980,21980,-1.6000,10.4200,1.0900,10.5983,-0.0578,-0.0316,-0.1571,9.69,83.69,75.00,-0.9926,9.6236,1.3067,9.7625
11,5,1,3,2,22.153,22153,-2.2700,10.0000,1.0000,10.3031,0.0164,-0.0502,-0.1244,11.31,84.00,73.81,-1.1609,9.6732,1.2663,9.8245
11,5,1,3,2,22.284,22284,-2.5000,10.0000,1.0100,10.3571,0.0175,-0.0175,0.0884,12.25,83.94,73.19,-1.3374,9.7162,1.2325,9.8850
11,6,1,3,2,22.414,22414,-1.8400,9.6300,0.9800,9.8531,0.0164,0.0251,-0.1287,11.63,83.88,73.75,-1.4036,9.7049,1.1992,9.8789
11,6,1,3,2,22.544,22544,-2.2300,8.6400,0.9500,8.9736,0.0000,0.0436,-0.1298,12.94,83.75,72.19,-1.5125,9.5645,1.1664,9.7534
11,6,1,3,2,22.674,22674,-2.5200,9.8400,0.8000,10.1890,0.0164,0.0513,0.1353,13.56,83.69,71.25,-1.6453,9.6008,1.1181,9.8048
11,6,1,3,2,22.804,22804,-1.9200,10.5500,1.0300,10.7726,0.0764,0.0251,0.0207,12.19,83.31,72.38,-1.6815,9.7259,1.1065,9.9320
11,6,1,3,2,22.934,22934,-2.3200,10.1200,1.3400,10.4686,0.1211,0.0207,-0.2934,13.00,82.50,71.50,-1.7656,9.7778,1.1373,10.0009
11,6,1,3,2,23.064,23064,-2.3500,9.8700,1.4700,10.2518,0.1134,-0.0251,0.0807,13.38,81.69,71.38,-1.8426,9.7900,1.1811,10.0317
11,6,1,3,2,23.237,23237,-2.8000,9.6400,1.6300,10.1699,0.0927,-0.0087,-0.0829,14.00,80.75,71.19,-1.9688,9.7702,1.2403,10.0435
11,6,1,3,2,23.367,23367,-2.6300,9.4900,1.6300,9.9817,0.0524,-0.0240,0.1189,14.25,80.19,71.19,-2.0559,9.7333,1.2916,10.0316
11,6,1,3,2,23.497,23497,-2.3200,9.7200,1.8700,10.1665,0.0349,-0.0709,0.2574,12.63,80.13,73.25,-2.0907,9.7315,1.3678,10.0471
11,6,1,3,2,23.627,23627,-1.7600,9.7800,1.4500,10.0423,0.0109,-0.0349,0.2203,11.06,80.00,75.25,-2.0471,9.7379,1.3787,10.0458
11,6,1,3,2,23.757,23757,-1.7800,9.4900,1.6600,9.7971,0.0131,-0.0524,0.2858,9.31,80.13,77.44,-2.0119,9.7053,1.4157,10.0122
11,6,1,3,2,23.887,23887,-1.4700,9.2700,1.4900,9.5034,0.0044,0.0327,0.3687,7.31,80.25,79.56,-1.9405,9.6479,1.4255,9.9438
11,6,1,3,2,24.017,24017,-0.8600,8.8800,1.7100,9.0839,0.0229,0.0774,0.3174,4.75,80.19,81.69,-1.7981,9.5467,1.4630,9.8241
11,6,1,3,2,24.148,24148,-0.2500,6.8600,1.2200,6.9721,-0.0055,0.0873,0.1713,3.06,80.00,82.75,-1.5941,9.1927,1.4310,9.4390
11,6,1,3,2,24.321,24321,1.3000,9.4700,1.8500,9.7362,0.0185,0.0665,0.2694,-0.88,80.19,85.94,-1.2128,9.2292,1.4862,9.4265
11,6,1,3,2,24.453,24453,0.1100,9.9900,1.7900,10.1497,0.0393,0.0371,0.0175,-0.50,79.88,85.25,-1.0385,9.3295,1.5262,9.5104
11,6,1,3,2,24.584,24584,0.2600,9.0800,1.9200,9.2844,-0.0033,0.0251,0.0316,-1.19,79.69,85.69,-0.8673,9.2966,1.5781,9.4694
11,6,1,3,2,24.716,24716,0.7300,9.5400,1.5400,9.6910,-0.0894,0.0076,0.0404,-2.13,80.06,86.56,-0.6569,9.3287,1.5731,9.4832
11,6,1,3,2,24.847,24847,0.2500,10.1000,1.5500,10.2213,-0.0524,-0.0109,-0.0425,-1.81,80.63,86.25,-0.5374,9.4303,1.5701,9.5752
11,6,1,3,2,24.980,24980,0.4500,9.7500,1.6700,9.9022,0.0229,-0.0098,0.1134,-2.00,80.69,86.44,-0.4072,9.4724,1.5832,9.6125
11,6,1,3,2,25.111,25111,1.0000,9.4900,1.5500,9.6676,0.0098,-0.0491,-0.0076,-3.00,80.50,87.63,-0.2218,9.4748,1.5788,9.6080
11,6,1,3,2,25.242,25242,0.3200,9.5400,1.6500,9.6869,-0.0229,-0.0556,0.0753,-3.00,80.50,88.06,-0.1504,9.4834,1.5882,9.6166
11,6,1,3,2,25.415,25415,0.7900,9.4600,1.4400,9.6015,-0.0327,-0.0295,-0.1374,-3.06,80.69,88.50,-0.0265,9.4803,1.5687,9.6092
11,6,1,3,2,25.545,25545,0.6400,9.4400,1.6100,9.5977,-0.0305,-0.0098,-0.2334,-1.94,80.94,87.50,0.0613,9.4750,1.5741,9.6050
11,6,1,3,2,25.676,25676,0.0500,8.9100,1.2300,8.9946,-0.0316,-0.0360,-0.4723,0.50,81.13,85.06,0.0598,9.4005,1.5288,9.5242
11,6,1,3,2,25.809,25809,-0.7700,9.4600,1.7800,9.6568,-0.0033,-0.0295,-0.5890,4.31,81.31,81.44,-0.0495,9.4084,1.5619,9.5372
11,6,1,3,2,25.940,25940,-1.6600,8.8700,1.3900,9.1304,0.0131,-0.0393,-0.6610,8.94,81.13,76.94,-0.2617,9.3374,1.5392,9.4671
11,6,1,3,2,26.074,26074,-3.0200,9.5200,1.0700,10.0447,-0.0120,-0.0458,-0.2825,12.38,81.13,73.88,-0.6252,9.3615,1.4774,9.4979
11,6,1,3,2,26.205,26205,-2.7000,9.0800,1.5200,9.5941,-0.0022,-0.0175,-0.2182,14.50,81.38,71.88,-0.8986,9.3244,1.4830,9.4842
11,6,1,3,2,26.336,26336,-2.3400,9.2200,1.3500,9.6076,0.0349,0.0055,0.2083,14.63,81.25,71.81,-1.0885,9.3106,1.4655,9.4879
11,6,1,3,2,26.509,26509,-2.2100,9.1800,1.4300,9.5499,0.0480,-0.0022,-0.0240,13.75,80.81,72.81,-1.2363,9.2934,1.4608,9.4884
11,6,1,3,2,26.640,26640,-2.3800,9.2300,1.4300,9.6386,-0.0033,0.0185,-0.0731,14.00,80.63,72.50,-1.3870,9.2851,1.4568,9.5004
11,6,1,3,2,26.770,26770,-2.6500,9.0800,1.5900,9.5915,-0.0229,0.0338,-0.1560,15.00,80.56,71.31,-1.5535,9.2580,1.4743,9.5025
11,6,1,3,2,26.901,26901,-2.3500,8.4500,1.5900,8.9136,-0.1473,0.0273,-0.0622,15.63,80.81,70.31,-1.6584,9.1516,1.4896,9.4191
11,6,1,3,2,27.031,27031,-2.9100,9.5900,1.2800,10.1032,-0.2378,0.0196,-0.1440,16.81,82.38,68.56,-1.8233,9.2093,1.4619,9.5012
11,6,1,3,2,27.162,27162,-3.0600,9.2100,0.9100,9.7476,-0.2705,-0.0131,-0.1625,17.63,84.06,67.25,-1.9863,9.2094,1.3892,9.5231
11,6,1,3,2,27.293,27293,-3.5400,9.3600,0.3000,10.0116,-0.3458,-0.0164,0.0905,18.06,86.31,66.31,-2.1910,9.2293,1.2457,9.5672
11,6,1,3,2,27.428,27428,-2.8600,9.6600,0.3100,10.0793,-0.4167,0.0720,0.3785,16.13,89.13,67.25,-2.2792,9.2860,1.1224,9.6273
11,6,1,3,2,27.601,27601,-2.4900,9.9900,-0.6500,10.3161,-0.4036,0.0513,-0.3011,16.00,93.06,65.69,-2.3070,9.3788,0.8888,9.6992
11,6,1,3,2,27.731,27731,-3.2900,9.9100,-0.9100,10.4814,-0.2585,0.0284,-0.0371,17.69,95.44,62.94,-2.4365,9.4488,0.6518,9.7796
11,6,1,3,2,27.861,27861,-2.2800,9.6000,-1.4000,9.9659,-0.1974,0.0196,0.3087,15.81,96.88,64.19,-2.4159,9.4687,0.3814,9.7795
11,6,1,3,2,27.991,27991,-2.4300,9.5200,-1.3000,9.9109,-0.0938,-0.0218,-0.3436,16.06,98.06,63.63,-2.4177,9.4755,0.1598,9.7804
11,6,1,3,2,28.122,28122,-3.1000,9.1000,-1.4800,9.7268,-0.0513,-0.0218,0.1374,17.19,98.69,62.56,-2.5077,9.4260,-0.0562,9.7540
11,6,1,3,2,28.252,28252,-2.6600,9.9900,-1.8800,10.5076,-0.0491,0.0055,-0.1473,16.75,99.13,62.88,-2.5277,9.5003,-0.2966,9.8353
11,6,1,3,2,28.383,28383,-3.4300,9.7300,-1.7000,10.4560,0.0458,0.0262,-0.0567,18.13,99.06,61.38,-2.6466,9.5306,-0.4815,9.9030
11,6,1,3,2,28.513,28513,-2.7500,9.4600,-1.4400,9.9563,0.0600,0.0415,0.0196,17.56,98.63,61.88,-2.6602,9.5213,-0.6078,9.9046
11,6,1,3,2,28.686,28686,-2.9700,9.6600,-1.3500,10.1960,0.0142,0.0196,0.1091,17.50,98.06,61.88,-2.7011,9.5396,-0.7056,9.9397
11,6,1,3,2,28.816,28816,-2.5900,10.1400,-1.1900,10.5330,0.0044,-0.0316,0.0556,16.94,98.00,62.50,-2.6864,9.6187,-0.7694,10.0164
11,6,1,3,2,28.946,28946,-2.8800,9.3900,-1.3900,9.9196,-0.0327,-0.0698,-0.1985,16.94,98.13,62.88,-2.7119,9.5885,-0.8512,10.0010
11,6,1,3,2,29.076,29076,-4.1600,10.1800,-1.3400,11.0785,-0.0240,-0.0458,-0.2825,18.94,98.63,61.19,-2.9028,9.6665,-0.9156,10.1344
11,6,1,3,2,29.206,29206,-4.1100,8.9400,-1.7600,9.9957,-0.0120,0.0949,0.2323,19.81,98.50,60.19,-3.0618,9.5708,-1.0269,10.1009
11,6,1,3,2,29.336,29336,-2.5000,10.0300,-1.5500,10.4524,-0.0535,0.1320,0.0196,18.13,98.50,60.88,-2.9878,9.6313,-1.0958,10.1434
11,7,1,3,2,29.466,29466,-3.2700,9.3700,-1.2200,9.9989,0.0916,0.0480,-0.1560,19.63,98.19,58.88,-3.0250,9.5968,-1.1122,10.1236
11,7,1,3,2,29.597,29597,-3.3000,8.8200,-1.4500,9.5281,0.0567,0.0142,0.0338,19.50,97.56,59.00,-3.0612,9.4945,-1.1567,10.0426
11,7,1,3,2,29.770,29770,-3.7000,8.9800,-1.2700,9.7951,0.0807,-0.0251,0.2738,19.63,97.00,59.13,-3.1454,9.4267,-1.1716,10.0064
11,7,1,3,2,29.901,29901,-2.7900,10.0400,-0.7300,10.4460,0.0971,-0.0774,0.4974,16.25,96.38,63.06,-3.0986,9.5075,-1.1134,10.0615
11,7,1,3,2,30.031,30031,-2.2400,7.7400,-1.0500,8.1257,0.1342,-0.1069,0.3556,13.31,95.50,66.94,-2.9854,9.2746,-1.1051,9.8057
11,7,1,3,2,30.162,30162,-1.5800,8.6200,-0.8200,8.8019,0.0938,-0.0742,0.5585,10.13,94.94,71.00,-2.8002,9.1883,-1.0675,9.6647
11,7,1,3,2,30.292,30292,-0.3200,9.4100,-0.6900,9.4407,0.1167,-0.0949,0.6785,5.31,94.06,76.56,-2.4734,9.2175,-1.0178,9.5977
11,7,1,3,2,30.423,30423,0.1000,9.5800,-0.6900,9.6053,0.0916,-0.1593,0.2716,1.94,93.38,80.88,-2.1343,9.2653,-0.9746,9.5578
11,7,1,3,2,30.553,30553,0.0200,9.6400,-0.4600,9.6510,0.0513,-0.1625,0.2803,-0.19,92.94,84.38,-1.8504,9.3147,-0.9068,9.5399
11,7,1,3,2,30.683,30683,-0.2000,9.2400,-0.0400,9.2423,-0.0142,-0.0513,-0.0273,-1.06,92.63,86.00,-1.6329,9.3048,-0.7925,9.4802
11,7,1,3,2,30.856,30856,0.1500,9.2700,-0.4000,9.2798,-0.1244,0.0862,0.0644,-0.50,92.88,85.19,-1.3980,9.3002,-0.7408,9.4339
11,7,1,3,2,30.991,30991,-0.0800,10.1100,-0.5900,10.1275,-0.1942,0.1102,-0.1560,0.00,94.13,83.94,-1.2243,9.4070,-0.7209,9.5136
11,7,1,3,2,31.121,31121,0.1300,10.1900,-0.8900,10.2296,-0.0785,0.1298,0.2411,-0.06,95.13,83.13,-1.0458,9.5101,-0.7432,9.5963
11,7,1,3,2,31.253,31253,0.9300,9.7300,-1.1400,9.8406,-0.0098,0.0829,-0.0949,-1.44,95.38,83.63,-0.7855,9.5391,-0.7955,9.6044
11,7,1,3,2,31.383,31383,0.0500,9.9100,-1.1100,9.9721,-0.0044,0.0349,-0.1342,-0.25,95.56,82.06,-0.6754,9.5880,-0.8370,9.6481
11,7,1,3,2,31.513,31513,0.3900,9.4500,-0.8600,9.4971,-0.0076,0.0076,-0.0971,-0.13,95.56,81.88,-0.5350,9.5698,-0.8400,9.6215
11,7,1,3,2,31.644,31644,-0.7300,9.0000,-1.0600,9.0916,-0.0131,-0.0338,-0.5269,2.13,95.69,79.63,-0.5607,9.4947,-0.8690,9.5509
11,7,1,3,2,31.774,31774,-1.3000,9.0300,-0.9400,9.1714,0.0098,-0.0120,-0.0207,5.19,95.75,76.69,-0.6581,9.4335,-0.8783,9.4971
11,7,1,3,2,31.947,31947,-0.5900,9.7900,-0.8900,9.8481,0.0087,0.0065,-0.0654,4.94,95.75,76.94,-0.6491,9.4805,-0.8799,9.5433
11,7,1,3,2,32.078,32078,-0.9900,10.3500,-1.0300,10.4481,0.0469,0.0273,-0.4003,6.69,95.50,75.19,-0.6941,9.5950,-0.8997,9.6621
11,7,1,3,2,32.209,32209,-1.4500,9.8300,-0.8000,9.9685,0.1178,0.0360,-0.3611,9.56,94.88,72.13,-0.7937,9.6260,-0.8865,9.6993
11,7,1,3,2,32.339,32339,-2.1300,9.2400,-0.7000,9.5081,0.0654,0.0578,-0.4669,12.63,94.19,68.88,-0.9698,9.5751,-0.8619,9.6626
11,7,1,3,2,32.469,32469,-2.7800,8.8900,-0.5900,9.3332,0.0360,0.0720,-0.3992,15.81,93.81,65.31,-1.2083,9.4849,-0.8261,9.5971
11,7,1,3,2,32.599,32599,-2.6400,8.8000,-0.5800,9.2058,0.0131,0.0207,-0.1745,17.88,93.56,62.88,-1.3970,9.3946,-0.7937,9.5310
11,7,1,3,2,32.729,32729,-3.1100,9.2700,-0.5600,9.7938,0.0065,-0.0578,-0.0654,18.63,93.63,62.38,-1.6227,9.3782,-0.7629,9.5481
11,7,1,3,2,32.859,32859,-3.1500,9.3700,-0.8100,9.9184,-0.0360,-0.0742,0.0676,18.44,93.88,63.00,-1.8240,9.3771,-0.7691,9.5838
11,7,1,3,2,33.032,33032,-3.4800,9.8800,-0.6500,10.4951,-0.0491,-0.0665,-0.1767,19.31,94.81,62.50,-2.0422,9.4434,-0.7534,9.6910
11,7,1,3,2,33.162,33162,-3.1400,9.5700,-0.8500,10.1078,0.0513,-0.1058,0.1287,19.00,94.94,63.44,-2.1868,9.4601,-0.7661,9.7397
11,7,1,3,2,33.292,33292,-3.6700,9.4700,-0.9800,10.2034,0.0273,-0.0971,-0.0055,18.56,94.94,64.69,-2.3823,9.4614,-0.7943,9.7890
11,7,1,3,2,33.422,33422,-4.0000,9.5000,-1.0700,10.3632,-0.0011,0.0218,0.0927,18.69,94.94,64.88,-2.5955,9.4665,-0.8306,9.8509
11,7,1,3,2,33.552,33552,-3.0400,9.1900,-0.9600,9.7272,-0.0840,0.1091,0.0000,18.63,95.06,64.25,-2.6540,9.4300,-0.8477,9.8330
11,7,1,3,2,33.682,33682,-3.1300,9.4100,-0.8900,9.9568,-0.0851,0.1418,-0.1145,19.06,95.38,62.75,-2.7168,9.4274,-0.8533,9.8481
11,7,1,3,2,33.812,33812,-3.0800,9.7600,-0.9700,10.2803,-0.0524,0.0993,0.0196,19.31,95.50,61.50,-2.7646,9.4712,-0.8686,9.9046
11,7,1,3,2,33.942,33942,-3.1700,10.0000,-1.0500,10.5428,-0.0436,0.0436,-0.1254,19.56,95.75,60.63,-2.8180,9.5409,-0.8925,9.9883
11,7,1,3,2,34.115,34115,-3.9600,9.3800,-0.9300,10.2240,-0.0065,0.0327,-0.1876,21.19,95.94,58.63,-2.9685,9.5197,-0.8975,10.0121
11,7,1,3,2,34.245,34245,-3.5300,9.1900,-1.0300,9.8984,0.0164,0.0229,0.0513,21.56,95.81,58.06,-3.0425,9.4763,-0.9149,9.9947
11,7,1,3,2,34.375,34375,-3.8200,9.9600,-1.1800,10.7325,0.0175,-0.0469,0.0033,21.31,95.88,58.44,-3.1450,9.5400,-0.9499,10.0898
11,7,1,3,2,34.505,34505,-3.8700,9.4000,-0.9100,10.2061,0.0949,0.0109,0.1538,21.00,95.50,59.06,-3.2405,9.5215,-0.9446,10.1021
11,8,1,3,2,34.635,34635,-3.4500,8.7600,-0.7100,9.4416,0.1014,0.0022,0.0753,20.19,94.69,60.06,-3.2681,9.4212,-0.9137,10.0137
11,8,1,3,2,34.765,34765,-3.2300,8.7100,-0.4700,9.3015,0.0589,-0.0327,0.4571,18.50,94.06,62.06,-3.2631,9.3275,-0.8552,9.9187
11,8,1,3,2,34.896,34896,-3.1500,9.3900,-0.4900,9.9164,0.0687,-0.0436,0.4789,15.56,93.63,65.38,-3.2482,9.3357,-0.8071,9.9175
11,8,1,3,2,35.026,35026,-0.9700,7.1700,-0.1500,7.2369,0.0425,-0.0807,0.6850,10.56,93.13,70.94,-2.9480,9.0503,-0.7205,9.5456
11,8,1,3,2,35.199,35199,-1.6300,9.8400,-0.6500,9.9952,-0.0349,-0.0065,0.1462,8.25,93.56,73.81,-2.7743,9.1544,-0.7112,9.5919
11,8,1,3,2,35.330,35330,-0.5500,9.1600,-0.9000,9.2205,0.0316,0.0098,0.3523,5.56,93.44,76.38,-2.4812,9.1551,-0.7361,9.5139
11,8,1,3,2,35.460,35460,-0.1000,9.9500,-0.5600,9.9662,-0.0207,-0.0011,0.4680,3.06,93.50,78.88,-2.1674,9.2599,-0.7129,9.5368
11,8,1,3,2,35.591,35591,-0.3000,9.9300,-0.6100,9.9532,0.0000,0.0153,-0.2258,2.06,93.56,79.88,-1.9213,9.3482,-0.6993,9.5692
11,8,1,3,2,35.722,35722,0.0100,9.8500,-0.5600,9.8659,0.0185,0.0273,0.1080,2.75,93.50,78.94,-1.6668,9.4143,-0.6810,9.5849
11,8,1,3,2,35.852,35852,-0.3200,9.7000,-0.6300,9.7257,0.0207,-0.0284,-0.1996,2.63,93.31,79.13,-1.4894,9.4520,-0.6743,9.5923
11,8,1,3,2,35.983,35983,-0.3600,9.7700,-0.4700,9.7879,0.0055,-0.0284,0.1811,3.00,93.31,79.00,-1.3405,9.4939,-0.6473,9.6099
11,8,1,3,2,36.113,36113,-0.0900,9.6500,-0.4900,9.6629,0.0120,-0.0415,0.0207,1.88,93.25,80.38,-1.1757,9.5144,-0.6266,9.6073
11,8,1,3,2,36.286,36286,-0.0900,9.4500,-0.5400,9.4658,-0.0360,-0.0295,0.0022,1.69,93.31,80.81,-1.0327,9.5059,-0.6152,9.5816
11,8,1,3,2,36.420,36420,-0.1400,9.1600,-0.5100,9.1753,-0.0851,-0.0218,-0.1265,1.88,93.75,80.81,-0.9150,9.4604,-0.6013,9.5235
11,8,1,3,2,36.551,36551,-1.0900,8.7600,-0.6600,8.8522,-0.1473,0.0371,-0.3927,4.06,94.63,78.50,-0.9381,9.3681,-0.6091,9.4346
11,8,1,3,2,36.681,36681,-0.7900,9.3700,-0.7100,9.4300,-0.0884,0.0382,-0.2607,6.31,95.50,75.94,-0.9186,9.3683,-0.6224,9.4338
11,8,1,3,2,36.812,36812,-1.7900,9.5600,-1.1300,9.7916,0.0120,0.0447,-0.3851,9.25,95.56,72.69,-1.0334,9.3936,-0.6893,9.4754
11,8,1,3,2,36.942,36942,-1.5900,9.4100,-0.7800,9.5752,0.0065,0.0644,-0.4036,11.13,95.50,70.44,-1.1068,9.3957,-0.7012,9.4867
11,8,1,3,2,37.073,37073,-3.2100,8.7800,-0.8600,9.3879,0.0033,0.0829,-0.7309,16.88,95.44,64.13,-1.3839,9.3146,-0.7221,9.4445
11,8,1,3,2,37.204,37204,-3.2300,9.2100,-0.7300,9.7872,0.0284,0.0709,-0.0873,19.19,95.25,61.19,-1.6272,9.3008,-0.7232,9.4697
11,8,1,3,2,37.377,37377,-3.9600,8.9800,-0.8900,9.8546,0.0513,0.0109,-0.0044,20.56,94.75,59.81,-1.9346,9.2585,-0.7452,9.4878
11,8,1,3,2,37.507,37507,-3.2600,9.2700,-0.7300,9.8536,-0.0349,0.0458,-0.0229,20.19,94.56,59.94,-2.1092,9.2601,-0.7432,9.5263
11,8,1,3,2,37.638,37638,-3.7900,9.6100,-0.9300,10.3721,-0.0458,0.0076,-0.1244,21.19,94.88,58.69,-2.3307,9.3062,-0.7678,9.6243
11,8,1,3,2,37.768,37768,-3.5000,9.6100,-1.0000,10.2763,0.0033,0.0185,0.1593,20.50,95.00,59.25,-2.4848,9.3462,-0.7984,9.7038
11,8,1,3,2,37.898,37898,-3.7300,9.4800,-0.9600,10.2325,-0.0229,0.0480,-0.1167,20.69,95.06,58.81,-2.6489,9.3638,-0.8197,9.7658
11,8,1,3,2,38.028,38028,-3.8400,9.5300,-0.8300,10.3080,-0.0284,0.0262,-0.1800,21.56,95.19,57.56,-2.8058,9.3857,-0.8210,9.8305
11,8,1,3,2,38.158,38158,-3.6500,9.4600,-0.8500,10.1753,0.0087,-0.0218,0.1800,21.94,95.13,57.25,-2.9171,9.3955,-0.8249,9.8725
11,8,1,3,2,38.288,38288,-3.4300,9.6300,-0.8200,10.2554,-0.0120,-0.0556,0.0109,20.88,95.31,58.56,-2.9847,9.4264,-0.8242,9.9219
11,8,1,3,2,38.461,38461,-3.9300,8.9600,-0.8600,9.8217,0.0033,-0.0600,-0.0840,22.00,95.56,58.00,-3.1092,9.3650,-0.8289,9.9024
11,8,1,3,2,38.592,38592,-3.6800,9.1700,-1.0200,9.9334,0.0153,-0.0273,0.1134,21.69,95.63,58.63,-3.1845,9.3393,-0.8541,9.9041
11,8,1,3,2,38.723,38723,-4.0900,9.6200,-0.8800,10.4903,0.0458,0.0240,-0.0109,21.56,95.38,58.81,-3.3038,9.3763,-0.8575,9.9782
11,8,1,3,2,38.856,38856,-3.3900,9.4700,-0.8100,10.0910,0.0524,0.0807,0.1091,20.94,94.88,59.25,-3.3151,9.3886,-0.8513,9.9930
11,8,1,3,2,38.987,38987,-3.6300,9.3400,-0.5600,10.0362,0.0654,0.0949,-0.2945,21.81,94.25,57.88,-3.3566,9.3822,-0.8129,9.9977
11,8,1,3,2,39.120,39120,-4.1500,9.5100,-0.5800,10.3923,0.0262,0.0665,0.1145,22.94,93.69,56.31,-3.4612,9.3990,-0.7822,10.0466
11,9,1,3,2,39.250,39250,-3.1200,9.1600,-0.4000,9.6850,0.0251,-0.0065,-0.0960,22.31,93.44,56.88,-3.4162,9.3675,-0.7318,9.9979
11,9,1,3,2,39.381,39381,-3.7500,8.4500,-0.4200,9.2543,0.0251,-0.0785,-0.0109,23.06,93.25,56.63,-3.4602,9.2466,-0.6907,9.8970
11,9,1,3,2,39.554,39554,-4.2900,8.7900,-0.8100,9.8145,-0.0327,-0.0491,0.0894,23.31,93.69,57.06,-3.5695,9.1865,-0.7065,9.8809
11,9,1,3,2,39.684,39684,-4.4500,9.6800,-0.6900,10.6762,0.0240,-0.0349,0.1789,22.50,94.00,58.06,-3.6856,9.2515,-0.7043,9.9835
11,9,1,3,2,39.814,39814,-3.5600,8.7800,-0.4600,9.4854,0.0687,-0.0098,0.5291,19.56,93.50,61.25,-3.6690,9.1894,-0.6721,9.9176
11,9,1,3,2,39.944,39944,-2.9200,8.3300,-0.6600,8.8516,-0.0011,0.0065,0.4200,16.19,93.25,64.75,-3.5703,9.0761,-0.6705,9.7761
11,9,1,3,2,40.074,40074,-1.8200,7.9600,0.0000,8.1654,0.0044,0.0218,0.5836,12.81,93.25,68.00,-3.3397,8.9290,-0.5821,9.5509
11,9,1,3,2,40.204,40204,-0.9400,8.6200,-0.2600,8.6750,0.0262,0.0109,0.4669,9.25,93.06,71.50,-3.0235,8.8883,-0.5397,9.4040
11,9,1,3,2,40.335,40335,-0.0100,9.4700,-0.6500,9.4923,-0.0109,-0.0251,0.4625,5.25,92.94,75.56,-2.6264,8.9650,-0.5542,9.3582
11,9,1,3,2,40.465,40465,-0.4500,9.4700,-0.2500,9.4840,-0.0611,-0.0153,-0.2236,4.31,93.38,76.63,-2.3396,9.0315,-0.5141,9.3438
11,9,1,3,2,40.638,40638,-0.5100,9.7400,-0.3700,9.7604,-0.0240,0.0273,0.2367,5.00,93.75,75.88,-2.0985,9.1249,-0.4951,9.3762
11,9,1,3,2,40.768,40768,-0.7100,9.8300,-0.6000,9.8739,0.0098,0.0142,-0.0774,4.44,93.69,76.25,-1.9155,9.2178,-0.5090,9.4285
11,9,1,3,2,40.898,40898,-0.4500,9.5400,-0.4900,9.5632,0.0229,0.0338,0.2062,3.88,93.50,76.63,-1.7224,9.2603,-0.5065,9.4327
11,9,1,3,2,41.028,41028,-0.2100,9.6000,-0.4400,9.6124,-0.0065,0.0153,-0.0851,3.13,93.44,77.25,-1.5231,9.3050,-0.4977,9.4420
11,9,1,3,2,41.158,41158,-0.6800,9.5600,-0.4200,9.5934,-0.0229,0.0098,-0.0436,3.69,93.56,76.56,-1.4120,9.3386,-0.4875,9.4573
11,9,1,3,2,41.288,41288,-0.3100,9.7300,-0.4400,9.7449,0.0000,0.0164,-0.1200,3.88,93.50,76.31,-1.2668,9.3902,-0.4812,9.4875
11,9,1,3,2,41.418,41418,-0.6500,9.6600,-0.5400,9.6969,-0.0055,-0.0055,-0.2214,4.88,93.38,75.25,-1.1855,9.4258,-0.4890,9.5126
11,9,1,3,2,41.568,41568,-0.8100,8.6200,-0.4800,8.6713,0.0153,-0.0360,-0.5181,7.50,93.38,72.81,-1.1360,9.3196,-0.4878,9.4012
11,9,1,3,2,41.741,41741,-2.4600,8.8500,-0.4400,9.1961,-0.0175,-0.0622,-0.0164,12.00,93.44,68.88,-1.3105,9.2577,-0.4815,9.3624
11,9,1,3,2,41.871,41871,-2.4700,8.8500,-0.7300,9.2172,-0.0829,-0.0055,-0.2018,13.13,93.94,67.88,-1.4633,9.2040,-0.5142,9.3337
11,9,1,3,2,42.001,42001,-2.0400,9.0300,-0.4300,9.2675,-0.0676,0.0818,-0.1538,14.31,94.50,66.19,-1.5393,9.1810,-0.5031,9.3228
11,9,1,3,2,42.131,42131,-2.0300,9.0900,-0.7200,9.3417,-0.0185,0.0447,-0.2629,15.69,94.56,64.25,-1.6039,9.1690,-0.5317,9.3235
11,9,1,3,2,42.261,42261,-3.5000,8.7600,-1.0200,9.4883,-0.0371,0.0076,-0.4134,18.13,94.75,61.69,-1.8538,9.1151,-0.5961,9.3208
11,9,1,3,2,42.392,42392,-3.7000,9.0500,-0.9500,9.8232,-0.0829,0.0589,-0.0818,20.19,95.25,59.19,-2.0971,9.1066,-0.6427,9.3670
11,9,1,3,2,42.522,42522,-3.5500,9.2500,-0.9700,9.9552,-0.0873,0.0644,-0.2607,21.69,95.81,57.00,-2.2885,9.1255,-0.6858,9.4330
11,9,1,3,2,42.652,42652,-4.0300,9.4500,-0.7000,10.2973,0.0055,0.0807,-0.1353,23.19,96.00,54.88,-2.5180,9.1682,-0.6877,9.5326
11,9,1,3,2,42.825,42825,-3.9500,9.0700,-1.1100,9.9549,0.0404,-0.0251,-0.2138,24.19,95.63,53.69,-2.7067,9.1553,-0.7433,9.5759
11,9,1,3,2,42.956,42956,-4.8300,8.9100,-0.8900,10.1739,0.0142,-0.0644,-0.0742,25.56,95.75,52.75,-2.9865,9.1230,-0.7627,9.6296
11,9,1,3,2,43.086,43086,-4.2500,8.6600,-1.1200,9.7115,0.0153,-0.0600,0.1298,25.13,95.81,53.56,-3.1530,9.0620,-0.8098,9.6289
11,9,1,3,2,43.216,43216,-4.0300,9.5300,-0.9400,10.3897,0.0578,-0.0600,0.2836,23.31,95.75,55.88,-3.2686,9.1236,-0.8269,9.7267
11,9,1,3,2,43.346,43346,-4.0000,9.0400,-0.7400,9.9131,0.0654,-0.0502,0.0360,22.94,95.38,56.81,-3.3650,9.1126,-0.8155,9.7482
11,10,1,3,2,43.476,43476,-3.6000,8.6600,-0.7900,9.4117,0.0316,-0.0251,-0.0611,22.50,95.06,57.69,-3.3959,9.0530,-0.8121,9.7030
11,10,1,3,2,43.606,43606,-3.7300,8.7400,-0.6200,9.5229,0.0207,0.0044,-0.1004,23.19,95.00,57.13,-3.4400,9.0117,-0.7868,9.6780
11,10,1,3,2,43.736,43736,-4.1200,8.4200,-0.6700,9.3979,0.0120,0.0316,-0.1014,23.94,94.81,56.31,-3.5296,8.9338,-0.7714,9.6366
11,10,1,3,2,43.909,43909,-3.8700,9.1900,-0.7400,9.9990,-0.0131,0.0458,0.0720,24.06,94.56,55.75,-3.5744,8.9675,-0.7673,9.6841
11,10,1,3,2,44.039,44039,-4.6400,9.7100,-0.7300,10.7864,-0.0153,0.0480,-0.2094,24.88,94.63,54.56,-3.7148,9.0654,-0.7624,9.8266
11,10,1,3,2,44.169,44169,-4.2600,9.1000,-0.7800,10.0780,0.0316,0.0349,0.0262,25.50,94.38,53.63,-3.7867,9.0699,-0.7647,9.8584
11,10,1,3,2,44.299,44299,-4.0200,8.7400,-0.5600,9.6365,-0.0404,0.0404,-0.2607,26.00,94.31,52.94,-3.8174,9.0264,-0.7377,9.8282
11,10,1,3,2,44.429,44429,-5.0200,8.9300,-0.6800,10.2668,-0.0055,0.0076,-0.1484,28.31,94.44,50.44,-3.9759,9.0137,-0.7301,9.8787
11,10,1,3,2,44.559,44559,-5.2500,8.6700,-0.7800,10.1656,0.0229,-0.0349,-0.0033,28.50,94.44,50.38,-4.1438,8.9684,-0.7367,9.9069
11,10,1,3,2,44.690,44690,-4.8400,8.5700,-0.8000,9.8747,-0.0240,0.0087,0.2443,27.81,94.50,51.19,-4.2355,8.9159,-0.7450,9.8989
11,10,1,3,2,44.820,44820,-4.3700,8.3700,-0.8500,9.4803,-0.0393,-0.0207,0.0044,27.00,94.75,51.81,-4.2533,8.8440,-0.7589,9.8429
11,10,1,3,2,44.993,44993,-4.2200,8.6900,-0.6800,9.6844,0.0044,-0.0022,0.4156,24.94,95.06,53.94,-4.2489,8.8237,-0.7485,9.8220
11,10,1,3,2,45.124,45124,-3.4700,8.5700,-1.0400,9.3042,0.0578,0.0196,0.5258,21.94,94.75,56.94,-4.1462,8.7903,-0.7869,9.7509
11,10,1,3,2,45.255,45255,-2.3300,7.4100,-0.0600,7.7679,0.1156,-0.0033,0.3643,18.63,93.94,60.50,-3.9069,8.6084,-0.6911,9.4787
11,10,1,3,2,45.385,45385,-1.8100,8.8400,-0.4600,9.0351,0.0764,-0.0458,0.8072,14.13,93.13,65.38,-3.6306,8.6389,-0.6606,9.3941
11,10,1,3,2,45.516,45516,-1.1800,8.9300,-0.6800,9.0333,-0.0055,-0.0513,0.2367,9.94,92.88,70.06,-3.3077,8.6773,-0.6632,9.3100
11,10,1,3,2,45.646,45646,-1.6600,9.4800,-0.2600,9.6278,-0.0873,-0.0360,0.0709,9.56,93.44,70.63,-3.0905,8.7830,-0.6101,9.3309
11,10,1,3,2,45.777,45777,-1.0400,9.8400,-0.5000,9.9074,-0.0436,-0.0436,0.4800,7.19,93.88,73.25,-2.8203,8.9223,-0.5956,9.3764
11,10,1,3,2,45.908,45908,-0.5000,9.9400,-0.6000,9.9706,0.0327,-0.0229,0.1865,4.38,93.94,76.25,-2.5146,9.0564,-0.5961,9.4179
11,10,1,3,2,46.084,46084,-0.7300,9.4300,-0.5200,9.4725,0.0207,0.0044,0.1036,4.06,93.50,76.69,-2.2794,9.1057,-0.5861,9.4049
11,10,1,3,2,46.214,46214,-0.1700,9.6400,-0.5500,9.6572,-0.0240,0.0076,-0.0240,3.69,93.56,77.06,-2.0014,9.1761,-0.5814,9.4098
11,10,1,3,2,46.345,46345,-0.4600,9.4800,-0.6700,9.5148,-0.0436,-0.0229,-0.2302,4.19,93.75,76.63,-1.7983,9.2161,-0.5930,9.4086
11,10,1,3,2,46.475,46475,-1.3400,9.7200,-0.5300,9.8262,-0.0404,-0.0065,-0.2640,5.81,94.06,75.06,-1.7379,9.2825,-0.5847,9.4619
11,10,1,3,2,46.606,46606,-1.2300,9.4100,-0.6800,9.5144,-0.0229,0.0044,-0.2203,7.75,94.25,73.13,-1.6710,9.2993,-0.5973,9.4671
11,10,1,3,2,46.737,46737,-1.7500,8.5400,-0.6300,8.7402,-0.0153,0.0065,-0.4429,10.06,94.44,70.75,-1.6814,9.1993,-0.6016,9.3710
11,10,1,3,2,46.867,46867,-2.7200,8.4300,-0.4800,8.8709,-0.1036,0.0458,-0.2105,12.75,94.88,67.81,-1.8183,9.0979,-0.5856,9.2963
11,10,1,3,2,46.997,46997,-2.0300,8.8300,-0.6000,9.0802,-0.1320,0.0753,0.0742,13.56,95.56,66.25,-1.8462,9.0626,-0.5875,9.2674
11,10,1,3,2,47.170,47170,-1.5100,9.2600,-1.1600,9.4537,-0.1724,-0.0469,-0.0949,13.13,97.00,66.25,-1.8019,9.0886,-0.6629,9.2892
11,10,1,3,2,47.300,47300,-3.1600,9.1300,-1.5400,9.7834,-0.1484,-0.0022,-0.5945,16.25,98.31,63.00,-1.9808,9.0941,-0.7785,9.3398
11,10,1,3,2,47.430,47430,-2.9100,9.3200,-1.6200,9.8972,-0.1080,0.0033,-0.3480,19.13,99.44,59.63,-2.1033,9.1238,-0.8894,9.4053
11,10,1,3,2,47.560,47560,-3.9500,8.9600,-1.6700,9.9334,-0.0120,-0.0513,-0.3545,22.06,100.13,56.63,-2.3466,9.1022,-0.9922,9.4521
11,10,1,3,2,47.690,47690,-3.8000,8.8300,-1.6800,9.7587,0.0098,-0.0240,-0.0196,22.88,100.31,56.06,-2.5381,9.0664,-1.0829,9.4770
11,10,1,3,2,47.820,47820,-4.1100,9.1300,-1.6900,10.1541,0.0229,-0.0109,-0.1745,23.94,100.38,55.25,-2.7453,9.0748,-1.1629,9.5520
11,10,1,3,2,47.951,47951,-4.4700,9.3000,-1.6600,10.4511,0.0993,0.0665,-0.1080,24.88,99.94,54.25,-2.9725,9.1044,-1.2284,9.6559
11,10,1,3,2,48.081,48081,-4.4300,8.6700,-1.7600,9.8940,0.0327,0.0884,-0.1167,25.69,99.19,53.19,-3.1646,9.0472,-1.2984,9.6722
11,10,1,3,2,48.254,48254,-4.5500,8.5200,-1.1700,9.7294,-0.0316,0.0567,-0.0273,26.75,99.00,51.38,-3.3472,8.9777,-1.2815,9.6667
11,10,1,3,2,48.385,48385,-4.0300,8.7400,-1.5500,9.7484,-0.0218,-0.0185,0.0916,26.25,99.06,51.69,-3.4371,8.9464,-1.3169,9.6740
11,10,1,3,2,48.515,48515,-4.8700,9.0000,-1.3400,10.3205,0.0022,-0.0295,0.0578,25.94,99.25,52.25,-3.6260,8.9535,-1.3199,9.7496
11,10,1,3,2,48.645,48645,-4.0700,8.8900,-1.5700,9.9026,0.0164,0.0131,0.1309,25.00,99.13,53.19,-3.6845,8.9451,-1.3529,9.7683
11,10,1,3,2,48.775,48775,-4.0200,8.8500,-1.4200,9.8234,0.0196,0.0251,-0.0622,24.81,99.00,53.31,-3.7287,8.9326,-1.3617,9.7749
11,10,1,3,2,48.905,48905,-3.9600,8.6400,-1.4900,9.6204,0.0382,-0.0033,-0.1178,25.38,98.81,52.69,-3.7592,8.8940,-1.3786,9.7537
11,10,1,3,2,49.035,49035,-4.7200,8.8000,-1.3300,10.0741,0.0644,-0.0338,-0.0284,26.13,98.69,52.31,-3.8858,8.8816,-1.3722,9.7911
11,10,1,3,2,49.165,49165,-4.4600,9.1400,-1.2100,10.2418,0.0927,-0.0251,0.1080,25.56,98.13,53.31,-3.9614,8.9157,-1.3508,9.8492
11,10,1,3,2,49.338,49338,-4.5000,9.0700,-1.1800,10.1935,0.0785,-0.0098,-0.0316,25.19,97.31,54.25,-4.0324,8.9360,-1.3283,9.8933
11,10,1,3,2,49.468,49468,-4.2300,9.2600,-1.1300,10.2429,0.0764,-0.0098,0.1604,24.50,96.75,55.25,-4.0585,8.9787,-1.3022,9.9390
11,10,1,3,2,49.598,49598,-5.0300,9.9800,-1.2300,11.2434,0.0535,-0.0240,0.0382,23.88,96.19,56.19,-4.1865,9.1106,-1.2927,10.1095
11,10,1,3,2,49.729,49729,-3.8000,8.9000,-0.6200,9.6971,0.1014,-0.1156,0.6752,21.19,95.88,59.63,-4.1355,9.0829,-1.2040,10.0524
11,10,1,3,2,49.859,49859,-1.8800,7.9600,-0.9400,8.2328,0.1102,-0.0982,0.4581,16.06,95.06,65.88,-3.8383,8.9349,-1.1692,9.7945
11,10,1,3,2,49.989,49989,-2.6700,8.5100,-0.5600,8.9366,0.0404,-0.0316,0.2062,14.94,94.63,67.56,-3.6844,8.8789,-1.0890,9.6745
11,10,1,3,2,50.119,50119,-2.0000,9.2200,-0.4400,9.4447,0.0142,-0.0295,0.3872,11.81,94.50,70.81,-3.4624,8.9239,-1.0034,9.6245
11,10,1,3,2,50.249,50249,-1.4400,8.3900,-0.4600,8.5251,0.0611,-0.0829,0.5116,9.25,94.13,73.88,-3.1959,8.8535,-0.9318,9.4587
11,10,1,3,2,50.422,50422,-0.6000,9.6300,-0.6400,9.6699,0.1004,-0.0491,0.4800,3.75,93.38,80.25,-2.8538,8.9558,-0.8934,9.4419
