participant,rep,equipment_code,exercise_code,quality_code,timestamp,timestamp_ms,accelX,accelY,accelZ,accelMag,gyroX,gyroY,gyroZ,roll,pitch,yaw,filteredX,filteredY,filteredZ,filteredMag
11,1,1,3,2,00.000,0,-2.7000,9.2000,1.4700,9.7000,0.0175,-0.0316,0.0556,16.19,80.69,58.50,-2.7992,9.2781,1.5656,9.8168
11,1,1,3,2,00.130,130,-2.7400,9.4400,1.4900,9.9419,0.0295,-0.0218,0.0153,16.25,80.63,58.69,-2.7914,9.2994,1.5557,9.8331
11,1,1,3,2,00.261,261,-2.7400,9.2800,1.4600,9.7856,0.0545,-0.0055,0.0175,16.06,80.31,59.00,-2.7846,9.2968,1.5430,9.8268
11,1,1,3,2,00.391,391,-2.5100,9.2800,1.7000,9.7626,0.0491,0.0055,-0.0251,16.06,79.94,59.13,-2.7485,9.2946,1.5637,9.8178
11,1,1,3,2,00.564,564,-2.5400,9.0400,1.6500,9.5339,0.0273,-0.0076,-0.0982,16.69,79.56,58.56,-2.7210,9.2611,1.5751,9.7802
11,1,1,3,2,00.694,694,-2.9400,8.9100,1.8400,9.5612,-0.0109,-0.0262,-0.0753,17.44,79.50,57.88,-2.7498,9.2148,1.6100,9.7502
11,1,1,3,2,00.824,824,-1.8600,7.9600,1.5100,8.3127,-0.0676,-0.0491,-0.1942,17.81,79.88,57.75,-2.6326,9.0495,1.5968,9.5589
11,1,1,3,2,00.954,954,-3.5300,7.3100,1.4000,8.2375,0.0055,-0.0851,-0.5640,20.63,80.13,55.25,-2.7508,8.8202,1.5709,9.3718
11,1,1,3,2,01.084,1084,-4.7100,8.4400,1.4900,9.7795,-0.0229,-0.0535,0.2585,23.38,80.31,53.00,-3.0090,8.7701,1.5602,9.4023
11,1,1,3,2,01.214,1214,-2.8600,9.1400,1.6900,9.7250,-0.0022,0.0284,0.1309,20.50,80.56,55.88,-2.9894,8.8189,1.5773,9.4444
11,1,1,3,2,01.345,1345,-2.5500,8.7700,1.2200,9.2143,0.0240,0.0044,-0.4036,20.94,80.31,55.31,-2.9315,8.8124,1.5302,9.4124
11,1,1,3,2,01.475,1475,-4.1400,8.5000,1.5700,9.5841,-0.0567,-0.0993,-0.3840,25.06,80.50,51.44,-3.0907,8.7713,1.5355,9.4258
11,1,1,3,2,01.648,1648,-5.2400,9.2200,1.0700,10.6588,-0.1025,-0.0240,-0.3774,27.50,81.63,49.31,-3.3739,8.8304,1.4741,9.5673
11,1,1,3,2,01.779,1779,-6.4500,8.5700,1.3100,10.8057,0.0087,0.0371,-0.3916,31.00,81.56,45.50,-3.7793,8.7961,1.4525,9.6832
11,1,1,3,2,01.910,1910,-4.6900,8.4100,1.1700,9.7002,-0.0109,0.0295,0.2073,30.94,81.31,45.31,-3.8993,8.7452,1.4153,9.6792
11,1,1,3,2,02.040,2040,-5.7500,9.2000,1.4000,10.9390,0.0600,-0.0360,-0.2705,31.31,81.38,45.00,-4.1432,8.8051,1.4133,9.8333
11,1,1,3,2,02.171,2171,-6.3900,8.3200,1.4900,10.5960,0.1134,0.0785,-0.2149,33.44,80.31,43.06,-4.4392,8.7412,1.4234,9.9066
11,1,1,3,2,02.301,2301,-6.5200,8.5600,1.4400,10.8562,-0.0404,0.0251,0.0425,34.19,80.00,42.06,-4.7134,8.7173,1.4256,10.0120
11,1,1,3,2,02.434,2434,-4.5400,7.6800,1.2800,9.0129,0.0240,0.0033,0.1942,32.75,80.19,43.44,-4.6906,8.5806,1.4064,9.8796
11,1,1,3,2,02.565,2565,-4.8800,8.8700,1.2600,10.2019,0.0207,-0.0185,0.0600,31.81,80.19,44.50,-4.7155,8.6188,1.3871,9.9219
11,1,1,3,2,02.740,2740,-5.4800,8.2400,1.5900,10.0228,0.0513,-0.0502,-0.1244,33.13,80.00,43.75,-4.8163,8.5689,1.4138,9.9308
11,1,1,3,2,02.870,2870,-5.4800,8.1300,1.5500,9.9262,-0.0065,-0.0447,-0.1004,33.69,80.00,43.63,-4.9037,8.5110,1.4318,9.9264
11,1,1,3,2,03.001,3001,-5.5500,8.3200,1.3500,10.0919,-0.0273,-0.0480,-0.1091,34.50,80.19,42.94,-4.9889,8.4859,1.4210,9.9458
11,1,1,3,2,03.131,3131,-6.1100,8.5100,1.5400,10.5889,-0.0011,-0.0796,-0.0175,35.06,80.50,42.81,-5.1366,8.4890,1.4367,10.0256
11,1,1,3,2,03.262,3262,-6.5100,8.7200,1.2900,10.9582,-0.0229,-0.0687,0.1887,34.56,81.13,43.81,-5.3176,8.5195,1.4174,10.1423
11,1,1,3,2,03.392,3392,-6.1200,8.9200,1.1000,10.8734,0.0316,0.0273,0.2454,33.38,81.56,45.13,-5.4233,8.5722,1.3755,10.2366
11,2,1,3,2,03.523,3523,-5.1200,8.2900,1.2000,9.8173,0.0742,0.0327,0.3894,31.06,81.06,47.50,-5.3834,8.5351,1.3524,10.1812
11,2,1,3,2,03.653,3653,-4.4100,8.1500,1.3900,9.3703,-0.0120,-0.0316,0.2825,28.44,81.19,50.31,-5.2551,8.4843,1.3574,10.0718
11,2,1,3,2,03.826,3826,-3.9000,7.4600,1.0900,8.4882,-0.0044,-0.0338,0.2574,26.44,81.69,52.63,-5.0765,8.3493,1.3221,9.8606
11,2,1,3,2,03.956,3956,-3.3400,7.8700,0.7900,8.5858,0.0894,-0.0098,0.3109,24.19,81.63,55.13,-4.8477,8.2862,1.2520,9.6813
11,2,1,3,2,04.086,4086,-3.3300,8.6500,1.4100,9.3755,0.2160,0.0251,0.2007,22.31,80.44,57.38,-4.6477,8.3341,1.2728,9.6270
11,2,1,3,2,04.216,4216,-3.6600,8.0800,1.6800,9.0280,0.1189,0.0545,0.0447,21.94,79.06,57.88,-4.5176,8.3006,1.3265,9.5430
11,2,1,3,2,04.346,4346,-3.2200,8.3500,2.0700,9.1856,-0.0305,0.0654,0.1876,20.25,78.75,59.25,-4.3466,8.3071,1.4245,9.4832
11,2,1,3,2,04.476,4476,-3.0000,9.0500,2.3800,9.8268,-0.0513,0.0295,0.2607,19.50,78.94,59.56,-4.1691,8.4050,1.5504,9.5095
11,2,1,3,2,04.607,4607,-2.6500,8.9700,2.2700,9.6248,-0.0545,-0.0087,0.1734,17.63,79.38,61.31,-3.9689,8.4795,1.6452,9.5058
11,2,1,3,2,04.737,4737,-2.6200,9.0200,1.5000,9.5118,-0.0545,0.0458,-0.1091,17.25,79.81,61.44,-3.7912,8.5507,1.6261,9.4938
11,2,1,3,2,04.910,4910,-5.7000,11.4000,1.0600,12.7896,-0.1167,-0.0251,-0.0873,20.94,80.19,57.38,-4.0427,8.9262,1.5515,9.9210
11,2,1,3,2,05.041,5041,-4.8300,9.1100,1.9300,10.4903,-0.0676,-0.0633,-1.8010,19.00,81.19,59.38,-4.1465,8.9504,1.6014,9.9933
11,2,1,3,2,05.172,5172,-5.1400,7.6600,3.7300,9.9503,0.1724,0.0011,0.7014,21.63,81.63,56.75,-4.2774,8.7804,1.8819,9.9465
11,2,1,3,2,05.302,5302,-1.9400,9.3400,0.4500,9.5500,-0.0513,0.1364,-0.1254,20.00,81.75,57.81,-3.9694,8.8541,1.6932,9.8498
11,2,1,3,2,05.433,5433,-2.4000,8.2200,1.5000,8.6936,0.0382,0.0665,-0.2716,20.94,81.38,56.19,-3.7626,8.7705,1.6677,9.6882
11,2,1,3,2,05.563,5563,-3.0500,7.5700,1.1400,8.2406,0.0065,0.0305,-0.6883,24.00,81.00,52.75,-3.6687,8.6123,1.5982,9.4966
11,2,1,3,2,05.694,5694,-4.4900,7.9000,1.3500,9.1865,0.0589,-0.0109,-0.6632,29.63,80.31,47.06,-3.7769,8.5185,1.5655,9.4488
11,2,1,3,2,05.825,5825,-5.5500,7.6300,1.1700,9.5073,0.1091,-0.0829,-0.2782,32.63,79.63,44.63,-4.0106,8.4014,1.5134,9.4318
11,2,1,3,2,06.002,6002,-5.1100,7.7700,1.8100,9.4742,0.0218,-0.0818,-0.1156,31.44,79.25,47.13,-4.1554,8.3182,1.5525,9.4271
11,2,1,3,2,06.132,6132,-5.8200,7.8200,1.5600,9.8721,-0.0415,-0.0415,-0.1145,33.56,79.44,45.25,-4.3748,8.2525,1.5534,9.4687
11,2,1,3,2,06.278,6278,-6.5800,8.2900,1.0400,10.6349,-0.0065,-0.0229,0.0185,34.00,79.88,44.94,-4.6654,8.2575,1.4858,9.6000
11,2,1,3,2,06.413,6413,-4.8700,8.7100,1.2600,10.0583,-0.0545,0.0109,0.2705,30.81,80.25,48.06,-4.6923,8.3171,1.4560,9.6598
11,2,1,3,2,06.544,6544,-4.9600,8.9800,1.3500,10.3472,-0.0229,-0.0480,-0.1734,31.63,80.63,47.31,-4.7276,8.4045,1.4421,9.7501
11,2,1,3,2,06.675,6675,-5.4000,7.2300,1.2500,9.1102,-0.0305,-0.0404,-0.4723,34.50,80.56,44.69,-4.8162,8.2497,1.4168,9.6572
11,2,1,3,2,06.805,6805,-6.2100,8.7000,1.6600,10.8171,-0.0033,-0.0425,0.2465,35.50,80.88,43.88,-4.9999,8.3090,1.4488,9.8050
11,2,1,3,2,06.935,6935,-5.6700,8.1400,1.2400,9.9973,0.0524,-0.0011,0.0513,34.38,80.81,45.25,-5.0882,8.2868,1.4213,9.8275
11,2,1,3,2,07.108,7108,-5.3800,8.4300,1.3000,10.0846,0.0807,0.0055,0.0556,34.06,80.63,45.75,-5.1266,8.3056,1.4053,9.8611
11,2,1,3,2,07.238,7238,-5.2600,7.4400,1.1100,9.1790,0.0273,0.0316,-0.1909,34.38,79.88,45.50,-5.1442,8.1916,1.3664,9.7689
11,2,1,3,2,07.368,7368,-5.7300,8.3800,1.4800,10.2590,0.0022,0.0153,-0.0556,34.88,79.69,44.88,-5.2214,8.2164,1.3814,9.8326
11,2,1,3,2,07.498,7498,-5.7700,8.7700,1.4700,10.6003,0.0251,0.0065,0.0764,34.75,79.56,44.94,-5.2937,8.2893,1.3930,9.9336
11,2,1,3,2,07.629,7629,-5.7600,8.5600,1.6100,10.4424,0.0807,-0.0262,-0.3643,35.19,79.13,44.75,-5.3551,8.3250,1.4216,10.0002
11,2,1,3,2,07.759,7759,-6.1700,7.6200,1.4200,9.9071,0.0633,-0.0142,-0.0469,36.69,78.44,43.69,-5.4625,8.2321,1.4214,9.9813
11,2,1,3,2,07.889,7889,-6.4600,8.0400,1.9100,10.4891,0.0469,0.0055,-0.1025,37.00,78.13,43.63,-5.5940,8.2068,1.4858,10.0425
11,3,1,3,2,08.020,8020,-6.1400,7.3100,1.6300,9.6847,-0.0469,-0.0382,0.0273,37.06,78.06,43.69,-5.6659,8.0886,1.5048,9.9896
11,3,1,3,2,08.192,8192,-5.1900,8.8500,1.4300,10.3587,-0.0938,-0.0764,0.6250,34.19,79.88,46.81,-5.6032,8.1890,1.4949,10.0344
11,3,1,3,2,08.322,8322,-4.7400,7.9800,1.2800,9.3694,0.0044,-0.0753,0.2334,31.44,80.81,49.88,-5.4895,8.1614,1.4666,9.9445
11,3,1,3,2,08.452,8452,-4.7100,7.9400,1.2500,9.3161,-0.0415,-0.0720,0.3556,29.75,81.50,52.06,-5.3867,8.1322,1.4381,9.8599
11,3,1,3,2,08.583,8583,-4.5100,8.5900,1.1100,9.7653,-0.0567,-0.0240,0.3371,27.13,82.25,54.88,-5.2712,8.1926,1.3948,9.8412
11,3,1,3,2,08.713,8713,-4.9000,8.2000,0.8200,9.5876,-0.0382,0.0687,0.2509,25.25,82.63,56.44,-5.2223,8.1935,1.3191,9.8054
11,3,1,3,2,08.843,8843,-3.4200,7.9500,0.7800,8.6895,-0.0851,0.1745,0.6218,22.63,83.00,58.19,-4.9848,8.1614,1.2481,9.6444
11,3,1,3,2,08.973,8973,-1.7900,8.4300,1.0100,8.6769,-0.0349,0.1134,0.1156,20.06,83.13,59.50,-4.5638,8.1968,1.2167,9.4603
11,3,1,3,2,09.104,9104,-3.0500,9.2700,1.2400,9.8373,-0.0022,0.0698,0.1451,19.00,83.06,59.94,-4.3643,8.3383,1.2198,9.4901
11,3,1,3,2,09.277,9277,-2.0900,9.2400,0.9900,9.5250,0.0295,0.0382,0.4712,16.56,82.63,61.81,-4.0646,8.4571,1.1895,9.4582
11,3,1,3,2,09.408,9408,-2.0700,9.4400,1.2100,9.7397,-0.0305,-0.0131,0.2400,14.00,82.75,64.44,-3.8018,8.5866,1.1922,9.4660
11,3,1,3,2,09.539,9539,-1.3400,9.8200,1.2200,9.9858,-0.0196,-0.0022,0.1604,12.13,83.06,66.25,-3.4774,8.7491,1.1959,9.4905
11,3,1,3,2,09.669,9669,-1.5200,9.8800,1.1700,10.0645,0.0316,-0.0087,-0.0305,11.00,83.00,67.38,-3.2195,8.8982,1.1924,9.5375
11,3,1,3,2,09.800,9800,-1.5100,9.7100,1.2000,9.8997,0.0535,-0.0164,-0.2040,11.19,82.63,67.19,-2.9942,9.0051,1.1934,9.5646
11,3,1,3,2,09.930,9930,-1.7900,9.3100,1.1700,9.5524,0.0545,-0.0338,-0.2891,12.81,82.25,65.75,-2.8355,9.0453,1.1904,9.5538
11,3,1,3,2,10.066,10066,-2.0300,8.2100,1.2800,8.5536,0.0589,-0.0589,-0.6043,15.75,81.88,63.25,-2.7294,8.9352,1.2022,9.4198
11,3,1,3,2,10.196,10196,-3.9200,8.8200,1.6300,9.7885,0.0687,-0.0218,-0.2694,19.94,81.31,59.44,-2.8863,8.9201,1.2585,9.4595
11,3,1,3,2,10.369,10369,-3.2700,7.4800,1.0300,8.2283,0.0665,-0.0284,-0.5934,22.56,80.50,57.06,-2.9368,8.7303,1.2284,9.2926
11,3,1,3,2,10.499,10499,-4.7700,8.1100,1.6700,9.5558,0.0535,-0.0131,-0.1865,25.25,79.88,54.69,-3.1784,8.6486,1.2866,9.3035
11,3,1,3,2,10.629,10629,-3.9400,8.3600,1.4200,9.3504,-0.0120,0.0207,-0.1636,25.81,79.63,54.06,-3.2788,8.6105,1.3042,9.3055
11,3,1,3,2,10.760,10760,-5.1100,8.5100,1.4800,10.0361,-0.0905,-0.0131,-0.4669,28.44,79.88,51.25,-3.5201,8.5973,1.3274,9.3843
11,3,1,3,2,10.890,10890,-5.1500,8.6600,1.4300,10.1766,-0.0982,0.0142,-0.1680,30.38,80.38,48.94,-3.7348,8.6055,1.3409,9.4764
11,3,1,3,2,11.021,11021,-5.6900,8.5500,1.3900,10.3639,-0.0524,0.0022,-0.1571,32.38,80.75,46.63,-3.9925,8.5982,1.3474,9.5752
11,3,1,3,2,11.151,11151,-5.7100,8.4300,1.4400,10.2831,-0.0229,0.0218,-0.2443,33.25,80.88,45.44,-4.2188,8.5761,1.3596,9.6538
11,3,1,3,2,11.282,11282,-6.1900,8.4400,1.5300,10.5778,-0.0415,0.0371,0.1527,34.00,80.94,44.38,-4.4786,8.5581,1.3820,9.7575
11,3,1,3,2,11.454,11454,-5.0200,8.4400,1.0700,9.8782,-0.0327,-0.0447,-0.0349,32.63,81.38,45.63,-4.5499,8.5426,1.3409,9.7711
11,3,1,3,2,11.584,11584,-5.4400,8.4000,1.0700,10.0647,0.0000,-0.0644,0.1374,32.44,81.88,46.19,-4.6672,8.5238,1.3052,9.8052
11,3,1,3,2,11.714,11714,-5.5900,8.3200,0.9100,10.0647,-0.0142,-0.0535,-0.0785,32.50,82.25,46.44,-4.7888,8.4969,1.2531,9.8337
11,3,1,3,2,11.844,11844,-5.6400,8.1200,1.1200,9.9498,0.0327,-0.0153,0.0131,32.44,82.44,46.81,-4.9010,8.4473,1.2356,9.8439
11,3,1,3,2,11.974,11974,-5.4800,8.3700,0.9900,10.0532,0.0185,0.0153,0.0644,32.19,82.31,47.19,-4.9773,8.4371,1.2032,9.8694
11,3,1,3,2,12.104,12104,-5.3700,8.7400,1.1200,10.3189,0.0076,0.0371,-0.0305,32.06,82.13,47.19,-5.0290,8.4770,1.1923,9.9283
11,3,1,3,2,12.235,12235,-5.6300,8.6400,1.1100,10.3720,0.0076,0.0349,-0.0665,32.63,81.94,46.38,-5.1082,8.4985,1.1814,9.9857
11,3,1,3,2,12.365,12365,-5.6200,8.8000,1.4100,10.5362,0.0665,0.0295,-0.1178,33.00,81.56,45.81,-5.1757,8.5382,1.2115,10.0576
11,3,1,3,2,12.538,12538,-6.0100,7.5700,1.5000,9.7814,0.0894,0.0185,-0.2083,34.38,80.50,44.81,-5.2856,8.4106,1.2496,10.0119
11,3,1,3,2,12.670,12670,-5.8200,8.4000,1.4700,10.3244,-0.0065,-0.0240,0.0011,34.00,80.25,45.25,-5.3560,8.4092,1.2786,10.0517
11,3,1,3,2,12.801,12801,-6.6600,8.2600,1.4000,10.7025,0.0065,-0.0131,0.1440,34.13,80.38,45.25,-5.5279,8.3896,1.2946,10.1300
11,4,1,3,2,12.936,12936,-4.4300,7.1400,1.3200,8.5057,-0.0295,-0.0818,0.4996,31.44,80.94,48.25,-5.3832,8.2249,1.2979,9.9153
11,4,1,3,2,13.066,13066,-4.6200,8.7700,1.1800,9.9825,-0.1178,-0.0884,0.5072,28.13,82.19,51.94,-5.2826,8.2967,1.2824,9.9190
11,4,1,3,2,13.198,13198,-4.6000,9.1400,0.8100,10.2643,-0.0622,-0.0535,0.4003,24.94,83.50,55.38,-5.1927,8.4079,1.2202,9.9571
11,4,1,3,2,13.329,13329,-3.1700,7.8200,1.0800,8.5069,-0.0076,0.0524,0.4134,21.69,83.75,58.56,-4.9261,8.3304,1.2017,9.7522
11,4,1,3,2,13.459,13459,-2.7000,7.7400,0.6600,8.2239,-0.0393,0.0589,0.1440,20.00,83.88,59.69,-4.6328,8.2526,1.1303,9.5313
11,4,1,3,2,13.632,13632,-1.7500,9.3600,0.9800,9.5725,0.0055,0.0327,0.3971,14.94,84.06,64.44,-4.2529,8.3985,1.1105,9.4792
11,4,1,3,2,13.763,13763,-1.7300,9.7600,0.8400,9.9477,0.0109,0.0404,0.2007,13.38,84.00,65.75,-3.9205,8.5779,1.0749,9.4924
11,4,1,3,2,13.893,13893,-1.9800,9.5700,0.9400,9.8178,-0.0011,0.0447,-0.2007,12.63,83.94,66.25,-3.6647,8.7087,1.0571,9.5073
11,4,1,3,2,14.024,14024,-2.5100,9.1700,1.1400,9.5754,-0.0055,0.0316,-0.2313,13.81,84.00,64.69,-3.5126,8.7694,1.0680,9.5070
11,4,1,3,2,14.155,14155,-2.0400,9.7000,1.1100,9.9742,-0.0185,0.0295,0.1582,13.75,84.06,64.50,-3.3185,8.8921,1.0735,9.5517
11,4,1,3,2,14.285,14285,-2.2600,9.3800,1.1000,9.7109,0.0131,-0.0120,-0.0327,14.31,84.06,63.81,-3.1790,8.9564,1.0770,9.5647
11,4,1,3,2,14.416,14416,-2.2000,9.4300,0.9200,9.7268,0.0196,-0.0425,-0.1713,14.38,84.00,64.00,-3.0500,9.0188,1.0563,9.5790
11,4,1,3,2,14.546,14546,-2.8400,9.2600,0.9900,9.7362,0.0338,-0.0316,-0.2356,15.56,83.94,63.13,-3.0224,9.0506,1.0476,9.5992
11,4,1,3,2,14.719,14719,-2.5500,9.2600,0.9100,9.6477,0.0415,-0.0087,-0.1429,17.00,83.56,61.81,-2.9601,9.0782,1.0295,9.6039
11,4,1,3,2,14.854,14854,-3.0200,8.4200,1.1000,9.0126,0.0131,-0.0153,-0.4429,19.44,83.25,59.56,-2.9680,8.9914,1.0388,9.5254
11,4,1,3,2,14.985,14985,-3.6700,7.9300,0.7700,8.7719,0.0251,-0.0251,-0.4832,22.75,83.13,56.31,-3.0605,8.8516,1.0033,9.4193
11,4,1,3,2,15.115,15115,-4.4700,8.5900,1.4600,9.7929,0.0469,0.0175,-0.0415,25.19,82.81,54.06,-3.2462,8.8171,1.0635,9.4557
11,4,1,3,2,15.246,15246,-3.8600,7.8100,1.0400,8.7737,0.0611,0.0578,-0.4211,26.00,82.06,53.13,-3.3271,8.6844,1.0604,9.3602
11,4,1,3,2,15.376,15376,-4.6800,8.5200,1.2900,9.8060,0.0087,0.0458,-0.2891,28.56,81.56,50.25,-3.5054,8.6627,1.0907,9.4085
11,4,1,3,2,15.507,15507,-4.9800,8.8200,1.0200,10.1800,0.0338,-0.0022,-0.2520,30.38,81.31,48.25,-3.6997,8.6835,1.0814,9.5005
11,4,1,3,2,15.637,15637,-5.5200,8.2500,1.6400,10.0609,0.1244,0.0218,-0.3174,32.13,80.63,46.75,-3.9396,8.6263,1.1550,9.5534
11,4,1,3,2,15.810,15810,-6.4800,8.0600,1.5000,10.4501,0.0600,0.1102,0.1364,34.81,79.19,43.94,-4.2743,8.5517,1.2004,9.6355
11,4,1,3,2,15.940,15940,-5.1300,7.7200,1.9900,9.4803,0.0960,0.1374,-0.1298,34.13,77.94,44.06,-4.3871,8.4421,1.3045,9.6030
11,4,1,3,2,16.070,16070,-5.5100,7.3700,1.8200,9.3803,-0.0622,0.0480,-0.2193,35.44,77.00,42.13,-4.5351,8.3008,1.3724,9.5579
11,4,1,3,2,16.200,16200,-6.0100,8.5500,2.1400,10.6678,-0.0524,-0.0480,0.0087,35.63,77.50,41.75,-4.7294,8.3337,1.4736,9.6948
11,4,1,3,2,16.330,16330,-5.9400,7.4300,2.0000,9.7205,-0.0349,-0.0447,-0.1920,35.94,77.88,41.69,-4.8889,8.2146,1.5429,9.6831
11,4,1,3,2,16.460,16460,-6.0000,8.5600,1.2600,10.5291,-0.0927,-0.0916,0.0818,36.13,78.81,41.63,-5.0354,8.2601,1.5057,9.7904
11,4,1,3,2,16.590,16590,-6.2200,8.1700,1.5100,10.3787,0.0796,-0.0196,0.0240,35.69,79.31,42.44,-5.1915,8.2482,1.5062,9.8617
11,4,1,3,2,16.721,16721,-5.6400,7.4900,1.5400,9.5016,-0.0120,0.0000,0.0065,36.19,78.94,42.06,-5.2506,8.1483,1.5107,9.8105
11,4,1,3,2,16.894,16894,-5.7100,7.6100,1.3700,9.6121,-0.0207,-0.0044,0.0545,36.25,79.31,42.00,-5.3111,8.0774,1.4921,9.7815
11,4,1,3,2,17.025,17025,-5.8700,8.4800,1.4200,10.4107,-0.0033,0.0240,0.1364,36.00,79.44,42.13,-5.3848,8.1304,1.4826,9.8640
11,5,1,3,2,17.155,17155,-5.4900,7.4600,1.4600,9.3767,0.0622,0.0098,-0.2334,36.31,79.06,41.75,-5.3986,8.0421,1.4796,9.7985
11,5,1,3,2,17.286,17286,-5.8400,7.3600,1.6500,9.5393,0.0284,-0.0491,-0.1429,37.69,78.69,40.75,-5.4568,7.9522,1.5021,9.7607
11,5,1,3,2,17.417,17417,-6.0200,7.3400,1.4300,9.6000,0.0382,-0.0687,-0.1156,38.06,78.69,40.88,-5.5310,7.8715,1.4926,9.7355
11,5,1,3,2,17.547,17547,-6.8800,7.8000,1.3000,10.4816,0.0055,-0.0284,-0.0207,39.19,78.63,40.00,-5.7088,7.8621,1.4672,9.8263
11,5,1,3,2,17.678,17678,-7.2000,8.0200,1.5500,10.8887,-0.0142,-0.0055,-0.1374,39.69,78.75,39.69,-5.9053,7.8829,1.4781,9.9598
11,5,1,3,2,17.808,17808,-7.6200,8.1500,1.7800,11.2985,-0.0513,-0.0076,-0.0884,40.25,78.88,38.94,-6.1312,7.9181,1.5179,10.1288
11,5,1,3,2,17.981,17981,-7.1300,7.4900,1.4600,10.4436,-0.1276,-0.0065,0.0742,40.50,79.63,38.31,-6.2628,7.8617,1.5103,10.1642
11,5,1,3,2,18.116,18116,-6.6000,6.7900,1.3700,9.5677,-0.1658,-0.0022,0.2422,39.81,80.75,38.50,-6.3073,7.7205,1.4918,10.0803
11,5,1,3,2,18.247,18247,-5.3500,6.6400,0.8200,8.5665,-0.3054,-0.0589,0.5574,36.50,83.00,40.94,-6.1811,7.5781,1.4033,9.8794
11,5,1,3,2,18.377,18377,-5.0000,7.0000,0.8200,8.6413,-0.3971,-0.1058,0.3752,32.75,86.31,43.94,-6.0255,7.5019,1.3264,9.7131
11,5,1,3,2,18.508,18508,-3.8600,5.9300,-0.1100,7.0765,-0.4854,-0.1058,0.2694,30.69,89.88,45.00,-5.7401,7.2948,1.1371,9.3518
11,5,1,3,2,18.638,18638,-3.9500,8.9200,-0.4800,9.7673,-0.4363,-0.0164,0.6916,26.75,93.50,47.69,-5.5042,7.5089,0.9240,9.3560
11,5,1,3,2,18.769,18769,-3.4500,8.9900,-1.2600,9.7113,-0.2978,0.0404,0.2705,23.00,95.94,50.13,-5.2335,7.7041,0.6362,9.3353
11,5,1,3,2,18.899,18899,-3.0700,9.7500,-2.0700,10.4294,-0.2738,0.1047,0.5378,20.50,97.75,51.25,-4.9484,7.9737,0.2796,9.3886
11,5,1,3,2,19.072,19072,-3.0200,9.8500,-1.3400,10.3893,-0.0087,0.1484,-0.0720,18.19,98.69,52.00,-4.6943,8.2210,0.0662,9.4671
11,5,1,3,2,19.202,19202,-2.5800,9.3900,-1.4200,9.8410,0.0818,0.1396,0.2062,18.06,98.00,51.19,-4.4157,8.3750,-0.1296,9.4687
11,5,1,3,2,19.332,19332,-2.6000,9.5500,-1.2000,9.9701,0.0993,0.0415,0.1484,16.38,97.13,52.50,-4.1764,8.5298,-0.2707,9.5013
11,5,1,3,2,19.462,19462,-2.2100,9.4900,-1.0200,9.7972,0.0960,-0.0087,0.0894,15.88,96.31,53.19,-3.9173,8.6564,-0.3694,9.5087
11,5,1,3,2,19.592,19592,-2.3100,9.3300,-0.6100,9.6310,0.1156,-0.0698,0.0240,14.88,95.50,54.75,-3.7055,8.7451,-0.4011,9.5063
11,5,1,3,2,19.722,19722,-2.1100,9.2300,-0.7000,9.4939,0.0753,-0.1134,0.0120,14.06,94.81,56.44,-3.4953,8.8090,-0.4405,9.4874
11,5,1,3,2,19.852,19852,-2.2700,9.8600,-0.8200,10.1511,-0.0185,-0.1156,-0.1724,14.56,94.88,56.88,-3.3338,8.9475,-0.4905,9.5610
11,5,1,3,2,19.983,19983,-3.5900,9.0300,-0.8300,9.7528,0.0720,-0.0742,-0.4287,16.88,94.88,55.31,-3.3676,8.9584,-0.5353,9.5854
11,5,1,3,2,20.156,20156,-3.2100,9.3100,-0.7500,9.8764,0.0076,-0.0338,0.5029,16.25,94.50,56.44,-3.3468,9.0047,-0.5636,9.6231
11,5,1,3,2,20.287,20287,-1.9500,9.6500,-0.4100,9.8536,-0.0131,0.0185,0.3447,12.63,94.50,60.13,-3.1627,9.0898,-0.5433,9.6396
11,5,1,3,2,20.417,20417,-1.9600,9.4100,-0.7800,9.6436,0.0109,0.0447,-0.1985,12.56,94.44,59.94,-3.0042,9.1320,-0.5745,9.6306
11,5,1,3,2,20.548,20548,-2.0400,7.7200,-0.7000,8.0156,0.0044,0.0665,-0.5760,14.63,94.31,57.44,-2.8772,8.9459,-0.5910,9.4158
11,5,1,3,2,20.679,20679,-3.0500,9.3000,-0.1800,9.7890,-0.0644,0.1047,-0.2945,18.44,94.69,52.88,-2.9000,8.9926,-0.5369,9.4638
11,5,1,3,2,20.809,20809,-3.2200,8.6200,-0.6600,9.2254,0.0371,0.0458,-0.3382,21.06,94.69,49.75,-2.9421,8.9435,-0.5531,9.4312
11,5,1,3,2,20.940,20940,-3.5800,8.3400,-0.2600,9.0796,0.0196,0.0404,-0.2138,23.00,94.50,47.56,-3.0262,8.8639,-0.5145,9.3804
11,5,1,3,2,21.071,21071,-3.1400,7.6400,-0.7300,8.2923,-0.0807,0.0218,-0.1058,24.31,94.44,45.94,-3.0412,8.7027,-0.5429,9.2347
11,5,1,3,2,21.244,21244,-5.2900,9.5000,-1.0100,10.9204,-0.1473,-0.0033,-0.5880,27.75,96.25,41.69,-3.3375,8.8077,-0.6044,9.4382
11,5,1,3,2,21.377,21377,-5.8100,8.8100,-1.7400,10.6958,-0.1124,-0.0349,0.0109,30.44,97.25,38.75,-3.6633,8.8080,-0.7541,9.5692
11,5,1,3,2,21.508,21508,-5.7000,9.3800,-1.5100,11.0795,-0.0742,0.0513,-0.1462,29.94,97.94,38.75,-3.9317,8.8834,-0.8537,9.7520
11,5,1,3,2,21.639,21639,-6.2800,9.6300,-1.6200,11.6103,0.0884,0.0818,0.0175,31.31,97.88,36.94,-4.2412,8.9818,-0.9547,9.9785
11,6,1,3,2,21.769,21769,-5.3200,8.2000,-1.1900,9.8468,0.0567,0.1004,-0.0502,30.88,96.63,37.25,-4.3833,8.8788,-0.9857,9.9508
11,6,1,3,2,21.900,21900,-5.2900,8.4500,-0.7500,9.9975,-0.0175,-0.0098,-0.2847,32.50,96.38,35.31,-4.5028,8.8223,-0.9546,9.9508
11,6,1,3,2,22.031,22031,-5.3800,7.8100,-1.1600,9.5544,-0.0109,-0.1178,-0.0742,33.81,96.94,34.25,-4.6184,8.6889,-0.9817,9.8889
11,6,1,3,2,22.161,22161,-5.7100,8.0300,-0.8900,9.8933,-0.0349,-0.1582,-0.0185,33.69,97.94,35.19,-4.7622,8.6020,-0.9696,9.8800
11,6,1,3,2,22.334,22334,-6.5500,7.7300,-1.7100,10.2752,-0.0349,-0.0687,-0.1625,34.81,99.06,34.69,-4.9978,8.4871,-1.0672,9.9070
11,6,1,3,2,22.464,22464,-5.8800,8.2200,-1.5900,10.2309,-0.0349,0.0164,-0.1091,35.19,99.50,34.25,-5.1141,8.4519,-1.1361,9.9438
11,6,1,3,2,22.594,22594,-6.0500,7.6900,-1.5400,9.9051,0.0033,0.0611,-0.0513,36.06,99.50,33.06,-5.2374,8.3515,-1.1893,9.9294
11,6,1,3,2,22.724,22724,-5.6100,8.0300,-1.4400,9.9008,-0.0207,0.0742,0.0109,36.25,99.31,32.38,-5.2865,8.3092,-1.2223,9.9239
11,6,1,3,2,22.854,22854,-5.7700,7.8100,-1.1400,9.7769,0.0055,0.0469,-0.1844,36.69,99.13,31.56,-5.3502,8.2434,-1.2115,9.9018
11,6,1,3,2,22.984,22984,-6.0900,7.5700,-1.4900,9.8292,-0.0098,-0.0065,-0.1931,38.19,99.25,29.88,-5.4477,8.1546,-1.2482,9.8860
11,6,1,3,2,23.114,23114,-7.5600,8.6300,-1.4600,11.5656,0.0622,-0.0164,-0.0153,38.81,99.25,29.44,-5.7260,8.2173,-1.2761,10.0965
11,6,1,3,2,23.244,23244,-6.8800,8.2600,-1.4100,10.8421,0.0960,0.0142,0.2683,37.75,98.56,30.94,-5.8781,8.2229,-1.2937,10.1903
11,6,1,3,2,23.417,23417,-6.0500,7.7700,-1.0300,9.9013,0.0524,-0.0305,-0.1353,36.75,97.75,32.38,-5.9008,8.1632,-1.2590,10.1510
11,6,1,3,2,23.547,23547,-6.5500,7.0200,-0.7500,9.6304,0.0065,-0.0065,0.0633,36.94,97.88,32.44,-5.9863,8.0126,-1.1919,10.0726
11,6,1,3,2,23.677,23677,-6.2800,8.1500,-0.7800,10.3184,0.0491,0.0218,0.4560,35.00,97.31,34.44,-6.0250,8.0307,-1.1376,10.1038
11,6,1,3,2,23.807,23807,-4.1200,6.8500,-1.2700,8.0938,0.0229,-0.0480,0.5291,30.81,96.75,38.94,-5.7740,7.8751,-1.1551,9.8331
11,6,1,3,2,23.937,23937,-4.2000,7.0100,-0.2300,8.1751,0.0229,0.0164,0.3000,28.06,96.50,41.94,-5.5666,7.7611,-1.0332,9.6067
11,6,1,3,2,24.068,24068,-3.0900,8.0100,-0.8500,8.6273,0.0578,0.0589,0.5672,24.31,95.69,45.56,-5.2402,7.7939,-1.0090,9.4458
11,6,1,3,2,24.198,24198,-3.2100,8.6100,-0.9100,9.2339,0.0240,-0.0676,0.1887,21.75,95.19,48.31,-4.9727,7.9014,-0.9960,9.3890
11,6,1,3,2,24.328,24328,-3.3800,8.8100,-1.1200,9.5024,-0.0360,-0.0764,0.3447,20.00,95.38,50.63,-4.7628,8.0212,-1.0123,9.3834
11,6,1,3,2,24.501,24501,-2.9900,9.3800,-0.8300,9.8799,-0.0425,-0.0862,0.0240,17.50,95.94,53.75,-4.5292,8.2002,-0.9883,9.4199
11,6,1,3,2,24.631,24631,-2.8300,9.5200,-0.9900,9.9810,0.0022,-0.0513,0.2258,16.38,96.19,55.25,-4.3053,8.3741,-0.9885,9.4678
11,6,1,3,2,24.761,24761,-3.1000,9.3700,-1.0500,9.9252,0.0240,-0.0338,-0.0087,15.81,96.19,56.19,-4.1465,8.5054,-0.9966,9.5146
11,6,1,3,2,24.891,24891,-2.3600,8.9400,-1.1200,9.3138,-0.0295,0.0164,0.2127,15.06,96.13,56.94,-3.9111,8.5626,-1.0129,9.4679
11,6,1,3,2,25.021,25021,-1.9400,9.3700,-1.0100,9.6219,-0.1222,0.0011,-0.0698,14.38,96.75,57.44,-3.6513,8.6690,-1.0125,9.4609
11,6,1,3,2,25.151,25151,-2.4200,9.1100,-0.9900,9.4778,-0.0644,0.0142,-0.3578,15.50,97.44,56.13,-3.4891,8.7271,-1.0095,9.4528
11,6,1,3,2,25.282,25282,-3.8500,8.5700,-1.3400,9.4902,-0.0513,0.0829,-0.6141,20.06,98.00,51.06,-3.5366,8.7064,-1.0531,9.4561
11,6,1,3,2,25.413,25413,-2.8700,7.9800,-1.0100,8.5403,0.0175,0.0840,-0.3000,23.06,97.81,47.31,-3.4488,8.6107,-1.0474,9.3346
11,6,1,3,2,25.585,25585,-4.6400,8.9200,-1.4600,10.1601,0.0873,-0.0011,-0.3534,26.63,97.50,43.69,-3.6058,8.6515,-1.1018,9.4373
11,6,1,3,2,25.715,25715,-5.1900,8.5700,-1.3400,10.1082,0.1036,-0.0480,-0.3982,29.19,97.06,41.69,-3.8145,8.6407,-1.1332,9.5130
11,6,1,3,2,25.845,25845,-5.6800,7.7300,-1.2200,9.6697,0.0513,0.0033,-0.4014,31.81,96.81,39.50,-4.0603,8.5207,-1.1446,9.5078
11,6,1,3,2,25.975,25975,-5.9900,7.9300,-1.0000,9.9882,0.0218,0.0447,-0.0927,34.38,96.75,36.88,-4.3146,8.4429,-1.1256,9.5480
11,6,1,3,2,26.105,26105,-6.2700,7.9200,-1.1400,10.1656,-0.0164,0.0742,0.0785,34.69,96.38,36.31,-4.5723,8.3740,-1.1275,9.6073
11,6,1,3,2,26.235,26235,-6.0000,8.2500,-1.1400,10.2646,-0.0698,0.1233,0.0098,35.31,96.63,34.81,-4.7604,8.3576,-1.1291,9.6844
11,6,1,3,2,26.366,26366,-5.5700,8.2300,-0.7800,9.9683,-0.0545,0.1124,-0.0927,35.63,96.38,33.50,-4.8671,8.3408,-1.0831,9.7176
11,6,1,3,2,26.497,26497,-5.9100,8.3100,-0.6500,10.2180,-0.0175,0.0993,-0.2487,36.81,96.06,31.56,-5.0045,8.3368,-1.0260,9.7775
11,6,1,3,2,26.669,26669,-6.4000,7.5800,-0.9100,9.9622,0.0851,0.0153,-0.0502,39.00,95.19,29.31,-5.1884,8.2370,-1.0107,9.7872
11,6,1,3,2,26.800,26800,-6.4900,7.6200,-0.8200,10.0428,0.0044,-0.0240,-0.1658,39.63,95.00,28.81,-5.3599,8.1557,-0.9856,9.8090
11,6,1,3,2,26.930,26930,-6.7900,7.4000,-0.9500,10.0879,0.0262,-0.0687,-0.0774,40.63,95.31,28.19,-5.5484,8.0561,-0.9809,9.8310
11,6,1,3,2,27.060,27060,-6.6200,7.2700,-0.9200,9.8754,0.0087,-0.0774,-0.0273,40.63,95.81,28.63,-5.6896,7.9525,-0.9729,9.8265
11,6,1,3,2,27.190,27190,-7.1200,7.3400,-0.9300,10.2681,0.0120,-0.0742,-0.0785,41.00,96.38,28.63,-5.8781,7.8718,-0.9672,9.8718
11,6,1,3,2,27.320,27320,-6.7500,7.6800,-1.1900,10.2937,-0.0098,-0.0098,0.1854,40.38,96.63,29.44,-5.9930,7.8466,-0.9966,9.9236
11,6,1,3,2,27.450,27450,-6.5300,8.0800,-0.8900,10.4269,-0.0033,0.0065,0.0764,39.69,96.63,30.13,-6.0637,7.8773,-0.9825,9.9893
11,6,1,3,2,27.580,27580,-6.9000,8.5200,-1.0500,11.0138,-0.0153,-0.0098,-0.2400,40.56,96.63,29.19,-6.1739,7.9620,-0.9914,10.1239
11,6,1,3,2,27.753,27753,-7.3300,7.2500,-1.1200,10.3704,-0.0022,-0.0436,-0.1844,43.19,97.13,26.69,-6.3263,7.8682,-1.0084,10.1463
11,6,1,3,2,27.883,27883,-7.5400,7.0100,-0.9900,10.3427,0.0142,-0.0033,0.0207,44.31,97.63,25.69,-6.4862,7.7551,-1.0060,10.1599
11,7,1,3,2,28.013,28013,-6.3800,7.2800,-1.2300,9.7579,0.0600,0.0327,0.2683,43.13,97.06,26.94,-6.4722,7.6925,-1.0355,10.1062
11,7,1,3,2,28.143,28143,-7.0000,6.8700,-0.9100,9.8501,0.1124,0.0175,0.1364,41.81,96.13,28.69,-6.5418,7.5841,-1.0189,10.0674
11,7,1,3,2,28.273,28273,-5.5800,6.5100,-0.4200,8.5845,0.0545,-0.0087,0.5890,39.06,95.31,31.81,-6.4150,7.4426,-0.9400,9.8706
11,7,1,3,2,28.403,28403,-3.9600,6.3900,-0.5500,7.5377,0.0502,-0.0720,0.7330,34.31,94.88,37.06,-6.0915,7.3039,-0.8886,9.5521
11,7,1,3,2,28.533,28533,-4.8500,7.5700,-0.4900,9.0037,0.0142,-0.0894,0.3752,30.75,94.88,41.31,-5.9279,7.3389,-0.8361,9.4710
11,7,1,3,2,28.664,28664,-3.6300,8.3000,-0.8900,9.1027,0.0229,-0.0687,0.6861,25.75,94.81,46.88,-5.6251,7.4656,-0.8432,9.3855
11,7,1,3,2,28.837,28837,-2.8600,9.3000,-0.6300,9.7502,-0.0687,-0.0327,0.3218,20.69,95.25,52.31,-5.2607,7.7073,-0.8151,9.3671
11,7,1,3,2,28.968,28968,-3.7400,9.2700,-0.8100,10.0288,-0.0502,0.0109,-0.0938,21.19,95.69,51.69,-5.0603,7.9132,-0.8144,9.4281
11,7,1,3,2,29.098,29098,-2.8100,9.2200,-1.0000,9.6904,-0.0349,-0.0065,0.1124,20.13,95.94,52.56,-4.7638,8.0854,-0.8389,9.4219
11,7,1,3,2,29.229,29229,-3.5000,9.6400,-1.3800,10.3481,-0.0142,-0.0153,-0.0884,20.50,96.13,52.31,-4.5973,8.2903,-0.9102,9.5232
11,7,1,3,2,29.359,29359,-3.4700,9.2500,-1.3100,9.9659,0.0316,-0.0284,-0.2476,21.31,96.19,51.63,-4.4487,8.4167,-0.9629,9.5687
11,7,1,3,2,29.489,29489,-3.5900,9.1600,-0.9700,9.8861,0.0818,-0.0251,0.1473,21.75,95.88,51.63,-4.3356,8.5147,-0.9638,9.6034
11,7,1,3,2,29.619,29619,-3.4600,9.2000,-0.7500,9.8577,0.0753,0.0076,-0.0654,21.19,95.31,52.44,-4.2202,8.6050,-0.9356,9.6297
11,7,1,3,2,29.749,29749,-3.1300,8.5300,-0.6900,9.1123,0.0611,0.0131,-0.0927,21.94,94.69,51.88,-4.0765,8.5951,-0.9033,9.5556
11,7,1,3,2,29.922,29922,-4.0700,7.2900,-0.6600,8.3752,-0.0480,0.0229,-0.3578,23.50,94.50,50.13,-4.0757,8.4231,-0.8712,9.3978
11,7,1,3,2,30.052,30052,-3.5300,8.0700,0.1800,8.8101,-0.0993,0.0927,-0.0654,24.25,95.00,48.75,-4.0038,8.3766,-0.7327,9.3131
11,7,1,3,2,30.187,30187,-3.6700,8.7100,-0.5600,9.4682,-0.0480,0.1134,-0.3240,26.31,95.19,45.75,-3.9598,8.4205,-0.7099,9.3322
11,7,1,3,2,30.317,30317,-4.5300,8.2900,-1.2200,9.5254,-0.0764,0.0709,-0.6785,29.69,95.50,41.56,-4.0349,8.4033,-0.7771,9.3542
11,7,1,3,2,30.450,30450,-5.4400,8.0100,-0.6000,9.7012,0.0513,0.0709,-0.6130,35.19,95.56,35.50,-4.2201,8.3515,-0.7538,9.3875
11,7,1,3,2,30.580,30580,-6.2200,7.4500,-1.2200,9.7816,-0.0098,-0.0665,-0.3131,38.00,95.75,32.75,-4.4836,8.2327,-0.8152,9.4098
11,7,1,3,2,30.711,30711,-6.8200,7.5100,-0.9300,10.1871,-0.0404,-0.0611,-0.4516,40.69,97.13,30.19,-4.7915,8.1375,-0.8304,9.4798
11,7,1,3,2,30.842,30842,-7.1700,7.3400,-0.8900,10.2993,0.0207,0.0044,-0.1756,43.13,97.63,27.88,-5.1049,8.0324,-0.8382,9.5542
11,7,1,3,2,31.014,31014,-7.0700,7.4100,-1.0700,10.2975,0.0055,0.0076,-0.0447,43.44,97.44,27.56,-5.3639,7.9504,-0.8688,9.6299
11,7,1,3,2,31.144,31144,-6.9200,7.1200,-1.0800,9.9874,-0.0360,0.0295,-0.2509,44.19,97.50,26.69,-5.5689,7.8409,-0.8966,9.6591
11,7,1,3,2,31.274,31274,-7.6500,7.2200,-0.9500,10.5619,0.0011,0.0240,-0.0600,46.06,97.75,24.56,-5.8432,7.7591,-0.9036,9.7552
11,7,1,3,2,31.404,31404,-6.9500,7.1600,-0.9900,10.0274,0.0654,0.0175,0.0556,45.13,97.19,25.56,-5.9890,7.6802,-0.9150,9.7822
11,7,1,3,2,31.534,31534,-6.9200,7.0000,-0.8000,9.8755,0.0960,-0.0153,0.1331,44.56,96.50,26.69,-6.1117,7.5905,-0.8999,9.7867
11,7,1,3,2,31.665,31665,-6.4500,7.1300,-0.6500,9.6365,0.1080,-0.0709,0.1320,43.44,95.94,28.56,-6.1563,7.5299,-0.8669,9.7647
11,7,1,3,2,31.795,31795,-6.8100,7.0800,-0.7600,9.8529,0.0622,-0.0938,0.1058,42.50,95.75,30.50,-6.2424,7.4706,-0.8528,9.7726
11,7,1,3,2,31.925,31925,-6.7500,7.4900,-0.7000,10.1071,0.0251,-0.0644,0.1276,41.50,95.88,32.06,-6.3093,7.4731,-0.8327,9.8157
11,7,1,3,2,32.098,32098,-6.6900,7.7800,-0.8100,10.2927,-0.0098,-0.0196,0.0556,40.56,96.13,33.31,-6.3595,7.5136,-0.8297,9.8785
11,7,1,3,2,32.228,32228,-6.6300,7.8400,-0.9100,10.3078,-0.0327,-0.0109,-0.0513,40.38,96.44,33.38,-6.3951,7.5566,-0.8403,9.9351
11,7,1,3,2,32.358,32358,-7.0200,7.4400,-0.7600,10.2573,0.0044,0.0044,-0.0185,40.88,96.63,32.81,-6.4775,7.5412,-0.8297,9.9758
11,7,1,3,2,32.488,32488,-7.0600,7.3600,-0.7300,10.2248,0.0142,0.0109,0.1484,40.69,96.56,32.94,-6.5542,7.5173,-0.8166,10.0068
11,8,1,3,2,32.618,32618,-6.2000,7.5700,-0.7600,9.8144,0.0764,-0.0033,0.5083,38.25,96.06,35.50,-6.5075,7.5243,-0.8091,9.9809
11,8,1,3,2,32.749,32749,-4.8000,7.4900,-0.8100,8.9329,0.0709,-0.0065,0.7210,34.00,95.31,40.13,-6.2825,7.5198,-0.8092,9.8322
11,8,1,3,2,32.879,32879,-5.0700,7.9300,-0.6700,9.4360,0.0295,-0.0436,0.1963,31.19,95.06,43.13,-6.1228,7.5738,-0.7909,9.7712
11,8,1,3,2,33.009,33009,-4.0600,6.3500,-0.5600,7.5578,-0.0065,-0.0404,0.3872,28.19,94.94,46.56,-5.8509,7.4126,-0.7605,9.4741
11,8,1,3,2,33.182,33182,-2.9500,7.9500,-0.4800,8.4933,0.0065,-0.0218,0.8061,23.25,95.13,51.75,-5.4687,7.4834,-0.7235,9.2968
11,8,1,3,2,33.312,33312,-2.2400,10.2700,-0.9400,10.5534,0.0393,0.0098,0.7396,17.44,94.75,57.69,-5.0432,7.8506,-0.7520,9.3612
11,8,1,3,2,33.442,33442,-2.2700,8.7700,-0.4300,9.0692,0.0262,0.0033,-0.6970,16.88,94.44,58.19,-4.6778,7.9717,-0.7096,9.2700
11,8,1,3,2,33.572,33572,-2.4000,9.5100,-0.4100,9.8167,0.0011,0.0153,0.5869,17.38,94.31,57.69,-4.3776,8.1744,-0.6701,9.2970
11,8,1,3,2,33.702,33702,-3.6600,9.7300,-1.0000,10.4436,-0.1102,0.0480,-0.2236,16.94,94.50,58.00,-4.2831,8.3794,-0.7136,9.4376
11,8,1,3,2,33.832,33832,-2.8000,9.2300,-0.4000,9.6536,-0.0142,0.0371,0.0949,17.06,94.69,57.69,-4.0876,8.4915,-0.6723,9.4481
11,8,1,3,2,33.964,33964,-2.4800,9.7700,-0.9000,10.1199,-0.0207,0.0502,0.0240,16.31,94.88,58.06,-3.8758,8.6600,-0.7023,9.5137
11,8,1,3,2,34.094,34094,-2.5800,9.4300,-0.7400,9.8045,0.0240,0.0654,-0.0960,16.69,94.75,57.25,-3.7050,8.7615,-0.7072,9.5389
11,8,1,3,2,34.268,34268,-2.5100,9.8000,-0.7100,10.1412,0.0295,0.0087,-0.0098,17.00,94.50,56.69,-3.5476,8.8983,-0.7076,9.6055
11,8,1,3,2,34.399,34399,-2.8500,9.9100,-0.5700,10.3274,0.1734,-0.0164,-0.0742,17.19,93.75,56.81,-3.4556,9.0316,-0.6895,9.6947
11,8,1,3,2,34.530,34530,-2.6300,9.0100,-0.5600,9.4027,0.2356,-0.0796,-0.1451,17.63,92.13,57.25,-3.3468,9.0288,-0.6724,9.6526
11,8,1,3,2,34.665,34665,-2.6700,8.6600,0.0800,9.0626,0.1440,-0.0818,-0.0720,18.63,91.00,57.25,-3.2576,8.9802,-0.5733,9.5700
11,8,1,3,2,34.796,34796,-3.0200,6.7100,0.4100,7.3697,-0.0087,-0.0774,-0.5552,20.75,90.63,55.88,-3.2263,8.6810,-0.4437,9.2718
11,8,1,3,2,34.927,34927,-4.7800,8.2800,0.0500,9.5608,-0.2793,-0.0633,-0.3109,24.44,92.25,52.25,-3.4311,8.6282,-0.3786,9.2931
11,8,1,3,2,35.057,35057,-3.8300,8.4700,-0.1600,9.2971,-0.2662,0.0175,-0.1658,24.50,94.25,51.31,-3.4836,8.6073,-0.3498,9.2922
11,8,1,3,2,35.187,35187,-4.4700,8.6800,-1.0500,9.8197,-0.3131,-0.0807,-0.6261,27.94,96.69,47.13,-3.6136,8.6169,-0.4421,9.3544
11,8,1,3,2,35.360,35360,-5.8600,8.4500,-1.4600,10.3862,-0.0524,-0.0055,-0.2760,32.19,98.88,42.25,-3.9096,8.5949,-0.5762,9.4599
11,8,1,3,2,35.491,35491,-5.6200,8.0300,-1.3800,9.8980,-0.0840,0.0524,-0.1745,32.94,99.25,41.13,-4.1350,8.5205,-0.6821,9.4954
11,8,1,3,2,35.621,35621,-5.8500,8.1600,-1.5000,10.1518,-0.0545,0.0938,-0.2313,35.31,99.69,37.88,-4.3610,8.4730,-0.7899,9.5621
11,8,1,3,2,35.751,35751,-6.0300,7.8100,-1.3800,9.9630,-0.0120,0.1233,0.0633,36.44,99.56,36.06,-4.5809,8.3856,-0.8677,9.5946
11,8,1,3,2,35.881,35881,-6.1100,7.7900,-1.3300,9.9892,-0.0916,0.1222,-0.0218,36.94,99.38,34.56,-4.7824,8.3071,-0.9286,9.6303
11,8,1,3,2,36.011,36011,-5.7200,8.1600,-1.0500,10.0203,-0.0829,0.0578,-0.0873,37.63,99.75,32.81,-4.9060,8.2877,-0.9446,9.6772
11,8,1,3,2,36.141,36141,-6.5100,7.8400,-1.5300,10.3047,0.0109,-0.0447,-0.0654,38.19,100.06,32.13,-5.1173,8.2287,-1.0217,9.7439
11,8,1,3,2,36.271,36271,-5.7500,8.2800,-1.2600,10.1592,0.0360,-0.0556,-0.0469,38.00,100.19,32.69,-5.2007,8.2355,-1.0531,9.7969
11,8,1,3,2,36.444,36444,-6.3700,7.4700,-1.2800,9.9003,0.1145,-0.1058,-0.0567,38.44,100.06,33.56,-5.3548,8.1346,-1.0830,9.7989
11,8,1,3,2,36.574,36574,-6.4300,7.3600,-1.2400,9.8515,0.0436,-0.0556,0.0665,38.50,99.88,34.31,-5.4965,8.0325,-1.1037,9.7955
11,8,1,3,2,36.704,36704,-6.3900,7.9600,-1.3300,10.2938,0.0065,-0.0131,-0.1974,38.94,99.94,34.13,-5.6142,8.0230,-1.1335,9.8576
11,8,1,3,2,36.834,36834,-6.6700,8.0900,-1.5000,10.5918,-0.0065,-0.0458,-0.1145,39.75,100.38,33.50,-5.7533,8.0318,-1.1818,9.9503
11,9,1,3,2,36.964,36964,-7.0400,7.0400,-1.4800,10.0655,-0.0371,0.0316,-0.2967,41.13,100.69,32.13,-5.9229,7.9011,-1.2211,9.9498
11,9,1,3,2,37.094,37094,-6.7600,6.5000,-1.4500,9.4895,-0.0382,0.0316,-0.2389,42.69,101.06,30.06,-6.0332,7.7165,-1.2513,9.8747
11,9,1,3,2,37.225,37225,-6.4700,7.4400,-1.6900,10.0035,0.0033,-0.0033,0.2563,41.75,100.94,30.88,-6.0908,7.6801,-1.3091,9.8891
11,9,1,3,2,37.355,37355,-6.4700,7.9600,-1.5400,10.3728,0.0654,0.0033,0.3905,39.44,100.31,33.44,-6.1407,7.7169,-1.3395,9.9526
11,9,1,3,2,37.528,37528,-6.1400,8.1000,-1.2800,10.2444,0.1451,0.0360,0.3578,36.38,98.63,37.13,-6.1406,7.7674,-1.3317,9.9907
11,9,1,3,2,37.658,37658,-5.0000,7.8100,-0.7500,9.3037,0.1680,0.0382,0.5978,32.50,96.94,41.56,-5.9903,7.7730,-1.2550,9.8934
11,9,1,3,2,37.788,37788,-4.3100,7.1200,-0.6400,8.3475,0.1298,0.0425,0.4320,29.38,95.63,45.06,-5.7689,7.6870,-1.1740,9.6824
11,9,1,3,2,37.918,37918,-2.8500,6.6900,-0.4200,7.2839,0.1320,0.0164,0.2978,26.88,94.56,47.81,-5.3843,7.5556,-1.0746,9.3398
11,9,1,3,2,38.048,38048,-2.5700,8.5000,-0.4700,8.8925,0.0774,-0.0305,0.7450,22.94,93.75,52.13,-5.0134,7.6800,-0.9950,9.2254
11,9,1,3,2,38.178,38178,-2.9000,9.2400,-0.6500,9.7062,0.0175,-0.0785,0.0862,19.75,93.75,55.88,-4.7349,7.8856,-0.9495,9.2468
11,9,1,3,2,38.309,38309,-3.5100,9.0100,-0.2000,9.6716,0.0611,-0.0120,-0.0851,19.88,93.63,56.13,-4.5735,8.0338,-0.8507,9.2834
11,9,1,3,2,38.440,38440,-3.1900,9.0700,-0.4800,9.6266,0.0175,0.0000,0.1844,19.38,93.25,56.75,-4.3912,8.1703,-0.8019,9.3102
11,9,1,3,2,38.612,38612,-3.2100,9.2400,-0.4600,9.7925,-0.0654,0.0153,0.0175,18.56,93.50,57.50,-4.2355,8.3113,-0.7568,9.3590
11,9,1,3,2,38.742,38742,-3.3500,9.3300,-0.5200,9.9268,-0.0513,0.0404,0.0665,18.88,93.81,56.88,-4.1189,8.4455,-0.7256,9.4243
11,9,1,3,2,38.872,38872,-2.5100,9.3600,-0.6500,9.7125,-0.0142,0.0327,0.2040,17.19,93.88,58.19,-3.9068,8.5660,-0.7157,9.4421
11,9,1,3,2,39.002,39002,-2.6100,9.5000,-0.6200,9.8715,-0.0022,0.0284,-0.1822,16.88,93.94,58.31,-3.7360,8.6891,-0.7030,9.4843
11,9,1,3,2,39.132,39132,-2.4600,9.2600,-0.4900,9.5937,0.0393,0.0425,-0.0884,17.88,93.75,57.13,-3.5678,8.7643,-0.6750,9.4867
11,9,1,3,2,39.262,39262,-2.2700,8.7800,-0.5000,9.0825,0.0524,-0.0065,-0.1691,18.25,93.13,56.81,-3.3968,8.7664,-0.6519,9.4241
11,9,1,3,2,39.393,39393,-2.2600,7.6400,-0.2200,7.9703,0.0022,-0.0502,-0.6600,20.69,93.06,54.63,-3.2470,8.6180,-0.5950,9.2286
11,9,1,3,2,39.523,39523,-5.2000,6.9200,0.0300,8.6561,-0.0676,-0.0164,-0.8727,26.81,93.63,48.69,-3.5044,8.3942,-0.5126,9.1108
11,9,1,3,2,39.696,39696,-4.3300,8.2100,-1.0700,9.3433,-0.1342,-0.0305,0.1593,29.38,94.38,45.63,-3.6132,8.3699,-0.5861,9.1353
11,9,1,3,2,39.826,39826,-5.6700,8.2200,-0.9500,10.0309,-0.1244,-0.0676,-0.5978,31.25,95.75,43.63,-3.8842,8.3502,-0.6340,9.2312
11,9,1,3,2,39.956,39956,-5.9800,8.1200,-1.1400,10.1486,-0.0491,0.0327,0.1091,33.13,96.69,41.50,-4.1604,8.3199,-0.7007,9.3284
11,9,1,3,2,40.086,40086,-5.1300,7.2200,-0.9500,8.9077,-0.1167,0.1189,-0.0905,33.00,96.69,40.75,-4.2881,8.1749,-0.7336,9.2604
11,9,1,3,2,40.216,40216,-4.9900,7.9100,-1.0600,9.4123,-0.1658,0.0404,-0.3185,34.50,97.56,38.13,-4.3806,8.1400,-0.7766,9.2765
11,9,1,3,2,40.346,40346,-6.9700,7.9500,-1.5800,10.6902,-0.0818,0.0742,-0.6392,38.69,98.75,33.00,-4.7218,8.1150,-0.8825,9.4301
11,9,1,3,2,40.476,40476,-7.2000,7.7900,-1.1300,10.6678,0.0295,0.1298,-0.0927,41.38,98.56,29.50,-5.0484,8.0721,-0.9151,9.5647
11,9,1,3,2,40.607,40607,-6.8400,7.2400,-0.9800,10.0082,0.0087,0.0862,-0.0753,41.88,97.69,28.63,-5.2845,7.9625,-0.9236,9.6010
11,9,1,3,2,40.780,40780,-6.9700,7.0600,-0.9400,9.9653,0.0633,-0.0087,0.0153,42.56,97.25,27.94,-5.5066,7.8436,-0.9258,9.6281
11,9,1,3,2,40.911,40911,-6.8400,7.1000,-0.9900,9.9084,0.0480,-0.0415,-0.0196,42.44,97.13,28.50,-5.6823,7.7456,-0.9342,9.6517
11,9,1,3,2,41.041,41041,-7.2700,7.1000,-0.9900,10.2099,0.0676,-0.0513,0.0120,42.50,97.13,28.94,-5.8915,7.6605,-0.9416,9.7098
11,9,1,3,2,41.171,41171,-6.3000,7.1100,-1.0200,9.5542,0.0044,-0.0371,0.1745,41.50,97.00,30.31,-5.9453,7.5880,-0.9519,9.6866
11,9,1,3,2,41.302,41302,-6.7800,7.1400,-0.8900,9.8864,-0.0545,-0.0207,-0.4200,42.25,97.44,29.56,-6.0553,7.5289,-0.9438,9.7079
11,9,1,3,2,41.432,41432,-6.8800,7.3500,-1.1500,10.1331,-0.0349,-0.0458,0.0982,43.69,98.19,28.06,-6.1640,7.5054,-0.9709,9.7605
11,9,1,3,2,41.563,41563,-7.6100,7.2100,-1.1800,10.5493,-0.0360,-0.0218,-0.1811,44.44,98.81,27.25,-6.3545,7.4664,-0.9985,9.8552
11,9,1,3,2,41.693,41693,-7.5600,7.1000,-1.2100,10.4416,0.0273,0.0338,0.0196,44.94,98.94,26.69,-6.5134,7.4182,-1.0264,9.9251
11,9,1,3,2,41.866,41866,-7.4700,7.4400,-0.9300,10.5839,0.0447,0.0753,0.2203,44.25,97.88,27.31,-6.6395,7.4210,-1.0137,10.0091
11,9,1,3,2,42.001,42001,-7.0000,7.9100,-1.3500,10.6485,0.0480,0.0316,0.4309,42.31,96.94,29.25,-6.6870,7.4855,-1.0580,10.0929
11,10,1,3,2,42.132,42132,-5.2700,6.9100,-0.5200,8.7058,0.1505,-0.1200,0.6436,37.88,96.13,34.56,-6.5002,7.4096,-0.9871,9.9061
11,10,1,3,2,42.262,42262,-4.9300,6.4200,-0.4700,8.1082,0.0131,-0.0993,0.5149,33.06,95.56,40.56,-6.2933,7.2792,-0.9190,9.6663
11,10,1,3,2,42.394,42394,-4.5000,7.0900,-1.1300,8.4732,-0.0851,-0.0578,0.2291,30.19,96.13,43.63,-6.0570,7.2543,-0.9468,9.4978
11,10,1,3,2,42.524,42524,-4.2000,7.1600,-0.0300,8.3010,0.0153,-0.0567,0.2913,28.06,96.44,46.06,-5.8123,7.2419,-0.8260,9.3225
11,10,1,3,2,42.654,42654,-2.8100,8.8300,-1.1600,9.3387,0.0436,0.0316,0.7963,23.00,96.06,51.25,-5.4167,7.4511,-0.8700,9.2529
11,10,1,3,2,42.784,42784,-4.3800,8.9500,-1.4300,10.0664,-0.0044,-0.0240,-0.0971,23.25,95.88,51.00,-5.2801,7.6487,-0.9438,9.3419
11,10,1,3,2,42.957,42957,-3.6500,8.9800,-0.6700,9.7166,0.0262,0.0000,-0.0044,21.38,95.69,53.06,-5.0653,7.8241,-0.9077,9.3647
11,10,1,3,2,43.087,43087,-3.1300,9.2500,-0.8600,9.8030,0.0611,0.0109,0.5061,19.94,95.25,54.56,-4.8102,8.0120,-0.9014,9.3884
11,10,1,3,2,43.217,43217,-2.6400,9.5400,-0.6400,9.9192,0.0698,-0.0098,0.2967,17.06,94.63,57.63,-4.5243,8.2133,-0.8670,9.4170
11,10,1,3,2,43.347,43347,-2.3800,9.0700,-0.7000,9.4032,0.0436,-0.0295,0.0033,15.75,94.13,59.19,-4.2417,8.3262,-0.8450,9.3825
11,10,1,3,2,43.477,43477,-2.4000,9.1900,-0.4700,9.5098,-0.0109,-0.0360,0.0491,15.63,94.06,59.63,-3.9990,8.4400,-0.7956,9.3733
11,10,1,3,2,43.608,43608,-2.3900,9.5200,-0.5400,9.8303,-0.0513,-0.0513,-0.2062,15.94,94.31,59.50,-3.7870,8.5824,-0.7619,9.4116
11,10,1,3,2,43.738,43738,-2.7100,9.1500,-0.5100,9.5565,-0.0316,-0.0251,-0.2367,17.38,94.69,58.25,-3.6451,8.6572,-0.7287,9.4215
11,10,1,3,2,43.868,43868,-3.0000,9.1600,-0.4700,9.6502,-0.0207,-0.0120,-0.3436,19.38,94.81,56.31,-3.5601,8.7234,-0.6946,9.4475
11,10,1,3,2,44.041,44041,-3.2700,7.3800,-0.5800,8.0928,-0.0687,0.0153,-0.8061,24.19,95.31,51.31,-3.5218,8.5464,-0.6795,9.2685
11,10,1,3,2,44.172,44172,-5.6000,7.2900,-0.9000,9.2366,-0.1254,-0.0545,-1.0352,31.56,96.56,43.69,-3.7957,8.3808,-0.7086,9.2275
11,10,1,3,2,44.302,44302,-5.0800,7.5800,-1.2400,9.2087,-0.0513,-0.0316,0.2138,34.31,97.63,40.75,-3.9649,8.2753,-0.7786,9.2091
11,10,1,3,2,44.433,44433,-4.9000,7.8000,-1.4500,9.3248,-0.0731,-0.0491,-0.2334,33.75,98.44,41.31,-4.0881,8.2127,-0.8671,9.2148
11,10,1,3,2,44.563,44563,-6.0300,6.9300,-1.5400,9.3144,-0.0447,0.0207,-0.4996,37.06,99.50,37.69,-4.3440,8.0436,-0.9557,9.1915
11,10,1,3,2,44.693,44693,-6.6900,7.2700,-1.2400,9.9572,0.0065,0.0262,-0.0458,39.56,99.81,34.88,-4.6532,7.9417,-0.9932,9.2579
11,10,1,3,2,44.823,44823,-6.5400,7.3200,-1.4600,9.9240,-0.0578,0.0284,-0.0753,40.44,100.13,33.63,-4.9018,7.8598,-1.0547,9.3229
11,10,1,3,2,44.953,44953,-7.0300,7.4000,-1.3400,10.2945,-0.0480,0.0371,-0.1571,41.69,100.69,31.88,-5.1822,7.7992,-1.0923,9.4274
11,10,1,3,2,45.126,45126,-6.5000,7.2700,-1.2700,9.8344,-0.0273,0.0556,0.0665,41.69,100.44,31.19,-5.3559,7.7295,-1.1157,9.4697
11,10,1,3,2,45.256,45256,-6.6000,7.2400,-1.2300,9.8737,-0.0087,0.0360,0.0153,41.25,100.25,31.31,-5.5198,7.6650,-1.1308,9.5131
11,10,1,3,2,45.387,45387,-6.6800,7.4800,-1.4500,10.1329,0.0011,0.0065,0.0251,41.00,100.13,31.50,-5.6727,7.6406,-1.1728,9.5882
11,10,1,3,2,45.517,45517,-6.7600,7.4500,-1.4300,10.1610,0.0316,-0.0076,-0.0142,41.25,100.13,31.31,-5.8160,7.6155,-1.2067,9.6580
11,10,1,3,2,45.647,45647,-6.4800,7.6100,-1.4900,10.1056,0.0687,-0.0229,0.1156,40.88,99.75,32.06,-5.9035,7.6147,-1.2441,9.7151
11,10,1,3,2,45.778,45778,-6.4800,7.3600,-1.3100,9.8932,0.0709,-0.0229,-0.0251,40.63,99.31,32.81,-5.9795,7.5812,-1.2527,9.7364
11,10,1,3,2,45.908,45908,-6.3600,7.3600,-1.3100,9.8151,0.0284,-0.0098,0.0022,40.50,99.00,33.31,-6.0296,7.5520,-1.2603,9.7457
11,10,1,3,2,46.039,46039,-6.1000,6.8800,-1.0800,9.2580,-0.0295,-0.0360,-0.2182,41.50,99.38,32.38,-6.0389,7.4635,-1.2365,9.6799
11,10,1,3,2,46.216,46216,-6.5400,7.3300,-1.3200,9.9118,-0.0109,-0.0469,0.0142,41.81,99.94,32.25,-6.1049,7.4459,-1.2475,9.7092
11,10,1,3,2,46.347,46347,-7.0300,7.6600,-1.5100,10.5060,0.0000,0.0033,-0.1745,42.69,100.25,31.44,-6.2268,7.4741,-1.2821,9.8122
11,10,1,3,2,46.477,46477,-7.9700,7.9000,-1.3000,11.2969,0.0273,0.0654,-0.1724,44.13,100.31,29.88,-6.4565,7.5302,-1.2845,10.0020
11,10,1,3,2,46.608,46608,-7.7400,7.0300,-1.4000,10.5493,0.0131,0.1156,-0.0349,45.00,99.63,28.69,-6.6257,7.4643,-1.2997,10.0650
11,10,1,3,2,46.738,46738,-7.4700,6.8600,-1.0600,10.1973,0.0393,0.1047,0.1604,45.06,98.75,28.19,-6.7369,7.3847,-1.2681,10.0761
11,10,1,3,2,46.869,46869,-6.1800,6.5900,-0.7200,9.0631,0.0709,0.0513,0.5389,42.25,97.38,31.00,-6.6635,7.2800,-1.1959,9.9414
11,10,1,3,2,47.000,47000,-6.0300,7.1700,-0.8800,9.4098,-0.0175,-0.0349,0.3109,39.25,96.88,34.06,-6.5800,7.2655,-1.1543,9.8700
11,10,1,3,2,47.130,47130,-5.2900,6.7500,-1.0800,8.6437,0.0425,-0.0338,0.3665,36.25,96.69,37.38,-6.4101,7.1975,-1.1445,9.7058
11,10,1,3,2,47.303,47303,-4.2300,7.5200,-0.1300,8.6290,0.1374,0.0262,0.6490,30.94,95.75,43.25,-6.1228,7.2400,-1.0108,9.5356
11,10,1,3,2,47.434,47434,-3.9500,8.3100,-0.5700,9.2186,0.1691,-0.0251,0.3883,27.19,94.31,47.56,-5.8365,7.3810,-0.9527,9.4579
11,10,1,3,2,47.564,47564,-3.5900,8.3500,-1.1500,9.1615,0.2051,-0.0578,0.4483,24.25,93.06,51.50,-5.5404,7.5087,-0.9787,9.3827
