participant,rep,equipment_code,exercise_code,quality_code,timestamp,timestamp_ms,accelX,accelY,accelZ,accelMag,gyroX,gyroY,gyroZ,roll,pitch,yaw,filteredX,filteredY,filteredZ,filteredMag
1,1,0,1,1,00.000,0,-0.3400,1.5400,-9.3900,9.5215,0.2378,0.0458,0.2127,0.81,171.56,132.75,0.1589,2.4238,-7.6399,8.0167
1,1,0,1,1,00.131,131,0.7900,1.2400,-9.1200,9.2378,0.1604,0.1691,0.3229,1.25,169.81,130.50,0.2421,2.2678,-7.8349,8.1601
1,1,0,1,1,00.262,262,0.7100,1.4700,-9.1100,9.2551,-0.0785,0.0415,0.0840,0.38,170.06,128.88,0.3037,2.1627,-8.0030,8.2956
1,1,0,1,1,00.392,392,0.0200,1.6700,-9.4900,9.6358,-0.1222,-0.0578,0.0120,-0.50,170.75,128.63,0.2663,2.0978,-8.1989,8.4672
1,1,0,1,1,00.523,523,-0.3300,1.3800,-10.0600,10.1596,0.0076,-0.0142,-0.0774,-0.75,170.88,129.25,0.1878,2.0032,-8.4442,8.6805
1,1,0,1,1,00.699,699,-0.3000,1.5400,-9.4100,9.5399,0.3796,0.0360,-0.1025,0.13,169.31,130.31,0.1235,1.9421,-8.5714,8.7896
1,1,0,1,1,00.830,830,-0.6800,1.5600,-9.4000,9.5528,-0.0862,-0.0796,-0.0829,0.06,168.56,130.88,0.0176,1.8918,-8.6806,8.8844
1,1,0,1,1,00.961,961,-0.8200,2.2000,-10.8000,11.0523,-0.1025,0.3294,0.0393,0.75,169.88,130.50,-0.0928,1.9324,-8.9599,9.1664
1,1,0,1,1,01.091,1091,0.0000,2.4600,-10.7000,10.9791,0.4854,-0.1244,0.0316,2.38,167.88,130.00,-0.0805,2.0019,-9.1892,9.4051
1,1,0,1,1,01.221,1221,-0.3500,2.8600,-9.6900,10.1093,0.7843,-0.4865,-0.1876,-0.44,163.56,130.81,-0.1160,2.1150,-9.2552,9.4945
1,1,0,1,1,01.367,1367,-0.0400,2.8200,-8.0900,8.5675,0.7690,0.0338,-0.1844,-1.50,157.19,132.38,-0.1060,2.2079,-9.1016,9.3662
1,1,0,1,1,01.502,1502,0.3300,3.6300,-8.2200,8.9919,0.5989,0.0305,-0.1963,-0.44,152.81,133.19,-0.0486,2.3953,-8.9855,9.2994
1,1,0,1,1,01.633,1633,-0.6100,5.1800,-8.5000,9.9727,0.2018,-0.0185,-0.4680,-0.69,150.13,134.88,-0.1226,2.7622,-8.9215,9.3401
1,1,0,1,1,01.805,1805,0.3000,4.4400,-7.4500,8.6779,0.3676,-0.2978,-0.0818,-2.31,144.19,135.25,-0.0669,2.9833,-8.7276,9.2236
1,1,0,1,1,01.935,1935,0.3800,6.9500,-7.7900,10.4466,0.0927,-0.0153,0.0000,-2.31,144.31,136.06,-0.0080,3.5060,-8.6040,9.2910
1,1,0,1,1,02.065,2065,0.2800,4.8900,-7.3600,8.8408,0.5443,-0.2913,-0.0676,-4.06,140.06,136.81,0.0300,3.6884,-8.4401,9.2109
1,1,0,1,1,02.195,2195,0.4200,5.9400,-6.6600,8.9340,-0.1604,-0.0502,0.0982,-4.25,139.75,136.81,0.0814,3.9851,-8.2055,9.1224
1,1,0,1,1,02.325,2325,0.6500,5.3900,-6.3400,8.3469,0.0011,0.1494,0.0044,-4.06,139.50,136.56,0.1563,4.1702,-7.9597,8.9873
1,1,0,1,1,02.455,2455,0.6700,5.6000,-6.7800,8.8191,-0.3600,0.1156,0.0796,-3.13,141.19,136.19,0.2240,4.3586,-7.8043,8.9417
1,1,0,1,1,02.586,2586,0.4400,5.8800,-8.5500,10.3861,-0.5967,-0.0425,-0.1014,-3.38,145.19,135.94,0.2525,4.5591,-7.9025,9.1268
1,1,0,1,1,02.716,2716,0.2500,5.0500,-8.4400,9.8386,-0.3894,-0.1669,0.1887,-4.00,148.19,136.00,0.2521,4.6238,-7.9733,9.2205
1,1,0,1,1,02.889,2889,-0.4400,3.7000,-7.9800,8.8070,-0.5541,0.4734,-0.0524,-5.56,152.38,135.63,0.1609,4.5021,-7.9742,9.1588
1,1,0,1,1,03.020,3020,1.8200,4.4700,-8.9800,10.1948,-0.8039,0.0164,0.1833,-3.13,158.13,134.25,0.3795,4.4978,-8.1068,9.2787
1,1,0,1,1,03.150,3150,0.3600,3.3900,-10.6300,11.1633,-0.3872,-0.2073,0.0502,-5.19,161.38,134.00,0.3770,4.3519,-8.4393,9.5027
1,1,0,1,1,03.281,3281,0.7100,3.8200,-9.0300,9.8304,0.7865,0.2782,-0.1636,-4.25,160.56,134.63,0.4209,4.2818,-8.5171,9.5421
1,1,0,1,1,03.411,3411,0.4100,1.8200,-8.2600,8.4681,-0.1080,-0.0415,0.0480,-3.44,156.31,134.56,0.4194,3.9574,-8.4832,9.3703
1,1,0,1,1,03.542,3542,0.7300,3.3200,-8.6100,9.2567,-0.6109,-0.1265,0.0807,-4.06,160.44,134.75,0.4604,3.8734,-8.4999,9.3522
1,1,0,1,1,03.673,3673,0.5600,2.9400,-9.9000,10.3425,-0.5563,-0.2400,0.0207,-6.00,164.31,134.38,0.4735,3.7504,-8.6844,9.4715
1,1,0,1,1,03.803,3803,1.1500,3.1200,-10.1500,10.6808,0.0469,-0.0916,0.1004,-6.69,167.13,134.06,0.5626,3.6673,-8.8775,9.6217
1,2,0,1,1,03.976,3976,2.0500,0.5200,-8.7000,8.9534,-0.2182,-0.0916,0.0524,-7.25,164.88,133.94,0.7586,3.2526,-8.8542,9.4631
1,2,0,1,1,04.110,4110,1.0000,3.2200,-9.2800,9.8735,-0.3872,-0.4778,0.0502,-10.56,169.69,134.13,0.7904,3.2483,-8.9103,9.5168
1,2,0,1,1,04.241,4241,1.2100,1.4900,-9.4500,9.6430,0.0316,0.6010,-0.1625,-8.81,169.38,134.94,0.8457,3.0166,-8.9814,9.5121
1,2,0,1,1,04.372,4372,1.0200,2.0400,-10.3000,10.5495,-0.2302,0.0218,0.0109,-7.06,170.19,134.88,0.8687,2.8879,-9.1551,9.6391
1,2,0,1,1,04.502,4502,1.2400,2.1800,-9.5100,9.8351,0.6294,0.1374,0.0654,-5.81,169.06,135.19,0.9176,2.7946,-9.2019,9.6606
1,2,0,1,1,04.632,4632,0.5800,1.2800,-9.1200,9.2276,0.1429,-0.1102,0.1331,-6.31,165.88,133.94,0.8731,2.5950,-9.1911,9.5903
1,2,0,1,1,04.763,4763,0.7500,4.1900,-10.2300,11.0802,0.1025,0.2454,-0.0404,-5.31,167.19,134.25,0.8569,2.8052,-9.3280,9.7783
1,2,0,1,1,04.893,4893,1.3000,1.9000,-9.2500,9.5322,0.8618,-0.2018,-0.0218,-5.31,162.13,133.88,0.9153,2.6859,-9.3177,9.7402
1,2,0,1,1,05.066,5066,1.3800,4.3200,-8.5500,9.6783,0.2563,-0.4527,-0.2476,-7.69,159.50,136.56,0.9765,2.9013,-9.2166,9.7116
1,2,0,1,1,05.197,5197,0.0100,3.1400,-7.9100,8.5105,0.2553,0.0567,-0.3665,-8.63,155.44,138.06,0.8492,2.9327,-9.0444,9.5458
1,2,0,1,1,05.328,5328,0.0700,4.9800,-8.9200,10.2162,0.0862,0.5607,-0.0436,-5.81,155.94,138.81,0.7465,3.2025,-9.0280,9.6082
1,2,0,1,1,05.458,5458,0.8400,4.2900,-8.9600,9.9695,0.4931,0.3567,0.0567,-2.63,152.75,137.38,0.7588,3.3458,-9.0190,9.6495
1,2,0,1,1,05.589,5589,0.4600,6.1700,-8.6300,10.6187,0.8443,0.0644,0.1418,-3.31,148.88,135.50,0.7194,3.7180,-8.9678,9.7346
1,2,0,1,1,05.719,5719,1.3400,3.5700,-6.9800,7.9537,0.7843,0.3120,-0.0273,-1.56,140.69,133.81,0.8012,3.6985,-8.7058,9.4927
1,2,0,1,1,05.854,5854,0.6000,5.2400,-7.3100,9.0141,-0.9327,-0.6196,-0.2585,-3.50,142.69,134.69,0.7747,3.9016,-8.5219,9.4045
1,2,0,1,1,05.985,5985,0.2400,6.6800,-8.7200,10.9872,-0.5312,-0.3382,-0.2891,-5.13,149.19,138.06,0.7042,4.2677,-8.5480,9.5801
1,2,0,1,1,06.158,6158,-0.0500,5.4700,-9.3100,10.7981,0.1974,0.0000,0.2738,-6.00,148.06,139.69,0.6048,4.4261,-8.6484,9.7341
1,2,0,1,1,06.288,6288,0.4800,5.5400,-7.3700,9.2325,0.6109,0.6403,-0.0207,-3.38,144.75,138.81,0.5884,4.5729,-8.4800,9.6523
1,2,0,1,1,06.418,6418,1.3700,7.4000,-7.2700,10.4637,1.1748,-0.2389,0.6480,-2.88,140.19,136.56,0.6914,4.9455,-8.3205,9.7039
1,2,0,1,1,06.548,6548,0.4700,2.7700,-4.1000,4.9703,0.2487,-0.3458,0.1440,-5.88,130.19,331.25,0.6622,4.6588,-7.7644,9.0790
1,3,0,1,1,06.679,6679,1.1800,7.4900,-7.5400,10.6932,-1.7388,-0.1429,-0.2825,-7.31,140.50,137.06,0.7304,5.0319,-7.7348,9.2564
1,3,0,1,1,06.809,6809,0.8500,6.2500,-8.2600,10.3929,-0.1047,-0.2640,-0.3436,-7.75,146.25,139.88,0.7462,5.1924,-7.8040,9.4032
1,3,0,1,1,06.939,6939,0.0600,3.9600,-7.2600,8.2700,-0.0305,-0.0262,-0.0567,-7.63,145.75,141.81,0.6558,5.0300,-7.7323,9.2477
1,3,0,1,1,07.070,7070,0.7300,4.4100,-7.7700,8.9640,-1.0636,0.3076,0.2334,-6.19,151.25,141.13,0.6656,4.9483,-7.7373,9.2084
1,3,0,1,1,07.243,7243,-0.2300,4.0300,-9.6500,10.4602,-0.0556,0.6250,0.4091,-5.06,158.44,136.13,0.5475,4.8273,-7.9893,9.3505
1,3,0,1,1,07.373,7373,0.9500,3.9400,-9.2600,10.1081,-0.0273,0.7985,0.3403,0.56,159.31,132.69,0.6006,4.7104,-8.1568,9.4383
1,3,0,1,1,07.504,7504,0.2900,1.4000,-9.1100,9.2215,-0.3862,-0.2171,0.0785,0.94,158.81,130.75,0.5597,4.2741,-8.2824,9.3370
1,3,0,1,1,07.635,7635,0.5200,4.0200,-9.7200,10.5313,-0.8367,-0.5029,-0.1691,-1.56,166.19,131.69,0.5544,4.2407,-8.4718,9.4901
1,3,0,1,1,07.765,7765,0.2800,1.5700,-9.5400,9.6724,-0.0971,-0.1800,-0.2345,-3.75,167.31,133.75,0.5183,3.8887,-8.6126,9.4640
1,3,0,1,1,07.896,7896,0.4700,4.3500,-10.0100,10.9244,-0.1582,0.1647,-0.3425,-3.19,170.00,135.63,0.5119,3.9495,-8.7967,9.6562
1,3,0,1,1,08.026,8026,0.4300,0.0800,-8.6400,8.6511,0.7723,-0.1091,-0.0807,-2.31,164.94,136.56,0.5011,3.4396,-8.7761,9.4394
1,3,0,1,1,08.162,8162,-0.2600,1.9900,-8.7900,9.0162,-0.9381,-0.2542,0.0033,-4.69,167.00,137.00,0.4008,3.2486,-8.7779,9.3683
1,3,0,1,1,08.334,8334,1.3200,1.2300,-10.0000,10.1615,-0.4134,0.0578,0.0469,-4.06,172.94,136.06,0.5219,2.9826,-8.9389,9.4379
1,3,0,1,1,08.464,8464,0.3200,1.5300,-11.3200,11.4274,-0.5323,-0.2356,0.1342,-6.06,176.63,135.38,0.4953,2.7912,-9.2527,9.6772
1,3,0,1,1,08.594,8594,0.8900,1.6000,-10.5000,10.6584,0.4047,-0.0567,-0.0600,-6.88,176.88,134.38,0.5473,2.6342,-9.4171,9.7939
1,3,0,1,1,08.740,8740,1.0700,1.6700,-10.2600,10.4499,0.5978,-0.0458,-0.1145,-7.00,172.75,134.38,0.6162,2.5072,-9.5281,9.8717
1,3,0,1,1,08.875,8875,1.2400,2.0900,-9.7600,10.0580,0.9610,0.0316,0.0065,-6.13,166.88,134.88,0.6984,2.4522,-9.5587,9.8929
1,3,0,1,1,09.006,9006,1.9500,2.2200,-8.7400,9.2260,1.0974,-0.2094,-0.1658,-6.56,158.38,134.88,0.8633,2.4216,-9.4508,9.7943
1,3,0,1,1,09.136,9136,0.5600,2.7600,-7.6500,8.1519,-0.1527,-0.4625,-0.3098,-8.94,154.13,137.38,0.8234,2.4662,-9.2135,9.5733
1,3,0,1,1,09.267,9267,0.6400,4.5000,-8.1300,9.3143,0.1702,-0.1527,-0.0284,-9.25,155.31,139.75,0.7992,2.7342,-9.0707,9.5075
1,3,0,1,1,09.440,9440,0.9600,4.2900,-8.9900,10.0073,-0.2651,0.6829,0.1800,-6.06,156.31,138.50,0.8204,2.9392,-9.0601,9.5602
1,3,0,1,1,09.570,9570,1.8500,4.1200,-9.3000,10.3386,0.1342,0.2454,0.3098,-3.06,156.69,136.25,0.9561,3.0948,-9.0917,9.6515
1,3,0,1,1,09.701,9701,1.3300,4.8900,-9.2900,10.5823,0.3676,-0.1691,-0.0273,-3.50,155.81,135.88,1.0053,3.3314,-9.1178,9.7593
1,3,0,1,1,09.831,9831,0.4500,3.9200,-8.8500,9.6898,0.7025,-0.2738,-0.1167,-5.25,150.50,136.50,0.9322,3.4089,-9.0825,9.7459
1,3,0,1,1,09.963,9963,1.5400,4.9200,-8.1500,9.6437,0.5007,-0.1865,-0.2334,-6.00,146.25,137.00,1.0123,3.6081,-8.9597,9.7118
1,3,0,1,1,10.094,10094,0.2900,5.3800,-7.5600,9.2834,0.0556,-0.2738,-0.4723,-6.88,142.88,139.88,0.9171,3.8415,-8.7752,9.6230
1,3,0,1,1,10.229,10229,0.0100,6.2300,-7.5500,9.7885,0.2127,-0.0011,-0.2040,-5.75,142.81,142.25,0.7976,4.1563,-8.6138,9.5973
1,3,0,1,1,10.360,10360,-0.4600,5.3100,-7.7300,9.3894,-0.0764,0.7385,0.1647,-3.63,141.56,141.31,0.6318,4.3083,-8.4973,9.5480
1,3,0,1,1,10.533,10533,1.9200,5.1800,-6.6900,8.6761,0.8279,-0.2553,0.3425,-2.00,139.69,137.50,0.8016,4.4232,-8.2592,9.4032
1,3,0,1,1,10.664,10664,0.0600,6.4100,-7.8500,10.1348,-0.7996,-0.1069,-0.1047,-3.00,139.88,139.06,0.7039,4.6850,-8.2052,9.4747
1,3,0,1,1,10.795,10795,0.0600,5.5300,-7.1600,9.0471,0.7112,-0.1407,0.0567,-3.88,140.13,139.56,0.6190,4.7963,-8.0675,9.4060
1,3,0,1,1,10.927,10927,0.4200,6.4800,-7.0400,9.5775,-0.5563,0.1374,-0.0491,-3.31,139.00,139.75,0.5928,5.0182,-7.9321,9.4049
1,3,0,1,1,11.058,11058,0.5600,6.2200,-7.2700,9.5841,0.2422,-0.1713,-0.0644,-4.31,140.31,139.06,0.5885,5.1766,-7.8449,9.4173
1,3,0,1,1,11.192,11192,0.5900,5.9800,-6.8200,9.0896,-0.3109,0.1069,0.0894,-3.56,141.19,139.75,0.5887,5.2824,-7.7098,9.3644
1,3,0,1,1,11.323,11323,0.0100,3.5700,-5.8900,6.8875,-0.3000,-0.0055,-0.0349,-4.31,141.00,139.13,0.5124,5.0568,-7.4700,9.0352
1,4,0,1,1,11.453,11453,0.7700,5.9100,-8.8400,10.6615,-1.4868,0.2869,0.0611,-1.94,150.38,139.31,0.5464,5.1692,-7.6505,9.2493
1,4,0,1,1,11.626,11626,-0.1300,2.3300,-9.1800,9.4720,-0.7810,-0.0829,0.1560,-3.94,156.44,138.44,0.4572,4.7951,-7.8521,9.2118
1,4,0,1,1,11.757,11757,0.3800,4.1700,-10.6400,11.4343,-1.0123,0.2563,-0.0425,-2.63,164.56,138.75,0.4471,4.7127,-8.2195,9.4852
1,4,0,1,1,11.887,11887,0.2000,2.4700,-9.8700,10.1763,0.2476,-0.2378,0.2596,-2.94,166.31,137.69,0.4145,4.4172,-8.4370,9.5323
1,4,0,1,1,12.019,12019,0.0000,2.4900,-9.6800,9.9951,-0.0676,0.3174,0.1527,-2.88,166.00,136.38,0.3599,4.1632,-8.6008,9.5622
1,4,0,1,1,12.149,12149,0.5000,2.1000,-9.2000,9.4499,0.0884,-0.0469,0.2203,-2.00,166.06,135.00,0.3783,3.8913,-8.6797,9.5196
1,4,0,1,1,12.279,12279,0.1500,1.9200,-9.2400,9.4386,-0.2083,0.0731,0.0033,-2.50,166.63,134.06,0.3483,3.6316,-8.7536,9.4834
1,4,0,1,1,12.410,12410,0.0900,1.9400,-9.2700,9.4713,-0.1407,0.0654,-0.0633,-1.56,167.94,134.19,0.3142,3.4087,-8.8216,9.4625
1,4,0,1,1,12.543,12543,0.7600,1.4300,-10.0100,10.1401,-0.5792,-0.2683,0.0829,-2.06,170.50,133.88,0.3730,3.1479,-8.9782,9.5214
1,4,0,1,1,12.717,12717,0.6900,2.7200,-10.3800,10.7526,0.5880,-0.0513,-0.0785,-3.88,171.88,134.81,0.4147,3.0915,-9.1629,9.6793
1,4,0,1,1,12.848,12848,0.7500,1.4400,-9.4000,9.5392,0.4614,-0.2160,-0.1996,-4.75,167.06,135.75,0.4589,2.8739,-9.1942,9.6438
1,4,0,1,1,12.978,12978,0.7000,2.8000,-9.3200,9.7567,0.2978,-0.1974,-0.2149,-6.00,165.38,137.00,0.4907,2.8642,-9.2107,9.6583
1,4,0,1,1,13.108,13108,0.7000,2.8600,-9.1500,9.6121,0.3752,0.0076,-0.0982,-6.13,162.31,137.94,0.5183,2.8636,-9.2027,9.6519
1,4,0,1,1,13.238,13238,1.0700,3.6500,-9.2300,9.9830,0.4800,0.0545,-0.0807,-5.69,159.44,138.31,0.5910,2.9672,-9.2063,9.6907
1,4,0,1,1,13.369,13369,1.0200,3.4000,-9.0700,9.7399,0.3142,-0.0349,-0.1298,-6.06,155.75,138.19,0.6475,3.0243,-9.1884,9.6949
1,4,0,1,1,13.499,13499,0.9000,4.9600,-8.7800,10.1242,0.7581,-0.1134,-0.1833,-5.88,152.50,139.06,0.6808,3.2794,-9.1346,9.7292
1,4,0,1,1,13.630,13630,0.6300,5.1100,-8.1600,9.6486,0.5836,0.1004,-0.0993,-5.81,147.19,139.63,0.6741,3.5206,-9.0061,9.6933
1,4,0,1,1,13.803,13803,1.8900,4.1800,-5.9400,7.5052,0.8487,0.2814,0.2836,-2.94,140.50,138.31,0.8343,3.6075,-8.6021,9.3652
1,4,0,1,1,13.933,13933,0.6800,7.6400,-7.9400,11.0397,-0.6927,-0.4789,-0.2247,-3.38,141.56,139.69,0.8140,4.1389,-8.5148,9.5024
1,4,0,1,1,14.064,14064,-0.2400,6.4000,-7.3800,9.7715,0.6196,-0.2989,-0.0305,-5.13,141.06,142.63,0.6751,4.4368,-8.3653,9.4931
1,4,0,1,1,14.194,14194,0.4600,6.2500,-7.4900,9.7660,0.2683,0.0971,0.1429,-5.75,137.56,142.44,0.6467,4.6758,-8.2500,9.5049
1,4,0,1,1,14.327,14327,1.3700,6.6800,-6.8300,9.6513,0.3283,0.0153,0.1625,-5.00,136.06,140.75,0.7421,4.9399,-8.0628,9.4848
1,4,0,1,1,14.458,14458,0.6100,6.8300,-6.6700,9.5661,0.2498,0.1047,0.1462,-5.06,134.06,333.94,0.7247,5.1889,-7.8793,9.4622
1,4,0,1,1,14.592,14592,0.6100,7.1400,-5.7300,9.1752,0.3054,0.5781,0.1898,-3.63,132.88,328.38,0.7095,5.4460,-7.5961,9.3735
1,4,0,1,1,14.723,14723,1.0100,5.8000,-4.8700,7.6405,0.3534,-0.1953,-0.0349,-4.88,128.88,328.63,0.7491,5.4927,-7.2369,9.1161
1,5,0,1,1,14.895,14895,1.0300,8.0000,-6.3400,10.2595,-0.3196,0.0349,0.0316,-5.38,133.44,331.63,0.7861,5.8231,-7.1187,9.2305
1,5,0,1,1,15.025,15025,1.1400,6.1700,-5.9100,8.6195,-0.2378,-0.0840,-0.0131,-5.50,134.25,332.19,0.8328,5.8688,-6.9594,9.1416
1,5,0,1,1,15.155,15155,0.9100,6.1600,-6.4700,8.9797,-0.8072,0.0458,-0.0349,-5.25,138.75,137.44,0.8430,5.9072,-6.8949,9.1184
1,5,0,1,1,15.285,15285,0.6300,5.7900,-7.4100,9.4249,-0.8781,0.0894,0.0076,-5.00,144.81,137.81,0.8149,5.8917,-6.9628,9.1573
1,5,0,1,1,15.415,15415,0.4800,4.3500,-8.1100,9.2155,-0.5029,0.1745,-0.0851,-4.25,149.31,137.50,0.7708,5.6886,-7.1140,9.1412
1,5,0,1,1,15.545,15545,0.5700,4.5100,-8.9600,10.0472,-0.6534,-0.0535,0.0600,-3.50,154.38,137.50,0.7443,5.5333,-7.3572,9.2358
1,5,0,1,1,15.676,15676,-0.1700,2.8100,-9.2300,9.6498,-0.5770,0.0153,-0.0425,-4.88,157.50,137.44,0.6238,5.1744,-7.6040,9.2187
1,5,0,1,1,15.807,15807,0.9100,3.0000,-9.7600,10.2511,-0.8476,0.3458,-0.1811,-3.00,163.19,137.44,0.6615,4.8879,-7.8881,9.3033
1,5,0,1,1,15.979,15979,0.1800,1.8500,-9.6400,9.8176,-0.1276,-0.3982,0.0011,-2.94,168.00,139.13,0.5981,4.4876,-8.1190,9.2959
1,5,0,1,1,16.110,16110,-0.2200,1.1900,-9.5000,9.5768,-0.1527,0.1222,-0.0535,-4.13,168.38,139.31,0.4903,4.0530,-8.3009,9.2506
1,5,0,1,1,16.240,16240,0.4500,1.0900,-9.5000,9.5729,-0.2247,0.1702,0.0305,-2.69,170.19,139.56,0.4850,3.6626,-8.4590,9.2306
1,5,0,1,1,16.371,16371,0.5800,1.1700,-9.8600,9.9461,-0.7527,-0.4091,0.1364,-4.13,174.38,138.81,0.4975,3.3341,-8.6436,9.2777
1,5,0,1,1,16.501,16501,0.1400,0.3500,-10.4600,10.4668,-0.1440,0.0109,0.2029,-5.75,176.75,137.88,0.4504,2.9409,-8.8829,9.3679
1,5,0,1,1,16.632,16632,0.9100,2.0900,-10.2100,10.4614,0.0131,0.2585,0.1462,-4.25,178.75,137.50,0.5110,2.8288,-9.0578,9.5030
1,5,0,1,1,16.763,16763,0.8800,-0.1700,-9.0700,9.1142,0.5989,0.0349,0.2694,-3.63,174.63,136.19,0.5596,2.4336,-9.0594,9.3973
1,5,0,1,1,16.896,16896,0.6800,0.5000,-9.0200,9.0594,-0.4767,-0.2029,0.0295,-4.88,175.56,135.50,0.5754,2.1788,-9.0542,9.3304
1,5,0,1,1,17.070,17070,1.3200,1.9100,-11.6000,11.8301,-0.1254,0.2662,-0.4102,-4.25,-179.94,137.13,0.6736,2.1434,-9.3897,9.6547
1,5,0,1,1,17.201,17201,0.5400,1.1600,-10.7400,10.8160,1.1312,-0.2171,0.0764,-4.88,175.38,138.38,0.6560,2.0138,-9.5676,9.7992
1,5,0,1,1,17.331,17331,0.5300,1.5900,-9.4500,9.5975,0.7909,-0.0687,-0.1473,-5.63,168.06,138.75,0.6394,1.9580,-9.5521,9.7717
1,5,0,1,1,17.462,17462,0.9700,2.4400,-8.7200,9.1068,1.0810,-0.1091,-0.0807,-6.19,161.19,138.75,0.6829,2.0215,-9.4425,9.6805
1,5,0,1,1,17.592,17592,0.9900,2.9300,-8.0100,8.5863,0.2902,-0.1942,-0.1833,-7.25,156.06,139.19,0.7234,2.1412,-9.2537,9.5257
1,5,0,1,1,17.722,17722,0.3700,4.7300,-8.5100,9.7432,0.3218,-0.0218,-0.2923,-7.44,154.88,140.94,0.6768,2.4823,-9.1557,9.5104
1,5,0,1,1,17.853,17853,1.3800,4.0500,-8.0300,9.0988,0.2509,-0.1789,0.0295,-7.38,152.38,141.00,0.7695,2.6889,-9.0074,9.4316
1,5,0,1,1,17.983,17983,0.6400,4.8200,-8.0700,9.4216,0.2989,0.0229,0.2847,-8.44,151.00,141.00,0.7524,2.9697,-8.8838,9.3972
1,5,0,1,1,18.156,18156,1.5000,5.3200,-7.8300,9.5844,0.0927,0.2596,0.1680,-7.13,150.31,137.69,0.8509,3.2794,-8.7450,9.3783
1,5,0,1,1,18.287,18287,1.8500,5.0100,-8.3800,9.9372,0.0098,-0.0589,0.0633,-7.44,149.44,136.00,0.9826,3.5075,-8.6969,9.4289
1,5,0,1,1,18.418,18418,1.3500,5.0400,-7.8600,9.4342,0.4025,-0.0731,-0.2487,-7.94,148.06,136.63,1.0310,3.7094,-8.5866,9.4102
1,5,0,1,1,18.548,18548,1.5400,5.3100,-7.4000,9.2373,-0.0316,-0.1844,-0.2934,-7.50,146.31,138.44,1.0981,3.9203,-8.4302,9.3618
1,5,0,1,1,18.679,18679,0.2400,4.6600,-8.2500,9.4782,-0.1614,-0.4832,-0.1593,-8.94,145.38,141.13,0.9850,4.0178,-8.4065,9.3692
1,5,0,1,1,18.811,18811,0.7900,5.7700,-7.2800,9.3228,0.2323,0.0480,0.0425,-9.75,147.44,142.00,0.9593,4.2487,-8.2580,9.3363
1,5,0,1,1,18.945,18945,1.0900,3.9200,-7.9400,8.9218,-0.5247,0.4854,0.1167,-8.31,146.63,140.25,0.9765,4.2054,-8.2161,9.2814
1,5,0,1,1,19.077,19077,1.3500,5.3400,-7.6100,9.3942,0.1364,0.2574,0.1625,-6.25,150.13,138.69,1.0257,4.3549,-8.1363,9.2853
1,5,0,1,1,19.250,19250,0.9000,3.4200,-7.6200,8.4006,-0.8258,0.0065,-0.0480,-5.75,152.25,137.69,1.0092,4.2317,-8.0682,9.1664
1,6,0,1,1,19.381,19381,0.9000,4.6000,-9.5700,10.6562,-1.0330,0.0687,-0.0480,-5.13,160.31,138.50,0.9948,4.2802,-8.2661,9.3616
1,6,0,1,1,19.512,19512,1.0700,2.8900,-9.9900,10.4545,-0.4232,-0.0578,0.0109,-4.94,164.13,138.94,1.0047,4.0970,-8.4933,9.4832
1,6,0,1,1,19.647,19647,0.3300,2.6800,-8.9800,9.3772,0.0371,-0.2913,-0.0109,-7.19,166.19,139.06,0.9158,3.9103,-8.5574,9.4530
1,6,0,1,1,19.778,19778,0.8200,1.4400,-9.4100,9.5548,-0.5880,0.5509,0.0415,-5.94,166.81,138.63,0.9032,3.5848,-8.6698,9.4250
1,6,0,1,1,19.909,19909,1.4300,3.6200,-9.9200,10.6563,-0.1091,-0.6065,0.0480,-6.38,172.25,138.38,0.9726,3.5894,-8.8345,9.5853
1,6,0,1,1,20.039,20039,0.1600,0.5300,-8.6800,8.6976,0.0469,0.1756,0.0545,-8.50,170.63,137.81,0.8655,3.1863,-8.8142,9.4123
1,6,0,1,1,20.170,20170,1.0500,1.1700,-9.5200,9.6489,-0.5345,0.3305,0.0087,-6.13,173.19,137.50,0.8898,2.9206,-8.9072,9.4159
1,6,0,1,1,20.343,20343,0.7500,1.0800,-9.7100,9.7986,-0.0295,0.1124,0.0873,-3.88,176.19,137.00,0.8714,2.6780,-9.0130,9.4427
1,6,0,1,1,20.474,20474,0.9100,0.7800,-9.6100,9.6845,0.1920,-0.1985,0.0949,-4.44,175.50,136.69,0.8765,2.4279,-9.0916,9.4510
1,6,0,1,1,20.604,20604,0.5900,1.0300,-10.2500,10.3185,-0.7854,-0.3622,-0.1756,-7.50,178.00,137.19,0.8387,2.2437,-9.2443,9.5496
1,6,0,1,1,20.735,20735,0.3200,0.9900,-9.7200,9.7755,0.4712,-0.1898,-0.0120,-9.38,178.88,138.44,0.7704,2.0785,-9.3070,9.5673
1,6,0,1,1,20.865,20865,1.2700,1.3100,-10.1100,10.2733,0.1156,0.4200,-0.1069,-7.69,176.88,138.13,0.8362,1.9772,-9.4128,9.6545
1,6,0,1,1,20.999,20999,1.7900,0.6400,-9.4500,9.6393,0.8356,0.0556,-0.0840,-5.94,173.06,137.75,0.9619,1.8010,-9.4177,9.6365
1,6,0,1,1,21.130,21130,2.0000,1.7600,-9.3400,9.7125,-0.0425,-0.8465,-0.0120,-8.88,170.63,137.81,1.0987,1.7956,-9.4075,9.6401
1,6,0,1,1,21.263,21263,0.5100,2.8100,-9.6200,10.0350,0.4123,-0.1789,-0.2694,-13.50,169.38,139.44,1.0211,1.9293,-9.4355,9.6847
1,6,0,1,1,21.436,21436,1.4500,2.2700,-9.1800,9.5670,0.0556,0.6534,-0.1233,-9.19,165.13,140.19,1.0776,1.9742,-9.4018,9.6671
1,6,0,1,1,21.566,21566,1.2200,2.9200,-8.7400,9.2953,0.3720,0.0709,0.2803,-6.69,164.50,139.56,1.0964,2.0988,-9.3146,9.6109
1,6,0,1,1,21.696,21696,1.9500,3.0600,-9.2200,9.9083,0.4745,0.1200,0.1756,-6.38,161.13,137.56,1.2089,2.2255,-9.3021,9.6407
1,6,0,1,1,21.826,21826,2.2300,3.8400,-8.9300,9.9731,0.6992,-0.7461,0.1451,-9.06,157.63,136.63,1.3434,2.4382,-9.2531,9.6628
1,6,0,1,1,21.956,21956,0.5800,3.6500,-8.0900,8.8942,0.1724,-0.0720,-0.4156,-11.94,153.63,138.19,1.2428,2.5979,-9.0998,9.5447
1,6,0,1,1,22.086,22086,1.5600,4.6900,-8.5000,9.8326,0.0087,0.4211,-0.2007,-8.63,152.81,140.19,1.2846,2.8736,-9.0208,9.5542
1,6,0,1,1,22.216,22216,1.0600,4.8900,-8.3400,9.7258,0.3120,-0.1287,-0.0971,-7.56,151.38,141.00,1.2550,3.1393,-8.9311,9.5496
1,6,0,1,1,22.347,22347,0.9200,5.0700,-8.2700,9.7439,0.4920,0.1582,-0.1374,-7.25,148.38,141.81,1.2109,3.3937,-8.8440,9.5498
1,6,0,1,1,22.519,22519,0.7500,5.9700,-7.8700,9.9066,0.3338,0.1004,-0.1691,-5.44,144.88,142.75,1.1501,3.7332,-8.7156,9.5510
1,6,0,1,1,22.649,22649,0.5900,6.0800,-7.3100,9.5263,0.5880,0.0185,-0.1484,-4.94,140.94,143.00,1.0763,4.0425,-8.5304,9.5009
1,6,0,1,1,22.779,22779,0.9000,5.9300,-5.3600,8.0439,0.7647,-0.0284,-0.0360,-5.00,136.13,142.69,1.0531,4.2912,-8.1126,9.2378
1,6,0,1,1,22.909,22909,0.9600,6.8300,-6.0100,9.1483,-0.3458,-0.1745,-0.0687,-4.81,135.19,337.56,1.0408,4.6257,-7.8355,9.1584
1,6,0,1,1,23.039,23039,0.1100,6.7200,-6.5300,9.3708,-0.0458,-0.0404,-0.0894,-5.13,135.88,145.19,0.9182,4.9017,-7.6635,9.1433
1,6,0,1,1,23.169,23169,-0.0100,7.3600,-6.8100,10.0273,-0.2138,0.2127,0.0425,-4.63,138.19,145.19,0.7959,5.2256,-7.5510,9.2173
1,6,0,1,1,23.299,23299,0.2100,5.5300,-6.0700,8.2140,0.1505,0.2902,0.0720,-4.00,137.13,143.56,0.7187,5.2658,-7.3559,9.0749
1,6,0,1,1,23.430,23430,1.2400,5.8000,-6.8500,9.0609,-0.8923,0.2945,0.2389,-3.25,140.50,140.88,0.7874,5.3362,-7.2892,9.0679
1,6,0,1,1,23.603,23603,0.3900,5.0800,-7.6700,9.2080,-0.6305,0.0567,0.1844,-2.81,147.81,139.88,0.7350,5.3024,-7.3394,9.0842
1,6,0,1,1,23.734,23734,0.4400,3.5200,-8.2600,8.9895,-0.9719,-0.0404,0.0600,-3.38,153.13,138.88,0.6961,5.0675,-7.4607,9.0458
1,7,0,1,1,23.864,23864,0.4200,4.1600,-10.0700,10.9035,-1.2021,0.2258,-0.0022,-3.00,162.06,138.69,0.6597,4.9479,-7.8045,9.2644
1,7,0,1,1,23.995,23995,0.7700,2.3700,-9.6200,9.9375,-0.3196,-0.1800,0.1113,-2.75,166.38,138.25,0.6743,4.6082,-8.0438,9.2948
1,7,0,1,1,24.125,24125,0.4800,2.2900,-9.5000,9.7839,-0.2716,-0.1396,0.1844,-4.06,168.75,137.63,0.6487,4.3027,-8.2357,9.3145
1,7,0,1,1,24.261,24261,0.8000,2.6100,-9.3200,9.7116,1.0068,0.3556,0.3305,-3.50,166.69,135.19,0.6686,4.0797,-8.3786,9.3430
1,7,0,1,1,24.391,24391,0.9000,0.9300,-8.5900,8.6869,-0.4767,-0.1931,0.0720,-3.19,163.69,133.63,0.6991,3.6646,-8.4064,9.1971
1,7,0,1,1,24.523,24523,0.2500,3.0300,-9.6600,10.1271,-0.6534,-0.1374,-0.0807,-5.19,169.94,134.13,0.6399,3.5810,-8.5716,9.3116
1,7,0,1,1,24.696,24696,1.5700,1.3800,-9.7400,9.9618,-0.1080,-0.1734,0.2149,-5.50,171.81,133.69,0.7625,3.2910,-8.7256,9.3567
1,7,0,1,1,24.826,24826,0.9500,2.0000,-10.5700,10.7994,-0.3665,-0.0982,-0.1145,-6.38,173.63,134.19,0.7872,3.1209,-8.9686,9.5287
1,7,0,1,1,24.957,24957,1.3300,2.7000,-10.5300,10.9517,0.5083,0.5334,-0.5181,-4.19,173.00,137.31,0.8587,3.0654,-9.1744,9.7110
1,7,0,1,1,25.088,25088,0.4500,-0.1600,-7.7000,7.7148,0.7025,-0.7723,-0.0982,-5.31,166.88,139.13,0.8049,2.6404,-8.9801,9.3947
1,7,0,1,1,25.218,25218,-0.5300,1.8200,-9.0800,9.2758,-0.8999,0.0720,-0.2967,-8.38,168.50,140.38,0.6290,2.5323,-8.9933,9.3641
1,7,0,1,1,25.349,25349,0.8000,2.4300,-10.3900,10.7003,-0.1124,0.3643,0.2651,-5.75,173.00,140.25,0.6515,2.5188,-9.1773,9.5390
1,7,0,1,1,25.480,25480,0.5800,2.3200,-10.4000,10.6714,0.2007,0.2411,0.3567,-4.19,172.88,137.75,0.6421,2.4926,-9.3384,9.6867
1,7,0,1,1,25.615,25615,1.4200,1.3200,-9.4400,9.6370,0.4701,0.2214,0.1004,-2.88,169.44,135.81,0.7446,2.3381,-9.3518,9.6684
1,7,0,1,1,25.788,25788,0.1600,2.9600,-10.1200,10.5452,-0.0905,-0.4123,-0.3218,-5.56,168.13,136.69,0.6676,2.4200,-9.4530,9.7807
1,7,0,1,1,25.918,25918,0.7100,2.4200,-9.4700,9.8001,0.7461,-0.1331,-0.0622,-6.50,164.75,138.25,0.6731,2.4200,-9.4553,9.7832
1,7,0,1,1,26.048,26048,1.0100,3.7300,-9.7000,10.4414,0.2454,0.1113,-0.3000,-6.00,161.56,139.31,0.7175,2.5926,-9.4875,9.8615
1,7,0,1,1,26.178,26178,1.7500,2.3500,-8.5900,9.0760,0.6807,-0.3043,0.0524,-6.56,156.56,139.31,0.8536,2.5607,-9.3693,9.7503
1,7,0,1,1,26.308,26308,0.5900,5.3900,-8.8300,10.3619,0.2869,-0.2956,-0.2978,-9.63,155.44,141.56,0.8189,2.9335,-9.2982,9.7843
1,7,0,1,1,26.439,26439,0.8500,3.4400,-7.6300,8.4127,0.8018,0.3862,-0.0404,-7.75,148.88,142.25,0.8230,3.0002,-9.0784,9.5966
1,7,0,1,1,26.569,26569,1.5100,5.4800,-7.8300,9.6757,0.2422,0.0927,-0.0807,-5.63,147.19,142.63,0.9135,3.3270,-8.9139,9.5583
1,7,0,1,1,26.699,26699,2.2900,4.4100,-7.4800,8.9801,-0.3316,-0.8661,-0.2105,-8.25,146.50,143.81,1.0949,3.4697,-8.7249,9.4531
1,7,0,1,1,26.872,26872,-0.3200,5.9300,-8.5000,10.3691,0.0709,0.4331,-0.4189,-9.50,147.19,148.44,0.9084,3.7939,-8.6953,9.5303
1,7,0,1,1,27.002,27002,0.4800,4.6900,-7.8000,9.1141,0.3545,0.9817,-0.0425,-3.25,145.38,147.81,0.8520,3.9120,-8.5773,9.4657
1,7,0,1,1,27.132,27132,0.2700,5.8800,-7.5700,9.5892,-0.1582,-0.0556,0.0349,-1.81,145.75,145.88,0.7753,4.1713,-8.4446,9.4505
1,7,0,1,1,27.262,27262,-0.1000,5.4600,-8.2800,9.9187,0.0556,-0.0229,0.0807,-3.06,145.38,144.75,0.6599,4.3412,-8.4229,9.4987
1,7,0,1,1,27.392,27392,0.7200,6.0000,-8.0600,10.0738,0.2269,0.2509,0.0676,-2.94,145.19,143.13,0.6679,4.5597,-8.3751,9.5592
1,7,0,1,1,27.522,27522,-0.1200,6.6200,-7.4100,9.9371,0.2302,0.2836,-0.1058,-1.69,143.19,142.75,0.5640,4.8312,-8.2479,9.5753
1,7,0,1,1,27.652,27652,0.7100,4.6900,-5.1900,7.0311,0.7123,-0.1734,-0.0055,-1.94,138.63,141.75,0.5833,4.8126,-7.8449,9.2220
1,7,0,1,1,27.798,27798,-0.5600,6.2300,-6.9500,9.3503,-0.8399,0.0665,-0.1276,-2.44,142.13,143.19,0.4326,4.9994,-7.7270,9.2135
1,7,0,1,1,27.973,27973,0.5800,5.0100,-7.4200,8.9718,-0.4723,0.2083,0.1778,-0.63,147.06,142.06,0.4520,5.0008,-7.6866,9.1813
1,8,0,1,1,28.103,28103,0.0700,4.9600,-8.5900,9.9194,-0.8378,-0.3883,-0.0687,-2.06,151.69,142.31,0.4017,4.9954,-7.8056,9.2759
1,8,0,1,1,28.234,28234,0.2300,3.9700,-8.4100,9.3028,-0.5225,-0.0240,0.1309,-3.06,157.06,142.31,0.3791,4.8603,-7.8852,9.2706
1,8,0,1,1,28.365,28365,0.6500,3.0500,-9.9500,10.4272,-1.0014,0.0393,0.1080,-3.31,162.44,141.38,0.4148,4.6217,-8.1573,9.3848
1,8,0,1,1,28.495,28495,1.1900,2.8600,-9.1000,9.6128,-0.1691,-0.2334,0.5978,-4.69,166.69,139.63,0.5169,4.3896,-8.2816,9.3872
1,8,0,1,1,28.625,28625,0.6800,1.7600,-9.1700,9.3621,-0.7243,-0.2029,0.1549,-6.63,169.44,139.00,0.5384,4.0431,-8.3986,9.3367
1,8,0,1,1,28.756,28756,0.7800,0.7400,-9.6600,9.7197,-0.4287,0.0698,0.1538,-6.75,173.81,138.50,0.5703,3.6078,-8.5648,9.3112
1,8,0,1,1,28.886,28886,0.6600,1.3300,-10.2400,10.3471,-0.7276,0.2160,-0.2596,-6.13,178.63,138.13,0.5821,3.3077,-8.7856,9.4056
1,8,0,1,1,29.059,29059,0.5700,0.0900,-9.6500,9.6672,0.5574,-0.4058,0.0273,-6.56,178.63,137.75,0.5805,2.8837,-8.8995,9.3730
1,8,0,1,1,29.189,29189,0.6400,0.1500,-9.4300,9.4529,0.0284,0.0774,-0.1320,-7.19,176.50,137.63,0.5883,2.5234,-8.9694,9.3362
1,8,0,1,1,29.319,29319,0.7600,0.8900,-9.1500,9.2245,0.0033,-0.0305,0.1418,-6.63,176.81,138.50,0.6110,2.3082,-8.9932,9.3048
1,8,0,1,1,29.449,29449,1.0900,0.3000,-10.0000,10.0637,-0.4527,-0.0044,0.4102,-6.69,178.31,136.75,0.6741,2.0436,-9.1259,9.3761
1,8,0,1,1,29.579,29579,1.7600,0.7700,-9.6800,9.8688,0.1942,-0.0447,0.0720,-6.44,-179.94,136.00,0.8172,1.8757,-9.1989,9.4237
1,8,0,1,1,29.709,29709,1.6000,0.6600,-10.7100,10.8489,-0.1505,-0.2007,-0.1047,-7.81,179.25,136.19,0.9203,1.7155,-9.3980,9.5975
1,8,0,1,1,29.839,29839,1.8000,1.2000,-9.8700,10.1043,0.7167,0.1069,-0.2945,-8.75,176.63,137.75,1.0362,1.6476,-9.4602,9.6584
1,8,0,1,1,29.970,29970,1.6700,0.5900,-8.7400,8.9177,0.3283,-0.3818,-0.1811,-9.06,171.75,139.44,1.1198,1.5082,-9.3653,9.5518
1,8,0,1,1,30.142,30142,0.4800,2.2000,-8.8300,9.1126,0.3382,0.2007,0.0742,-10.56,169.88,140.56,1.0355,1.5994,-9.2948,9.4880
1,8,0,1,1,30.272,30272,1.8200,2.0200,-9.4600,9.8430,0.3011,0.6043,0.1985,-6.56,167.25,138.50,1.1388,1.6548,-9.3165,9.5306
1,8,0,1,1,30.402,30402,2.0700,3.3700,-9.4700,10.2627,0.4734,-0.0884,0.1636,-4.31,165.38,137.50,1.2615,1.8808,-9.3368,9.6075
1,8,0,1,1,30.532,30532,0.9800,2.0900,-9.2100,9.4949,0.2258,-0.1920,-0.0469,-6.75,161.81,137.00,1.2244,1.9084,-9.3201,9.5919
1,8,0,1,1,30.662,30662,0.5700,3.5000,-9.1000,9.7665,-0.0065,0.0164,-0.1254,-7.00,162.06,138.56,1.1382,2.1181,-9.2911,9.5972
1,8,0,1,1,30.792,30792,1.6400,3.0100,-8.9700,9.6026,0.4363,-0.0993,0.1527,-6.75,159.63,137.88,1.2043,2.2357,-9.2488,9.5910
1,8,0,1,1,30.922,30922,0.8300,4.2700,-9.1800,10.1585,0.2902,0.1331,-0.1953,-6.50,157.81,138.56,1.1550,2.5037,-9.2397,9.6423
1,8,0,1,1,31.053,31053,0.8600,3.6900,-8.6100,9.4068,0.5072,0.1538,-0.1004,-5.38,153.75,138.56,1.1161,2.6600,-9.1567,9.6004
1,8,0,1,1,31.226,31226,0.8100,4.6900,-8.4100,9.6633,0.4527,0.0273,-0.0360,-4.69,150.44,139.00,1.0758,2.9275,-9.0583,9.5802
1,8,0,1,1,31.356,31356,1.2100,5.1700,-7.7800,9.4192,0.4102,-0.1167,-0.0131,-4.75,147.19,138.88,1.0935,3.2230,-8.8899,9.5191
1,8,0,1,1,31.486,31486,1.4100,5.3500,-7.0200,8.9382,0.3098,-0.2542,0.1484,-5.94,144.88,139.13,1.1352,3.5033,-8.6435,9.3953
1,8,0,1,1,31.616,31616,0.9400,5.8600,-7.7800,9.7853,-0.4287,0.0229,-0.2509,-5.63,144.13,140.25,1.1095,3.8139,-8.5297,9.4091
1,8,0,1,1,31.746,31746,0.4500,5.6700,-8.2400,10.0124,0.2967,-0.1691,-0.1287,-4.81,144.44,142.44,1.0226,4.0585,-8.4915,9.4669
1,8,0,1,1,31.876,31876,-0.4700,6.8500,-7.7400,10.3465,0.5171,0.5236,0.0251,-3.13,142.56,143.13,0.8259,4.4263,-8.3925,9.5241
1,8,0,1,1,32.006,32006,1.1100,5.9700,-5.5900,8.2536,0.5356,0.1942,0.3589,-1.44,138.13,139.69,0.8633,4.6297,-8.0232,9.3033
1,8,0,1,1,32.136,32136,0.6400,4.4300,-5.1300,6.8082,-0.1560,-0.0131,0.1996,-2.19,135.31,138.19,0.8339,4.6034,-7.6419,8.9602
1,9,0,1,1,32.309,32309,0.4400,7.3200,-8.2200,11.0156,-0.9043,0.0589,-0.0262,-1.69,145.50,138.75,0.7820,4.9614,-7.7181,9.2085
1,9,0,1,1,32.439,32439,0.1900,4.4300,-7.9300,9.0855,-0.2378,-0.0436,-0.0131,-1.31,147.88,139.38,0.7040,4.8914,-7.7460,9.1881
1,9,0,1,1,32.569,32569,-0.0900,4.1000,-7.9600,8.9543,-0.8127,-0.0938,0.0022,-1.94,152.00,139.69,0.5994,4.7871,-7.7742,9.1495
1,9,0,1,1,32.699,32699,0.2700,3.6400,-9.1600,9.8604,-0.8945,0.1396,0.1145,-1.81,158.19,139.13,0.5560,4.6359,-7.9568,9.2256
1,9,0,1,1,32.829,32829,1.8400,2.8800,-9.9400,10.5111,-1.0527,-0.5989,-0.1702,-3.19,165.81,139.13,0.7252,4.4045,-8.2182,9.3522
1,9,0,1,1,32.959,32959,0.0200,2.2100,-9.1100,9.3743,-0.0469,-0.5007,0.0818,-8.06,169.13,140.06,0.6322,4.1154,-8.3357,9.3177
1,9,0,1,1,33.089,33089,1.2900,1.0500,-9.9900,10.1275,-0.5563,0.4985,0.1614,-6.94,171.19,139.75,0.7189,3.7114,-8.5537,9.3518
1,9,0,1,1,33.220,33220,1.0100,1.7600,-9.3800,9.5970,-0.1200,-0.0785,0.0273,-6.06,174.63,139.63,0.7573,3.4543,-8.6626,9.3566
1,9,0,1,1,33.392,33392,1.0700,0.2400,-10.0100,10.0699,-0.5269,0.2083,0.0556,-5.38,175.88,138.50,0.7985,3.0307,-8.8401,9.3793
1,9,0,1,1,33.522,33522,0.9900,1.0200,-9.6700,9.7739,-0.1560,-0.0305,-0.0360,-4.81,178.94,138.81,0.8237,2.7658,-8.9495,9.4033
1,9,0,1,1,33.652,33652,0.6400,0.0200,-9.5300,9.5515,0.0589,0.1309,0.1473,-4.69,178.31,138.38,0.7995,2.4039,-9.0260,9.3748
1,9,0,1,1,33.782,33782,1.0100,0.4800,-9.8400,9.9033,0.0589,-0.1254,0.1167,-4.44,178.13,137.38,0.8272,2.1504,-9.1332,9.4194
1,9,0,1,1,33.912,33912,1.1100,0.1500,-9.5200,9.5857,0.1069,-0.1996,0.2116,-5.81,177.13,136.50,0.8645,1.8868,-9.1842,9.4158
1,9,0,1,1,34.042,34042,1.2300,0.6300,-9.3700,9.4714,-0.1014,-0.0709,-0.0011,-6.81,177.81,135.94,0.9127,1.7212,-9.2087,9.4125
1,9,0,1,1,34.172,34172,1.1300,0.5000,-9.4200,9.5007,0.0349,0.0055,-0.0469,-6.94,177.94,136.44,0.9413,1.5603,-9.2365,9.4146
1,9,0,1,1,34.303,34303,1.3600,2.0500,-10.8600,11.1352,-0.0720,-0.1473,-0.2007,-7.75,178.81,137.06,0.9965,1.6248,-9.4505,9.6408
1,9,0,1,1,34.476,34476,1.6100,-0.3000,-9.6000,9.7387,0.4603,0.0098,0.0513,-8.19,171.81,137.44,1.0773,1.3712,-9.4702,9.6294
1,9,0,1,1,34.606,34606,1.1600,2.4500,-9.1300,9.5239,0.3960,0.1505,-0.1767,-7.88,170.69,137.94,1.0882,1.5133,-9.4253,9.6079
1,9,0,1,1,34.737,34737,1.9400,1.4000,-9.7900,10.0781,0.2018,-0.0676,-0.0469,-7.19,167.13,137.94,1.2005,1.4984,-9.4734,9.6660
1,9,0,1,1,34.868,34868,0.9400,3.0800,-9.3200,9.8606,0.5509,-0.1680,-0.0600,-8.13,165.50,139.06,1.1661,1.7068,-9.4532,9.6766
1,9,0,1,1,34.998,34998,1.1200,2.8600,-8.9200,9.4340,0.4756,0.0840,-0.1134,-8.31,160.88,138.75,1.1601,1.8588,-9.3829,9.6354
1,9,0,1,1,35.129,35129,0.8200,2.9600,-8.3400,8.8876,0.3894,0.4647,0.0415,-5.56,157.69,138.94,1.1152,2.0039,-9.2455,9.5257
1,9,0,1,1,35.260,35260,1.0700,4.2200,-8.9700,9.9707,0.0764,0.0436,0.0142,-3.94,156.63,138.19,1.1093,2.2959,-9.2092,9.5557
1,9,0,1,1,35.395,35395,1.2700,3.6900,-7.9400,8.8472,0.4309,-0.0818,0.0425,-4.00,154.69,138.31,1.1305,2.4796,-9.0419,9.4437
1,9,0,1,1,35.568,35568,-0.1500,5.0200,-9.0800,10.3764,-0.0327,-0.1713,-0.0840,-6.50,153.81,139.06,0.9617,2.8144,-9.0470,9.5233
1,9,0,1,1,35.698,35698,0.4900,4.4400,-8.5700,9.6643,0.6698,0.4614,0.0535,-4.50,150.88,138.50,0.8996,3.0286,-8.9841,9.5234
1,9,0,1,1,35.828,35828,1.0600,4.7700,-6.8800,8.4387,0.2073,0.1604,0.1516,-2.63,148.63,137.38,0.9207,3.2581,-8.7068,9.3419
1,9,0,1,1,35.958,35958,1.1300,4.2600,-8.1700,9.2830,-0.3796,-0.1756,-0.0142,-3.63,148.63,136.63,0.9483,3.3901,-8.6361,9.3260
1,9,0,1,1,36.088,36088,0.2400,5.7900,-9.0000,10.7043,-0.2934,-0.3011,-0.1189,-4.88,152.44,138.06,0.8550,3.7063,-8.6841,9.4805
1,9,0,1,1,36.219,36219,1.3100,4.8500,-8.5700,9.9340,0.4123,-0.2094,-0.0458,-4.75,151.50,138.81,0.9149,3.8570,-8.6690,9.5324
1,9,0,1,1,36.349,36349,0.5400,3.7100,-8.5100,9.2992,0.2007,-0.0022,-0.2193,-4.94,148.00,139.94,0.8655,3.8377,-8.6481,9.5008
1,9,0,1,1,36.479,36479,1.0500,5.3700,-6.8200,8.7437,0.3349,-0.1953,0.0109,-4.75,148.31,140.31,0.8898,4.0396,-8.4072,9.3697
1,9,0,1,1,36.652,36652,0.4400,5.0100,-8.2700,9.6792,-0.9261,0.3163,-0.0644,-4.00,149.56,140.94,0.8305,4.1675,-8.3891,9.4040
1,9,0,1,1,36.783,36783,1.2100,4.0700,-7.7000,8.7931,0.0774,-0.2771,0.1658,-3.56,152.44,140.38,0.8806,4.1546,-8.2983,9.3219
1,9,0,1,1,36.913,36913,0.0500,3.8700,-9.0800,9.8705,-0.9403,0.2280,-0.1145,-4.38,155.63,141.00,0.7711,4.1171,-8.4013,9.3876
1,9,0,1,1,37.044,37044,1.1100,3.6200,-8.8700,9.6443,-0.1244,-0.1145,0.1887,-3.38,159.69,140.75,0.8158,4.0516,-8.4631,9.4183
1,9,0,1,1,37.175,37175,0.1400,2.2500,-9.5300,9.7930,-0.7821,-0.0295,-0.0382,-5.13,162.63,140.06,0.7267,3.8142,-8.6037,9.4392
1,9,0,1,1,37.305,37305,0.8300,2.3200,-9.6200,9.9305,-0.3065,0.1505,0.1080,-4.13,167.13,139.69,0.7403,3.6173,-8.7376,9.4857
1,9,0,1,1,37.436,37436,1.2000,2.4900,-9.4800,9.8747,-0.2443,-0.1582,0.1876,-4.31,169.81,138.69,0.8009,3.4688,-8.8354,9.5257
1,9,0,1,1,37.567,37567,0.6600,0.9800,-9.3400,9.4144,-0.1614,-0.1058,0.1800,-6.00,170.50,137.56,0.7823,3.1408,-8.9019,9.4721
1,9,0,1,1,37.740,37740,1.4200,1.5100,-9.1700,9.4014,-0.1374,-0.0087,0.0622,-5.00,173.63,136.94,0.8664,2.9259,-8.9372,9.4438
1,9,0,1,1,37.873,37873,0.8000,1.1300,-9.5600,9.6597,-0.1702,0.0087,-0.0120,-5.44,174.69,137.06,0.8576,2.6892,-9.0193,9.4507
1,9,0,1,1,38.004,38004,0.9200,1.4100,-9.5900,9.7367,0.3611,-0.0185,0.0153,-5.25,174.44,137.25,0.8658,2.5207,-9.0945,9.4770
1,9,0,1,1,38.134,38134,0.8900,0.0300,-9.4200,9.4620,0.1418,-0.1462,0.1854,-6.13,171.94,136.31,0.8690,2.1925,-9.1374,9.4368
1,9,0,1,1,38.265,38265,1.2000,1.8800,-9.4600,9.7194,-0.2018,-0.0196,0.0196,-6.31,174.19,136.19,0.9126,2.1513,-9.1799,9.4727
1,9,0,1,1,38.395,38395,1.2400,0.7700,-9.8400,9.9477,-0.0960,-0.0044,0.0196,-6.31,174.00,135.81,0.9558,1.9693,-9.2669,9.5219
1,9,0,1,1,38.526,38526,0.8600,1.3300,-9.4100,9.5424,0.0905,0.0851,-0.0185,-6.13,174.31,135.88,0.9432,1.8850,-9.2857,9.5220
1,9,0,1,1,38.656,38656,1.7000,1.5700,-10.5700,10.8203,-0.3949,-0.2411,-0.0185,-6.69,175.06,135.50,1.0429,1.8435,-9.4550,9.6893
1,9,0,1,1,38.829,38829,1.8300,0.0100,-9.1900,9.3704,0.6916,-0.2760,-0.0196,-6.94,172.56,138.44,1.1466,1.6019,-9.4201,9.6238
1,9,0,1,1,38.959,38959,0.3800,2.4500,-9.7200,10.0312,-0.1691,0.0305,-0.1625,-9.06,171.75,139.13,1.0456,1.7137,-9.4596,9.6702
1,9,0,1,1,39.089,39089,0.8400,1.8300,-9.6500,9.8578,0.7625,0.3054,0.2585,-7.13,168.88,138.50,1.0185,1.7290,-9.4847,9.6946
1,9,0,1,1,39.219,39219,1.5900,2.2600,-9.0900,9.5007,0.1778,0.2007,-0.0185,-5.19,165.75,137.25,1.0938,1.7990,-9.4327,9.6648
1,9,0,1,1,39.349,39349,1.1700,2.5300,-9.1100,9.5269,0.4134,-0.2247,-0.0425,-6.06,163.63,137.06,1.1038,1.8953,-9.3902,9.6429
1,9,0,1,1,39.479,39479,1.5500,2.8900,-9.0900,9.6635,0.1036,-0.1418,-0.1440,-6.88,161.88,137.88,1.1626,2.0264,-9.3506,9.6380
1,9,0,1,1,39.609,39609,1.2500,3.6300,-9.2300,9.9966,0.1374,-0.4396,-0.1811,-8.63,160.88,139.50,1.1742,2.2377,-9.3347,9.6707
1,9,0,1,1,39.739,39739,1.4500,3.3300,-8.2600,9.0232,0.5781,0.1069,0.0284,-8.88,157.69,140.13,1.2105,2.3816,-9.1931,9.5734
1,9,0,1,1,39.912,39912,0.9500,4.4000,-8.5500,9.6626,0.0742,0.2705,-0.1069,-7.31,155.56,140.50,1.1762,2.6476,-9.1083,9.5580
1,9,0,1,1,40.042,40042,0.8100,4.8000,-8.2200,9.5532,0.4941,0.2443,-0.0273,-6.13,153.06,140.00,1.1279,2.9312,-8.9913,9.5240
1,9,0,1,1,40.172,40172,0.8000,4.7400,-7.6900,9.0688,0.5563,0.1658,0.0055,-4.69,149.44,139.63,1.0847,3.1696,-8.8198,9.4346
1,9,0,1,1,40.302,40302,1.1800,4.7900,-7.8000,9.2291,0.2847,0.0458,-0.0044,-3.69,146.44,139.25,1.0973,3.3831,-8.6854,9.3854
1,9,0,1,1,40.432,40432,0.2500,6.4600,-8.1400,10.3949,0.2585,0.0196,-0.1265,-3.25,145.75,139.81,0.9856,3.7886,-8.6136,9.4614
1,9,0,1,1,40.562,40562,0.5500,5.3500,-7.7200,9.4087,0.4374,0.0436,-0.0491,-2.50,141.75,139.81,0.9282,3.9943,-8.4958,9.4337
1,9,0,1,1,40.692,40692,0.5200,5.2000,-5.9100,7.8891,0.4069,-0.3065,-0.1124,-4.81,138.56,139.50,0.8744,4.1532,-8.1551,9.1934
1,9,0,1,1,40.823,40823,0.8300,6.5500,-6.4900,9.2581,-0.4538,0.1298,0.0000,-4.69,140.13,139.56,0.8686,4.4690,-7.9356,9.1488
1,10,0,1,1,40.996,40996,1.4200,5.3100,-7.7800,9.5258,-0.8672,-0.4549,-0.0164,-5.25,144.25,139.88,0.9412,4.5799,-7.9151,9.1930
1,10,0,1,1,41.126,41126,1.0800,5.1300,-7.6800,9.2987,-0.4527,-0.2945,-0.0153,-7.06,149.38,141.56,0.9595,4.6524,-7.8842,9.2046
1,10,0,1,1,41.257,41257,1.5200,3.1700,-8.9500,9.6157,-1.1116,-0.3982,-0.0098,-9.56,153.81,142.56,1.0334,4.4570,-8.0246,9.2373
1,10,0,1,1,41.388,41388,1.3600,5.0000,-9.1800,10.5414,-0.7636,-0.0033,0.1724,-11.44,162.63,143.06,1.0764,4.5286,-8.1769,9.4089
1,10,0,1,1,41.518,41518,1.4300,2.1600,-8.6300,9.0104,0.3436,0.3098,0.3883,-10.81,162.69,140.56,1.1230,4.2164,-8.2366,9.3210
1,10,0,1,1,41.649,41649,1.9900,1.9300,-9.3800,9.7811,-0.6545,0.1516,0.2203,-9.75,164.88,137.75,1.2373,3.9152,-8.3872,9.3384
1,10,0,1,1,41.779,41779,1.5000,2.0700,-9.7900,10.1183,-0.4734,0.2214,0.1734,-8.69,169.56,136.94,1.2719,3.6720,-8.5721,9.4118
1,10,0,1,1,41.910,41910,1.5800,1.5000,-9.6600,9.9026,-0.2007,0.1571,0.1200,-7.44,171.94,135.94,1.3125,3.3858,-8.7154,9.4417
1,10,0,1,1,42.087,42087,1.1900,0.6700,-9.4900,9.5878,-0.2847,-0.1734,0.1756,-8.50,173.56,134.38,1.2963,3.0279,-8.8175,9.4126
1,10,0,1,1,42.217,42217,1.0000,1.1600,-9.7500,9.8696,-0.0295,0.0055,0.0458,-8.94,175.06,133.88,1.2573,2.7818,-8.9404,9.4472
1,10,0,1,1,42.347,42347,1.4100,1.1200,-10.1700,10.3282,0.0360,0.4996,0.0840,-6.81,174.81,133.50,1.2774,2.5628,-9.1024,9.5422
1,10,0,1,1,42.478,42478,2.0100,0.9200,-9.9900,10.2316,0.1963,-0.1156,0.1734,-5.31,173.88,132.25,1.3740,2.3463,-9.2194,9.6120
1,10,0,1,1,42.608,42608,1.4700,1.2900,-9.7000,9.8952,0.0513,-0.2476,-0.0240,-7.56,173.25,131.81,1.3866,2.2071,-9.2827,9.6417
1,10,0,1,1,42.739,42739,1.6700,1.4800,-9.3700,9.6320,0.2149,-0.0382,-0.1004,-8.56,172.00,132.56,1.4240,2.1113,-9.2942,9.6368
1,10,0,1,1,42.869,42869,1.3300,2.1700,-9.3200,9.6613,0.2858,-0.0316,-0.2029,-8.25,170.56,133.88,1.4116,2.1190,-9.2976,9.6399
1,10,0,1,1,42.999,42999,2.0900,2.3700,-9.2900,9.8127,0.8072,-0.2313,-0.1331,-8.50,166.13,134.56,1.5010,2.1521,-9.2966,9.6598
1,10,0,1,1,43.172,43172,1.6800,2.5100,-8.3800,8.9077,0.2989,-0.1069,-0.1254,-10.25,161.13,135.94,1.5246,2.1993,-9.1758,9.5581
1,10,0,1,1,43.302,43302,1.3200,3.5700,-9.2900,10.0395,-0.1156,0.1134,-0.3556,-10.38,160.81,137.00,1.4976,2.3799,-9.1909,9.6114
1,10,0,1,1,43.432,43432,1.3700,3.3600,-8.9000,9.6113,0.5432,0.3938,0.0535,-7.50,159.06,137.81,1.4808,2.5091,-9.1525,9.6051
1,10,0,1,1,43.562,43562,1.7900,3.3300,-8.7900,9.5685,0.0894,-0.0011,0.0098,-6.63,156.94,136.81,1.5215,2.6172,-9.1048,9.5949
1,10,0,1,1,43.692,43692,1.5700,4.1400,-8.3700,9.4690,0.2902,-0.1320,-0.0447,-7.13,156.06,136.94,1.5279,2.8179,-9.0079,9.5613
1,10,0,1,1,43.822,43822,1.7800,4.2200,-8.6200,9.7612,-0.0425,-0.5531,-0.1931,-9.38,155.00,137.88,1.5611,3.0027,-8.9568,9.5749
1,10,0,1,1,43.952,43952,-0.5100,4.3800,-8.0300,9.1611,0.3240,0.2323,-0.2051,-10.06,153.38,140.13,1.2882,3.1842,-8.8347,9.4789
1,10,0,1,1,44.083,44083,2.5100,4.2100,-8.8700,10.1342,-0.1582,0.6567,0.1134,-5.31,150.94,137.25,1.4492,3.3193,-8.8393,9.5526
1,10,0,1,1,44.256,44256,0.7700,4.5800,-8.5200,9.7036,0.1189,-0.4887,-0.0916,-6.94,151.19,137.31,1.3597,3.4855,-8.7973,9.5598
1,10,0,1,1,44.386,44386,1.7100,6.4700,-8.1900,10.5764,0.1538,0.1331,-0.0436,-6.94,151.06,138.00,1.4059,3.8787,-8.7172,9.6442
1,10,0,1,1,44.517,44517,2.2500,2.8600,-7.7300,8.5437,0.5749,-0.3196,-0.4091,-7.63,144.63,138.94,1.5171,3.7445,-8.5871,9.4901
1,10,0,1,1,44.648,44648,0.7500,5.3100,-6.4200,8.3651,-0.4527,-0.3600,0.1222,-8.63,147.19,142.31,1.4160,3.9508,-8.3016,9.3022
1,10,0,1,1,44.778,44778,0.6200,4.1400,-7.8300,8.8788,-0.7919,0.2989,0.2334,-8.94,150.06,142.44,1.3111,3.9757,-8.2394,9.2420
1,10,0,1,1,44.909,44909,2.7100,4.4200,-9.4400,10.7701,-0.7974,-0.0011,0.2782,-7.13,156.75,140.81,1.4955,4.0343,-8.3976,9.4357
1,10,0,1,1,45.039,45039,0.6700,3.3100,-9.0500,9.6596,-0.2814,-0.0774,0.2334,-9.38,160.81,139.94,1.3867,3.9388,-8.4836,9.4556
1,10,0,1,1,45.173,45173,1.5500,1.8400,-9.0700,9.3837,-0.4832,0.4211,0.3829,-8.13,163.25,137.75,1.4082,3.6623,-8.5609,9.4172
1,10,0,1,1,45.347,45347,1.3500,2.7300,-9.6800,10.1478,-0.3458,0.0382,0.2083,-6.50,169.69,135.94,1.4005,3.5394,-8.7083,9.5039
1,10,0,1,1,45.477,45477,1.5100,1.1600,-9.4900,9.6791,-0.1233,0.0087,0.1822,-6.50,170.63,134.50,1.4150,3.2259,-8.8113,9.4894
1,10,0,1,1,45.608,45608,1.0500,1.0400,-9.2900,9.4068,-0.4429,0.0196,0.0033,-7.19,173.19,133.94,1.3669,2.9378,-8.8744,9.4475
1,10,0,1,1,45.738,45738,1.3000,0.5900,-9.4100,9.5177,-0.4102,-0.2476,0.1647,-7.94,175.81,133.75,1.3581,2.6284,-8.9450,9.4216
1,10,0,1,1,45.869,45869,1.0300,0.3000,-10.6900,10.7437,-0.4418,0.2127,-0.1364,-8.31,178.50,133.94,1.3148,2.3216,-9.1749,9.5550
1,10,0,1,1,45.999,45999,1.5000,0.8400,-8.8500,9.0154,0.5749,0.1407,0.0382,-6.19,178.88,134.56,1.3392,2.1264,-9.1321,9.4716
1,10,0,1,1,46.130,46130,0.5600,-0.6600,-10.1400,10.1769,-0.3196,-0.1734,0.2716,-7.50,176.31,133.00,1.2365,1.7592,-9.2649,9.5112
1,10,0,1,1,46.260,46260,0.9800,1.6400,-9.6500,9.8373,-0.1320,0.1702,-0.1451,-6.56,-179.94,133.44,1.2027,1.7435,-9.3157,9.5534
1,10,0,1,1,46.433,46433,1.3800,-0.3900,-9.9500,10.0528,-0.2989,-0.1527,-0.0316,-7.13,178.75,132.38,1.2261,1.4624,-9.3993,9.5910
1,10,0,1,1,46.564,46564,1.2400,0.5500,-9.7800,9.8736,0.2127,0.0175,-0.0894,-7.44,179.69,132.69,1.2279,1.3421,-9.4494,9.6229
1,10,0,1,1,46.694,46694,1.3100,0.2900,-9.3900,9.4854,0.1724,-0.1276,0.0535,-7.94,178.00,132.69,1.2387,1.2035,-9.4416,9.5983
1,10,0,1,1,46.824,46824,1.1500,0.9300,-9.2600,9.3774,0.1538,-0.0262,-0.0720,-8.31,177.06,133.06,1.2271,1.1674,-9.4177,9.5688
1,10,0,1,1,46.955,46955,1.4700,0.4800,-9.4200,9.5461,-0.0087,0.0502,-0.1189,-8.25,176.06,132.94,1.2591,1.0769,-9.4180,9.5626
1,10,0,1,1,47.085,47085,1.4600,1.2200,-10.2500,10.4251,-0.0720,0.0305,0.0109,-8.00,176.38,133.25,1.2855,1.0957,-9.5276,9.6762
1,10,0,1,1,47.216,47216,0.9400,2.3600,-10.5100,10.8126,0.4112,0.4232,-0.3622,-6.44,175.50,134.81,1.2400,1.2623,-9.6571,9.8178
1,10,0,1,1,47.346,47346,1.3800,1.3800,-9.5900,9.7866,0.7167,-0.1058,-0.1091,-5.00,169.75,135.44,1.2585,1.2778,-9.6482,9.8135
1,10,0,1,1,47.519,47519,0.5900,2.0600,-8.6000,8.8629,0.7909,-0.1222,-0.1353,-7.00,162.69,135.88,1.1704,1.3809,-9.5101,9.6808
1,10,0,1,1,47.654,47654,0.8600,2.6100,-8.6100,9.0379,0.0175,0.2378,-0.0240,-6.00,160.13,136.19,1.1295,1.5429,-9.3915,9.5842
1,10,0,1,1,47.785,47785,1.2300,4.4400,-9.0600,10.1642,0.5345,-0.1047,-0.1844,-5.38,158.75,136.75,1.1427,1.9246,-9.3478,9.6121
1,10,0,1,1,47.915,47915,0.8200,2.6200,-8.3800,8.8182,-0.2302,-0.1473,-0.2454,-6.50,156.50,137.38,1.1002,2.0163,-9.2203,9.5021
1,10,0,1,1,48.045,48045,1.2700,3.1900,-8.7700,9.4182,-0.3022,-0.2051,-0.0349,-7.94,158.56,137.75,1.1226,2.1709,-9.1609,9.4813
1,10,0,1,1,48.176,48176,1.2400,4.2400,-8.0800,9.2088,0.3469,-0.0415,0.2498,-7.38,159.38,138.81,1.1380,2.4436,-9.0185,9.4127
1,10,0,1,1,48.306,48306,1.2900,3.1900,-8.5500,9.2164,0.0295,0.0829,0.0829,-7.25,156.81,138.38,1.1581,2.5419,-8.9568,9.3822
1,10,0,1,1,48.437,48437,1.1900,4.0300,-8.6100,9.5807,0.1702,-0.0076,0.0131,-7.69,157.06,137.75,1.1623,2.7380,-8.9111,9.3944
1,10,0,1,1,48.610,48610,1.5200,4.1600,-8.5100,9.5935,-0.0851,0.0011,0.0098,-7.81,156.81,136.75,1.2094,2.9254,-8.8582,9.4068
