participant,rep,equipment_code,exercise_code,quality_code,timestamp,timestamp_ms,accelX,accelY,accelZ,accelMag,gyroX,gyroY,gyroZ,roll,pitch,yaw,filteredX,filteredY,filteredZ,filteredMag
1,1,0,1,1,00.000,0,0.0900,0.6200,-9.5000,9.5206,0.0142,-0.1920,-0.0164,-1.25,177.81,114.88,0.5501,1.5936,-8.2067,8.3781
1,1,0,1,1,00.131,131,0.5100,0.6200,-9.3800,9.4143,-0.1167,0.2258,-0.0436,-0.88,178.06,114.13,0.5448,1.4653,-8.3613,8.5062
1,1,0,1,1,00.262,262,0.9800,0.8000,-9.5200,9.6037,-0.1669,0.0415,0.0131,0.19,179.00,114.69,0.6022,1.3776,-8.5140,8.6457
1,1,0,1,1,00.393,393,0.1500,0.8500,-9.9800,10.0173,-0.0436,-0.2018,0.0022,-1.13,179.38,114.75,0.5426,1.3081,-8.7072,8.8216
1,1,0,1,1,00.524,524,0.3400,0.7100,-9.8800,9.9113,0.1974,0.1233,-0.0687,-1.19,178.19,114.56,0.5159,1.2293,-8.8617,8.9615
1,1,0,1,1,00.659,659,0.7400,0.5100,-10.2300,10.2694,0.2345,0.2334,-0.1996,0.00,176.31,115.75,0.5454,1.1345,-9.0420,9.1292
1,1,0,1,1,00.790,790,0.7000,1.1400,-9.7400,9.8314,-0.0098,-0.3774,-0.1440,-0.75,175.38,117.25,0.5658,1.1352,-9.1340,9.2217
1,1,0,1,1,00.920,920,-0.2300,1.5000,-9.4500,9.5711,0.1069,-0.3109,0.0785,-3.38,174.94,117.94,0.4609,1.1833,-9.1757,9.2631
1,1,0,1,1,01.093,1093,0.7000,0.8100,-9.2200,9.2819,0.3665,0.3272,0.2182,-1.94,171.00,117.00,0.4924,1.1341,-9.1815,9.2644
1,1,0,1,1,01.224,1224,0.8400,1.2900,-9.4600,9.5844,-0.1462,0.0731,0.0840,-0.50,170.94,115.44,0.5382,1.1546,-9.2182,9.3058
1,1,0,1,1,01.354,1354,0.8200,1.5700,-9.5900,9.7522,-0.1374,-0.2443,-0.0251,-0.94,172.44,114.94,0.5754,1.2094,-9.2672,9.3635
1,1,0,1,1,01.485,1485,0.3900,1.2300,-9.3800,9.4683,0.1582,-0.1516,-0.1178,-2.81,172.00,116.25,0.5509,1.2121,-9.2821,9.3771
1,1,0,1,1,01.616,1616,0.5200,1.4400,-10.1000,10.2154,0.0284,0.0873,-0.1200,-2.69,170.94,116.81,0.5469,1.2421,-9.3898,9.4874
1,1,0,1,1,01.748,1748,1.2600,1.7800,-9.1500,9.4063,-0.0076,-0.1331,-0.0404,-2.75,171.38,117.13,0.6408,1.3130,-9.3582,9.4716
1,1,0,1,1,01.879,1879,0.5500,1.5300,-9.2000,9.3426,0.2073,-0.3392,0.0371,-4.94,170.44,117.19,0.6289,1.3416,-9.3374,9.4542
1,1,0,1,1,02.013,2013,0.9700,1.6700,-9.1900,9.3907,0.0644,0.3054,-0.0229,-4.69,169.44,117.13,0.6738,1.3849,-9.3180,9.4444
1,1,0,1,1,02.186,2186,1.1200,2.1100,-9.6700,9.9607,0.0120,-0.0731,0.1080,-1.56,169.81,116.38,0.7326,1.4804,-9.3644,9.5089
1,1,0,1,1,02.316,2316,0.9800,1.7000,-9.3800,9.5830,0.0175,-0.1865,-0.0916,-3.19,169.75,116.69,0.7652,1.5094,-9.3664,9.5181
1,1,0,1,1,02.446,2446,1.0300,1.9900,-8.1700,8.4717,0.1724,0.0393,-0.5083,-3.69,169.19,118.50,0.8001,1.5727,-9.2088,9.3763
1,1,0,1,1,02.576,2576,0.6000,1.8200,-10.0300,10.2114,-0.1124,0.0764,-0.2531,-3.06,168.94,121.31,0.7737,1.6053,-9.3170,9.4859
1,1,0,1,1,02.707,2707,0.8600,2.2300,-9.4000,9.6991,0.1145,0.0011,-0.0894,-2.38,169.50,121.94,0.7851,1.6876,-9.3279,9.5118
1,1,0,1,1,02.837,2837,0.2400,1.5000,-8.3900,8.5264,0.5520,-0.1353,-0.3556,-2.44,165.69,124.50,0.7133,1.6629,-9.2043,9.3805
1,1,0,1,1,02.967,2967,0.7600,1.7900,-9.3800,9.5795,-0.6850,-0.1145,-0.0175,-3.00,167.19,125.31,0.7194,1.6796,-9.2275,9.4066
1,1,0,1,1,03.097,3097,0.3400,2.3600,-9.3100,9.6105,-0.2618,-0.1407,-0.0207,-4.38,170.56,125.81,0.6694,1.7693,-9.2383,9.4300
1,1,0,1,1,03.270,3270,0.8300,1.2400,-9.5200,9.6362,-0.1069,0.3807,0.1036,-3.00,171.50,124.75,0.6906,1.6995,-9.2755,9.4551
1,1,0,1,1,03.400,3400,1.5800,0.7000,-11.2800,11.4116,-0.3131,0.1342,0.1287,-1.00,173.06,123.63,0.8078,1.5678,-9.5396,9.7013
1,1,0,1,1,03.531,3531,0.3200,1.2900,-8.3000,8.4057,0.2171,-0.1156,0.1396,-1.13,174.00,122.88,0.7435,1.5312,-9.3763,9.5295
1,1,0,1,1,03.661,3661,0.5400,0.4100,-10.4500,10.4720,-0.3022,0.2127,0.1233,-1.19,173.75,121.75,0.7167,1.3835,-9.5178,9.6444
1,1,0,1,1,03.792,3792,0.6100,1.4800,-9.8000,9.9299,-0.0458,-0.0360,0.2160,-0.44,176.13,120.75,0.7026,1.3962,-9.5549,9.6819
1,1,0,1,1,03.923,3923,1.0700,0.0300,-9.0900,9.1528,0.0829,-0.3796,0.2258,-2.31,175.06,118.81,0.7510,1.2162,-9.4937,9.6007
1,1,0,1,1,04.054,4054,0.2800,0.5800,-9.5300,9.5517,-0.3185,-0.0894,0.1014,-4.56,176.44,116.19,0.6890,1.1323,-9.4985,9.5905
1,1,0,1,1,04.185,4185,1.3300,0.6600,-9.1300,9.2499,0.1265,0.4189,0.1494,-2.56,177.75,115.19,0.7734,1.0701,-9.4499,9.5417
1,1,0,1,1,04.360,4360,0.9500,0.2100,-10.1000,10.1468,-0.0513,0.0065,0.0524,-1.31,176.63,114.50,0.7967,0.9568,-9.5356,9.6165
1,1,0,1,1,04.490,4490,0.3600,1.0700,-8.8900,8.9614,0.1211,0.0349,-0.0742,-1.19,177.13,114.13,0.7392,0.9717,-9.4505,9.5290
1,1,0,1,1,04.622,4622,0.0000,0.6600,-9.7200,9.7424,0.1527,0.2749,-0.0295,0.00,175.00,114.44,0.6418,0.9306,-9.4860,9.5531
1,1,0,1,1,04.752,4752,0.5200,0.7900,-9.6000,9.6465,-0.2443,0.0567,0.0415,1.44,176.19,114.25,0.6257,0.9121,-9.5010,9.5652
1,1,0,1,1,04.882,4882,0.0100,0.8800,-9.4900,9.5307,-0.0338,-0.2651,0.0742,-0.25,177.00,114.00,0.5446,0.9078,-9.4996,9.5584
1,1,0,1,1,05.013,5013,-0.1000,0.5600,-9.9900,10.0062,0.1887,0.1462,0.0971,-0.19,176.00,113.75,0.4596,0.8620,-9.5642,9.6140
1,1,0,1,1,05.143,5143,0.6600,0.2500,-9.2700,9.2968,-0.0164,0.0251,0.0633,0.44,175.38,113.44,0.4860,0.7814,-9.5254,9.5698
1,1,0,1,1,05.274,5274,0.5200,0.4300,-9.2600,9.2846,-0.2902,-0.2149,0.0796,-0.88,177.19,113.06,0.4905,0.7351,-9.4905,9.5315
1,1,0,1,1,05.446,5446,0.3900,0.4700,-10.2000,10.2183,-0.2443,-0.0851,-0.0087,-3.00,179.75,112.25,0.4773,0.7001,-9.5840,9.6213
1,1,0,1,1,05.576,5576,0.3300,0.3700,-9.5500,9.5629,0.2302,0.0513,-0.0513,-2.88,179.56,112.38,0.4579,0.6566,-9.5795,9.6129
1,1,0,1,1,05.706,5706,0.4800,-0.1200,-9.5500,9.5628,0.1931,0.3425,-0.0829,-1.13,177.25,112.88,0.4608,0.5543,-9.5756,9.6027
1,1,0,1,1,05.836,5836,0.9700,0.4100,-9.3500,9.4091,-0.2225,-0.0185,0.0502,0.00,178.25,113.31,0.5279,0.5353,-9.5459,9.5754
1,1,0,1,1,05.966,5966,0.2000,0.2900,-9.7400,9.7464,-0.0273,-0.2487,0.0218,-1.63,179.13,112.88,0.4847,0.5030,-9.5715,9.5969
1,1,0,1,1,06.096,6096,0.2400,0.3400,-9.7200,9.7289,-0.0436,0.0175,-0.0524,-2.50,179.56,113.00,0.4524,0.4815,-9.5910,9.6138
1,1,0,1,1,06.227,6227,0.0700,0.3900,-9.8300,9.8380,0.2836,0.3447,-0.1571,-1.25,178.69,113.69,0.4020,0.4694,-9.6225,9.6423
1,1,0,1,1,06.357,6357,0.7600,0.1100,-9.5600,9.5908,-0.0698,-0.0545,-0.0393,0.00,177.69,113.75,0.4492,0.4221,-9.6143,9.6340
1,1,0,1,1,06.530,6530,0.1700,0.3100,-9.7500,9.7564,-0.1014,-0.3109,0.0295,-3.13,178.75,113.19,0.4124,0.4073,-9.6322,9.6496
1,1,0,1,1,06.660,6660,0.2700,0.3100,-9.8800,9.8885,0.0382,0.1974,-0.0447,-2.69,178.81,112.88,0.3937,0.3945,-9.6648,9.6809
1,1,0,1,1,06.790,6790,0.7100,0.5000,-9.9600,9.9978,0.0175,0.1036,0.0033,-1.25,178.56,113.19,0.4353,0.4084,-9.7037,9.7221
1,1,0,1,1,06.920,6920,0.1800,0.9200,-10.5900,10.6314,0.1745,-0.0785,0.0087,-1.69,177.75,113.13,0.4017,0.4758,-9.8205,9.8402
1,1,0,1,1,07.050,7050,0.3900,0.7400,-9.7700,9.8057,0.5651,0.0447,0.1473,-1.63,174.75,112.13,0.4001,0.5106,-9.8139,9.8353
1,1,0,1,1,07.180,7180,0.4000,0.8700,-9.1600,9.2099,0.3752,0.0185,0.0164,-1.56,171.44,111.69,0.4001,0.5580,-9.7277,9.7519
1,1,0,1,1,07.310,7310,0.3400,1.2100,-9.3100,9.3945,0.0327,-0.0818,0.0676,-1.88,170.44,111.44,0.3922,0.6439,-9.6727,9.7020
1,1,0,1,1,07.440,7440,0.4200,1.3700,-9.3400,9.4493,-0.0360,-0.1527,0.0262,-2.81,170.75,111.50,0.3959,0.7396,-9.6288,9.6653
1,1,0,1,1,07.613,7613,0.5900,2.0200,-9.5000,9.7303,0.3731,-0.1058,0.0654,-5.31,170.00,111.38,0.4215,0.9083,-9.6118,9.6639
1,1,0,1,1,07.743,7743,0.8300,1.8800,-9.1900,9.4170,0.3589,0.3087,0.0916,-4.06,167.06,111.19,0.4753,1.0363,-9.5563,9.6240
1,1,0,1,1,07.873,7873,1.6100,2.0200,-9.6900,10.0284,0.0654,-0.3174,0.0251,-4.06,165.75,111.00,0.6248,1.1660,-9.5739,9.6648
1,1,0,1,1,08.003,8003,1.0300,2.5300,-9.9500,10.3182,0.0175,-0.2825,0.0524,-6.88,165.63,111.75,0.6782,1.3457,-9.6234,9.7407
1,1,0,1,1,08.133,8133,0.8600,2.4000,-8.6700,9.0371,0.3131,0.0349,-0.1713,-7.56,164.19,112.19,0.7022,1.4846,-9.4978,9.6387
1,1,0,1,1,08.263,8263,1.0300,3.4200,-9.1100,9.7852,0.1625,-0.1102,-0.4112,-7.19,162.63,114.19,0.7454,1.7397,-9.4467,9.6344
1,1,0,1,1,08.393,8393,1.7500,3.0800,-9.0700,9.7372,0.3851,-0.0949,-0.2705,-6.94,160.00,117.13,0.8777,1.9163,-9.3971,9.6305
1,1,0,1,1,08.524,8524,1.0600,3.1900,-9.5000,10.0772,0.0316,-0.0033,-0.1844,-6.69,158.25,119.13,0.9018,2.0841,-9.4106,9.6807
1,1,0,1,1,08.696,8696,2.1100,3.4600,-7.6200,8.6306,0.2007,-0.0469,0.3043,-6.25,157.13,120.44,1.0610,2.2654,-9.1747,9.5096
1,1,0,1,1,08.826,8826,1.5500,3.5200,-8.7600,9.5672,0.0567,-0.2051,-0.2498,-7.63,155.69,121.50,1.1254,2.4308,-9.1200,9.5053
1,1,0,1,1,08.956,8956,1.5300,4.1000,-9.4000,10.3687,-0.1145,-0.1047,-0.0284,-8.69,156.38,123.56,1.1787,2.6507,-9.1569,9.6055
1,1,0,1,1,09.086,9086,1.3000,3.8300,-7.7500,8.7419,0.3403,-0.0862,0.1200,-9.31,155.44,123.44,1.1947,2.8061,-8.9715,9.4758
1,1,0,1,1,09.216,9216,1.8300,3.8700,-8.5300,9.5439,0.0164,-0.0382,0.0971,-9.94,153.94,123.00,1.2784,2.9463,-8.9133,9.4743
1,1,0,1,1,09.346,9346,1.6000,4.3700,-7.9300,9.1947,0.0164,-0.0524,0.1145,-10.44,154.25,123.06,1.3208,3.1339,-8.7838,9.4192
1,1,0,1,1,09.477,9477,1.9900,4.0300,-8.4800,9.5975,0.0524,0.0262,-0.0698,-10.50,153.38,122.75,1.4090,3.2520,-8.7437,9.4347
1,1,0,1,1,09.607,9607,2.0600,4.5500,-8.2200,9.6184,-0.1025,-0.0491,0.0873,-10.44,154.38,123.00,1.4948,3.4230,-8.6747,9.4447
1,1,0,1,1,09.780,9780,1.7700,4.2200,-7.6700,8.9314,0.1200,-0.0153,0.0175,-11.44,152.88,123.25,1.5310,3.5281,-8.5423,9.3682
1,1,0,1,1,09.911,9911,2.1100,3.9900,-8.1200,9.2901,-0.4243,0.1680,-0.0993,-10.50,153.94,123.00,1.6073,3.5889,-8.4867,9.3535
1,2,0,1,1,10.042,10042,1.7800,3.9900,-8.5800,9.6283,-0.3872,0.0087,-0.1833,-9.75,157.25,124.38,1.6301,3.6418,-8.4990,9.3889
1,2,0,1,1,10.173,10173,1.6700,3.4900,-10.1500,10.8624,-0.2214,-0.0829,-0.1396,-9.63,159.00,125.94,1.6353,3.6218,-8.7165,9.5796
1,2,0,1,1,10.304,10304,1.1700,3.1400,-8.5000,9.1367,0.0142,0.1974,-0.0371,-8.75,159.56,126.50,1.5740,3.5583,-8.6880,9.5195
1,2,0,1,1,10.439,10439,1.4300,3.0400,-8.9700,9.5785,-0.2269,0.0229,-0.0327,-8.06,160.31,126.44,1.5550,3.4900,-8.7252,9.5251
1,2,0,1,1,10.570,10570,1.6400,2.9800,-9.7000,10.2791,-0.2334,-0.1385,-0.0840,-8.25,162.13,126.94,1.5662,3.4228,-8.8536,9.6206
1,2,0,1,1,10.700,10700,1.2200,2.9500,-9.1600,9.7003,0.0295,0.0033,0.0567,-9.00,163.06,127.06,1.5206,3.3605,-8.8940,9.6285
1,2,0,1,1,10.873,10873,1.5200,2.5400,-8.5800,9.0763,-0.0502,0.1822,0.1254,-7.69,162.75,125.69,1.5205,3.2524,-8.8526,9.5529
1,2,0,1,1,11.004,11004,1.8800,2.4600,-9.3300,9.8303,-0.3120,0.1963,0.0360,-6.63,164.19,125.13,1.5679,3.1480,-8.9155,9.5841
1,2,0,1,1,11.134,11134,1.4200,2.6500,-9.2000,9.6788,-0.2411,-0.0884,0.0022,-6.44,166.50,125.06,1.5484,3.0823,-8.9530,9.5945
1,2,0,1,1,11.265,11265,0.6400,2.4800,-9.5700,9.9068,0.0033,0.2269,0.0622,-6.31,166.88,124.63,1.4287,3.0030,-9.0343,9.6269
1,2,0,1,1,11.395,11395,1.1200,2.2500,-9.6900,10.0106,0.0556,0.3054,0.0076,-3.75,166.38,123.63,1.3880,2.9037,-9.1207,9.6719
1,2,0,1,1,11.525,11525,0.6900,2.0300,-9.1200,9.3686,-0.0175,-0.1069,0.0098,-3.50,166.44,123.19,1.2960,2.7886,-9.1206,9.6251
1,2,0,1,1,11.656,11656,0.2900,1.8600,-9.1500,9.3416,-0.2389,-0.0142,0.0622,-4.38,167.19,122.75,1.1635,2.6662,-9.1245,9.5770
1,2,0,1,1,11.786,11786,0.6600,2.3300,-9.4800,9.7844,-0.1025,0.4123,0.1189,-2.81,169.13,122.00,1.0971,2.6219,-9.1713,9.6017
1,2,0,1,1,11.959,11959,0.2900,1.4500,-9.4500,9.5650,-0.0273,0.1462,0.1025,-0.06,168.50,120.19,0.9908,2.4675,-9.2081,9.5843
1,2,0,1,1,12.091,12091,0.0100,1.5200,-9.3200,9.4431,-0.1582,-0.0862,0.0305,-0.38,169.50,119.44,0.8615,2.3426,-9.2228,9.5546
1,2,0,1,1,12.225,12225,-0.0600,2.2200,-10.3300,10.5660,-0.1560,0.1713,0.0840,-0.25,171.19,118.63,0.7401,2.3265,-9.3687,9.6816
1,2,0,1,1,12.355,12355,0.0700,1.4200,-9.2700,9.3784,0.3163,0.1298,0.0545,0.81,169.88,117.69,0.6518,2.2070,-9.3557,9.6346
1,2,0,1,1,12.486,12486,-0.1800,1.3400,-9.5600,9.6551,-0.1822,0.0622,0.0295,1.13,169.75,117.44,0.5422,2.0928,-9.3826,9.6285
1,2,0,1,1,12.616,12616,0.2000,2.0000,-9.7300,9.9354,-0.3600,-0.0916,-0.0687,1.38,172.13,117.00,0.4971,2.0806,-9.4284,9.6680
1,2,0,1,1,12.747,12747,0.0200,1.2300,-9.7800,9.8571,-0.0316,-0.3382,0.0055,-1.00,172.56,116.69,0.4342,1.9685,-9.4747,9.6868
1,2,0,1,1,12.877,12877,-0.0600,1.4300,-9.5400,9.6468,-0.0240,0.0425,0.0894,-1.94,172.88,116.25,0.3691,1.8975,-9.4833,9.6783
1,2,0,1,1,13.050,13050,0.3700,1.0000,-9.6300,9.6888,0.0338,0.0305,-0.0065,-1.19,172.31,115.56,0.3692,1.7792,-9.5027,9.6748
1,2,0,1,1,13.180,13180,0.4600,1.6000,-9.7700,9.9108,-0.0862,-0.0131,0.0175,-1.00,172.88,115.06,0.3812,1.7556,-9.5379,9.7056
1,2,0,1,1,13.310,13310,0.3700,1.5700,-10.0900,10.2181,0.1724,-0.1309,0.0273,-1.75,171.88,115.00,0.3797,1.7312,-9.6106,9.7727
1,2,0,1,1,13.440,13440,0.6000,1.7600,-10.0200,10.1911,0.2193,-0.2083,-0.0175,-3.00,170.63,115.06,0.4087,1.7350,-9.6646,9.8276
1,2,0,1,1,13.570,13570,0.6100,1.6100,-9.4900,9.6449,0.3698,-0.2269,0.0175,-4.63,168.31,115.13,0.4353,1.7185,-9.6416,9.8032
1,2,0,1,1,13.700,13700,1.1400,1.9700,-9.5700,9.8369,0.1560,-0.2465,0.0436,-6.38,166.81,114.38,0.5281,1.7516,-9.6321,9.8044
1,2,0,1,1,13.831,13831,1.3000,2.3400,-8.6800,9.0834,0.2193,-0.1364,-0.0927,-7.75,165.25,114.88,0.6298,1.8292,-9.5067,9.7015
1,2,0,1,1,13.961,13961,1.2500,2.4700,-8.8300,9.2538,0.0796,-0.0764,-0.1069,-8.19,164.19,115.69,0.7116,1.9136,-9.4175,9.6363
1,2,0,1,1,14.134,14134,1.3100,2.8200,-9.2200,9.7302,0.1778,-0.1680,-0.2291,-9.44,163.00,116.81,0.7904,2.0331,-9.3915,9.6415
1,2,0,1,1,14.264,14264,1.7300,3.2200,-8.7600,9.4920,0.2171,0.0513,-0.1134,-9.06,161.13,119.06,0.9142,2.1895,-9.3083,9.6059
1,2,0,1,1,14.394,14394,1.7400,3.1200,-9.1000,9.7761,0.1265,-0.1724,-0.1505,-9.25,159.63,120.50,1.0230,2.3121,-9.2808,9.6190
1,2,0,1,1,14.524,14524,1.5200,3.2000,-8.5400,9.2456,0.0545,-0.1898,-0.1702,-10.19,158.81,122.31,1.0885,2.4291,-9.1832,9.5612
1,2,0,1,1,14.654,14654,1.4300,3.8200,-9.2200,10.0819,0.0742,-0.0436,-0.1145,-10.44,158.69,123.56,1.1335,2.6124,-9.1881,9.6192
1,2,0,1,1,14.784,14784,0.8800,4.0000,-9.0100,9.8972,0.3622,0.3665,-0.0316,-9.25,157.06,124.63,1.1001,2.7952,-9.1646,9.6443
1,2,0,1,1,14.914,14914,2.0600,3.9800,-8.6200,9.7154,0.3272,-0.0011,0.2018,-8.25,154.44,123.25,1.2266,2.9514,-9.0928,9.6382
1,2,0,1,1,15.044,15044,2.0600,4.0600,-8.0900,9.2831,0.3403,-0.5356,0.0229,-10.69,152.00,123.38,1.3364,3.0974,-8.9607,9.5747
1,2,0,1,1,15.217,15217,2.1800,4.1600,-6.6000,8.1005,0.2116,0.1876,0.2083,-13.00,148.94,124.63,1.4476,3.2375,-8.6496,9.3484
1,3,0,1,1,15.347,15347,2.8800,4.8500,-8.4000,10.1181,-0.1833,0.0513,0.0469,-11.63,149.38,124.06,1.6363,3.4500,-8.6167,9.4248
1,3,0,1,1,15.477,15477,2.3400,4.8600,-8.2600,9.8652,-0.0502,-0.3851,-0.0993,-12.88,150.13,125.13,1.7291,3.6358,-8.5697,9.4683
1,3,0,1,1,15.607,15607,1.8400,4.4400,-7.8000,9.1618,0.0327,-0.0316,-0.0687,-14.00,149.50,126.56,1.7437,3.7417,-8.4683,9.4209
1,3,0,1,1,15.737,15737,1.9900,4.8400,-8.5300,10.0073,-0.1887,0.1953,-0.0829,-12.94,150.31,127.19,1.7761,3.8865,-8.4764,9.4926
1,3,0,1,1,15.867,15867,1.6200,4.5100,-7.0500,8.5245,0.0425,0.2978,0.1898,-11.88,151.50,126.38,1.7556,3.9686,-8.2884,9.3558
1,3,0,1,1,15.997,15997,1.5500,3.9000,-8.3100,9.3096,-0.3971,0.6065,0.0436,-9.13,152.63,124.94,1.7285,3.9596,-8.2913,9.3494
1,3,0,1,1,16.127,16127,1.7500,3.7700,-9.1700,10.0680,-0.7505,0.2465,-0.1254,-6.13,157.69,124.19,1.7313,3.9346,-8.4071,9.4423
1,3,0,1,1,16.300,16300,0.3100,3.0700,-9.9800,10.4461,-0.3545,0.0556,-0.1309,-5.69,162.56,125.75,1.5440,3.8207,-8.6143,9.5493
1,3,0,1,1,16.430,16430,1.4000,2.4900,-8.9300,9.3758,-0.3185,-0.0774,0.0404,-5.13,164.50,125.88,1.5250,3.6453,-8.6559,9.5152
1,3,0,1,1,16.560,16560,0.8600,2.2800,-9.5500,9.8560,-0.2029,0.0055,-0.0207,-5.25,166.50,126.06,1.4374,3.4654,-8.7738,9.5422
1,3,0,1,1,16.690,16690,1.0400,1.8000,-8.7600,9.0033,-0.1113,-0.0480,0.0295,-5.63,167.88,125.50,1.3850,3.2459,-8.7719,9.4552
1,3,0,1,1,16.820,16820,0.9900,1.4800,-10.4200,10.5710,-0.5312,-0.2542,0.1669,-6.69,170.19,124.38,1.3330,3.0132,-8.9891,9.5740
1,3,0,1,1,16.950,16950,0.6900,1.4300,-9.7600,9.8883,-0.0949,-0.0535,0.0633,-7.94,172.25,123.19,1.2483,2.8046,-9.0907,9.5950
1,3,0,1,1,17.081,17081,0.6500,1.7400,-9.8200,9.9941,-0.0120,0.8018,0.0589,-4.88,172.81,121.81,1.1694,2.6643,-9.1868,9.6366
1,3,0,1,1,17.211,17211,0.8600,1.0300,-8.5900,8.6942,0.1953,0.0415,0.2149,-2.06,171.81,119.56,1.1286,2.4490,-9.1082,9.4989
1,3,0,1,1,17.384,17384,0.3500,0.8100,-9.5400,9.5807,-0.5640,-0.1091,0.0076,-2.06,173.63,118.06,1.0260,2.2330,-9.1651,9.4888
1,3,0,1,1,17.515,17515,0.5100,0.9700,-9.1800,9.2452,-0.3185,-0.2105,0.0240,-3.31,177.19,117.88,0.9580,2.0666,-9.1670,9.4458
1,3,0,1,1,17.645,17645,-0.1800,0.0600,-10.9300,10.9316,-0.0480,0.2422,0.0425,-3.25,178.00,116.50,0.8081,1.8021,-9.3993,9.6046
1,3,0,1,1,17.776,17776,0.6800,0.4600,-8.2500,8.2907,0.0338,0.3752,0.1254,0.19,178.81,115.56,0.7912,1.6253,-9.2479,9.4229
1,3,0,1,1,17.906,17906,-0.0900,-0.7000,-9.7700,9.7955,-0.1734,-0.0131,0.0622,0.63,178.50,113.94,0.6751,1.3189,-9.3167,9.4338
1,3,0,1,1,18.037,18037,-0.1800,0.2100,-10.3200,10.3237,-0.5171,0.0240,0.0600,0.81,-177.88,113.00,0.5624,1.1728,-9.4489,9.5380
1,3,0,1,1,18.168,18168,-0.2300,0.1000,-10.3700,10.3730,0.1244,-0.0567,0.0949,0.75,-177.38,112.13,0.4580,1.0314,-9.5703,9.6366
1,3,0,1,1,18.298,18298,0.4100,-0.3200,-9.3000,9.3145,0.4189,-0.0894,-0.0142,0.63,179.88,111.81,0.4517,0.8533,-9.5347,9.5834
1,3,0,1,1,18.471,18471,0.3100,0.0000,-9.9300,9.9348,-0.2531,-0.2029,-0.0229,-1.63,178.81,112.00,0.4330,0.7409,-9.5868,9.6251
1,3,0,1,1,18.605,18605,0.3400,0.0500,-9.4600,9.4662,0.0622,-0.0960,-0.0753,-2.50,179.50,112.13,0.4207,0.6498,-9.5701,9.6013
1,3,0,1,1,18.735,18735,0.5000,0.0800,-10.1300,10.1426,-0.0785,-0.0011,0.0273,-2.88,179.69,112.19,0.4312,0.5747,-9.6438,9.6706
1,3,0,1,1,18.867,18867,0.3900,0.1400,-10.0500,10.0585,0.2967,-0.0338,0.1134,-2.75,178.88,111.81,0.4258,0.5175,-9.6974,9.7205
1,3,0,1,1,18.997,18997,0.1200,0.0400,-10.0100,10.0108,0.1811,0.0851,-0.0360,-2.44,176.94,111.25,0.3855,0.4545,-9.7386,9.7568
1,3,0,1,1,19.127,19127,0.4200,0.2800,-9.4300,9.4435,-0.0273,-0.0676,-0.0622,-2.38,176.88,111.06,0.3900,0.4315,-9.6979,9.7153
1,3,0,1,1,19.257,19257,0.3900,0.4200,-9.2000,9.2178,-0.0698,0.0175,-0.0153,-2.69,177.50,111.00,0.3900,0.4300,-9.6323,9.6498
1,3,0,1,1,19.388,19388,0.2600,0.6000,-9.6600,9.6821,-0.0273,-0.0087,-0.2585,-1.63,177.63,112.38,0.3729,0.4524,-9.6359,9.6538
1,3,0,1,1,19.561,19561,0.4300,0.3200,-9.8500,9.8646,0.1963,-0.0556,-0.2149,-1.56,175.94,114.44,0.3804,0.4350,-9.6641,9.6814
1,3,0,1,1,19.693,19693,0.1200,0.8000,-9.1800,9.2156,0.2989,-0.1549,-0.0938,-2.25,174.44,115.38,0.3461,0.4831,-9.6004,9.6187
1,3,0,1,1,19.824,19824,0.0100,1.2000,-9.8800,9.9526,-0.2443,0.1200,0.1789,-2.19,173.38,115.31,0.3018,0.5775,-9.6372,9.6592
1,3,0,1,1,19.959,19959,0.5100,1.7900,-9.7400,9.9162,0.1713,-0.2138,0.0698,-2.19,174.44,114.44,0.3292,0.7373,-9.6507,9.6845
1,3,0,1,1,20.090,20090,1.0600,0.6300,-9.2700,9.3517,0.4080,-0.1320,-0.1909,-3.56,171.63,114.88,0.4255,0.7232,-9.6006,9.6372
1,3,0,1,1,20.221,20221,0.0600,1.4100,-9.4300,9.5350,0.0284,-0.1287,-0.1942,-4.00,169.69,116.50,0.3774,0.8137,-9.5781,9.6200
1,3,0,1,1,20.351,20351,0.9900,1.8800,-9.8600,10.0863,0.3916,0.0535,-0.0774,-4.19,169.19,117.63,0.4581,0.9542,-9.6152,9.6733
1,3,0,1,1,20.481,20481,0.8300,1.9300,-9.6800,9.9054,0.2509,0.0404,0.0873,-3.56,166.75,118.44,0.5071,1.0828,-9.6238,9.6978
1,3,0,1,1,20.654,20654,2.3900,2.2800,-8.8400,9.4370,0.5105,-0.6938,0.1364,-5.38,163.50,118.56,0.7552,1.2405,-9.5205,9.6306
1,3,0,1,1,20.785,20785,0.7500,3.3200,-8.2700,8.9430,0.2203,-0.2923,-0.0240,-9.31,161.06,120.94,0.7545,1.5146,-9.3557,9.5075
1,3,0,1,1,20.915,20915,0.8600,3.1000,-7.8200,8.4559,0.2182,0.2803,0.1091,-8.94,158.69,121.63,0.7684,1.7235,-9.1533,9.3458
1,3,0,1,1,21.046,21046,1.9700,3.8700,-9.1300,10.1101,-0.1953,0.2083,0.1604,-7.13,159.63,120.31,0.9268,2.0063,-9.1503,9.4134
1,3,0,1,1,21.177,21177,1.5300,3.2300,-8.2800,9.0184,0.1931,-0.2585,0.0044,-8.19,159.19,120.25,1.0063,2.1676,-9.0356,9.3463
1,3,0,1,1,21.307,21307,1.1700,2.9400,-8.6700,9.2294,-0.2847,0.1516,-0.0196,-8.38,159.69,121.06,1.0278,2.2694,-8.9874,9.3263
1,3,0,1,1,21.438,21438,1.4100,2.7600,-9.0100,9.5282,-0.1920,0.3294,-0.0207,-6.44,161.50,121.44,1.0782,2.3340,-8.9904,9.3508
1,3,0,1,1,21.568,21568,1.3000,2.7400,-9.4100,9.8866,-0.2149,-0.0164,-0.0196,-5.81,163.44,121.44,1.1074,2.3875,-9.0457,9.4208
1,3,0,1,1,21.741,21741,0.8400,2.2300,-9.5300,9.8234,-0.0993,0.2498,0.0065,-5.38,164.25,121.19,1.0722,2.3668,-9.1095,9.4728
1,3,0,1,1,21.875,21875,1.0900,2.4000,-9.1800,9.5509,-0.2738,-0.0753,-0.0185,-4.44,166.13,120.88,1.0745,2.3711,-9.1188,9.4831
1,3,0,1,1,22.006,22006,1.0700,2.2700,-9.7400,10.0581,-0.3752,-0.3709,0.0098,-6.19,168.25,121.38,1.0739,2.3578,-9.2007,9.5585
1,3,0,1,1,22.136,22136,0.5700,1.7000,-9.3100,9.4811,0.1134,0.2040,0.0065,-6.75,168.75,121.50,1.0075,2.2711,-9.2151,9.5441
1,3,0,1,1,22.267,22267,1.4400,0.9900,-10.9100,11.0491,-0.4538,0.3022,-0.0218,-4.44,169.75,120.81,1.0645,2.1023,-9.4384,9.7281
1,3,0,1,1,22.397,22397,1.4200,1.9900,-8.2900,8.6430,0.1331,-0.3534,-0.0022,-4.88,172.38,120.81,1.1114,2.0875,-9.2871,9.5835
1,3,0,1,1,22.528,22528,0.6400,0.4300,-8.9800,9.0130,-0.1942,-0.1025,0.0382,-7.25,170.94,120.94,1.0492,1.8691,-9.2466,9.4918
1,3,0,1,1,22.658,22658,1.2200,1.2700,-9.5500,9.7110,-0.4669,0.2094,-0.0491,-6.19,174.69,120.81,1.0717,1.7901,-9.2866,9.5181
1,3,0,1,1,22.831,22831,0.9900,1.3800,-9.8000,9.9461,0.2967,0.5956,0.1680,-3.19,175.63,119.13,1.0610,1.7361,-9.3542,9.5730
1,3,0,1,1,22.961,22961,1.0300,-0.0800,-9.0000,9.0591,0.1996,-0.0829,0.0840,-1.56,172.75,117.50,1.0569,1.4968,-9.3076,9.4862
1,3,0,1,1,23.091,23091,0.7400,0.9200,-9.7700,9.8411,-0.6338,-0.2782,0.0393,-3.31,175.25,117.00,1.0151,1.4208,-9.3685,9.5298
1,3,0,1,1,23.221,23221,0.1300,1.4400,-9.4500,9.5600,0.1484,0.1604,-0.0622,-4.25,177.31,116.81,0.8985,1.4233,-9.3792,9.5291
1,3,0,1,1,23.351,23351,0.6600,0.1200,-9.3000,9.3242,0.2116,0.2083,-0.0131,-2.56,175.00,116.31,0.8671,1.2516,-9.3688,9.4917
1,3,0,1,1,23.481,23481,0.5700,0.3200,-10.1000,10.1211,-0.3011,-0.2116,0.0251,-2.63,175.88,116.00,0.8279,1.1288,-9.4652,9.5681
1,3,0,1,1,23.611,23611,0.7300,1.3500,-9.4100,9.5343,-0.0545,-0.1276,0.0207,-3.75,178.00,115.50,0.8150,1.1580,-9.4579,9.5633
1,3,0,1,1,23.741,23741,0.3500,0.5200,-9.8300,9.8500,0.2553,-0.0262,0.0709,-4.75,176.25,114.44,0.7537,1.0739,-9.5069,9.5970
1,3,0,1,1,23.914,23914,1.1000,1.1400,-9.6400,9.7693,0.2956,0.0153,0.0851,-3.63,175.25,114.13,0.7994,1.0826,-9.5245,9.6191
1,3,0,1,1,24.044,24044,0.7900,0.5600,-9.6500,9.6985,0.0185,-0.1134,0.0982,-4.50,173.56,113.75,0.7981,1.0137,-9.5410,9.6278
1,3,0,1,1,24.174,24174,1.0400,1.1000,-9.6800,9.7977,-0.1014,-0.0687,0.0120,-5.00,174.75,113.44,0.8300,1.0251,-9.5593,9.6499
1,3,0,1,1,24.304,24304,1.4300,1.2100,-10.5800,10.7446,-0.1189,-0.0131,-0.0938,-5.31,175.38,114.00,0.9091,1.0495,-9.6938,9.7927
1,3,0,1,1,24.434,24434,1.1200,1.0800,-9.8400,9.9622,0.4483,-0.1854,-0.0611,-6.31,174.00,114.69,0.9369,1.0535,-9.7131,9.8149
1,4,0,1,1,24.564,24564,0.9700,1.3100,-9.4800,9.6191,0.2051,-0.1113,-0.0894,-7.50,171.75,115.19,0.9412,1.0873,-9.6824,9.7886
1,4,0,1,1,24.695,24695,1.2700,0.8100,-9.3900,9.5101,0.0251,-0.1931,-0.0556,-8.06,169.75,115.38,0.9846,1.0508,-9.6438,9.7507
1,4,0,1,1,24.825,24825,1.3700,2.4600,-9.1800,9.6021,0.1364,0.1407,-0.1331,-8.44,170.63,115.94,1.0353,1.2365,-9.5827,9.7175
1,4,0,1,1,24.998,24998,1.7300,1.6600,-9.8700,10.1570,0.2793,-0.1353,-0.0851,-7.94,167.44,116.25,1.1269,1.2923,-9.6206,9.7722
1,4,0,1,1,25.128,25128,1.4300,2.2800,-8.8200,9.2215,0.2171,-0.2945,-0.0382,-9.56,166.00,117.31,1.1668,1.4224,-9.5151,9.6913
1,4,0,1,1,25.258,25258,1.3100,2.0900,-9.8700,10.1735,0.1647,-0.0098,-0.0774,-10.81,164.19,118.44,1.1857,1.5104,-9.5618,9.7527
1,4,0,1,1,25.388,25388,2.2000,3.0000,-8.4200,9.2052,0.3142,-0.0567,0.0404,-10.19,163.06,118.69,1.3194,1.7067,-9.4114,9.6554
1,4,0,1,1,25.518,25518,1.9200,2.8600,-9.1000,9.7302,-0.0033,-0.2193,-0.0229,-11.56,161.56,119.31,1.3985,1.8587,-9.3703,9.6547
1,4,0,1,1,25.648,25648,2.0900,2.8800,-9.5000,10.1446,-0.0982,-0.2280,-0.0851,-13.06,161.75,120.44,1.4896,1.9933,-9.3874,9.7116
1,4,0,1,1,25.778,25778,3.3400,3.4700,-8.0800,9.4065,0.2280,0.2891,0.1451,-12.63,162.31,120.56,1.7335,2.1878,-9.2151,9.6286
1,4,0,1,1,25.908,25908,2.3600,3.3100,-9.1100,9.9759,0.0524,-0.0949,-0.0164,-12.63,160.63,120.88,1.8160,2.3357,-9.2013,9.6653
1,4,0,1,1,26.081,26081,2.1200,3.2600,-8.7100,9.5387,0.1276,-0.0556,-0.1702,-13.69,158.94,122.13,1.8561,2.4575,-9.1366,9.6416
1,4,0,1,1,26.211,26211,2.5000,2.8800,-8.5600,9.3711,-0.0862,-0.0502,-0.0382,-13.56,158.63,123.69,1.9409,2.5132,-9.0606,9.6009
1,4,0,1,1,26.341,26341,2.4700,3.6600,-6.7100,8.0325,0.1145,0.0589,-0.1178,-13.31,158.44,124.69,2.0106,2.6643,-8.7508,9.3658
1,4,0,1,1,26.471,26471,1.5300,3.4500,-9.1400,9.8885,-0.3480,0.2105,-0.0131,-13.00,158.88,125.56,1.9473,2.7678,-8.8021,9.4303
1,4,0,1,1,26.601,26601,2.3200,3.5000,-8.4100,9.4000,-0.0142,0.0338,-0.0840,-11.88,160.63,125.56,1.9964,2.8643,-8.7504,9.4213
1,4,0,1,1,26.731,26731,1.7500,2.7000,-9.3300,9.8692,-0.1582,0.2847,-0.0687,-11.00,160.56,126.06,1.9639,2.8427,-8.8268,9.4790
1,4,0,1,1,26.862,26862,2.0400,2.5300,-9.7700,10.2964,-0.4211,-0.0033,-0.0545,-9.44,163.13,126.19,1.9740,2.8015,-8.9511,9.5847
1,4,0,1,1,26.992,26992,1.5200,3.5100,-8.8000,9.5953,-0.0840,-0.3229,-0.1014,-11.00,165.38,126.63,1.9141,2.8948,-8.9312,9.5818
1,4,0,1,1,27.165,27165,1.2400,1.1500,-8.5000,8.6666,-0.1200,-0.1145,-0.1309,-13.44,163.56,127.13,1.8253,2.6649,-8.8744,9.4439
1,4,0,1,1,27.296,27296,1.2100,2.6500,-10.1600,10.5694,-0.7494,1.0527,0.0185,-8.63,167.81,129.63,1.7442,2.6629,-9.0438,9.5877
1,4,0,1,1,27.426,27426,1.4600,2.3600,-9.8300,10.2142,0.3272,0.6490,0.1233,-1.81,169.06,128.06,1.7068,2.6230,-9.1474,9.6679
1,4,0,1,1,27.557,27557,0.5400,1.6700,-9.3600,9.5231,0.1014,-0.3272,0.1134,-1.88,167.25,127.19,1.5530,2.4974,-9.1754,9.6352
1,4,0,1,1,27.687,27687,0.0500,1.3700,-9.3600,9.4599,-0.2389,-0.0458,0.1265,-3.44,167.94,126.88,1.3550,2.3489,-9.1997,9.5910
1,4,0,1,1,27.817,27817,0.3900,1.5000,-10.2400,10.3566,-0.6010,0.4134,-0.1396,-1.69,171.50,126.81,1.2278,2.2370,-9.3368,9.6792
1,4,0,1,1,27.948,27948,1.1500,1.4500,-9.1300,9.3157,-0.1636,0.0502,0.0207,0.38,174.69,126.19,1.2176,2.1333,-9.3096,9.6282
1,4,0,1,1,28.078,28078,0.4800,0.7900,-9.4800,9.5250,-0.0644,-0.2105,0.0633,-0.56,174.81,125.25,1.1204,1.9563,-9.3320,9.6005
1,4,0,1,1,28.251,28251,-0.0600,0.5400,-9.8300,9.8450,-0.1091,0.2193,0.1080,-1.50,176.19,124.44,0.9648,1.7697,-9.3976,9.6114
1,4,0,1,1,28.385,28385,1.1800,0.5500,-9.1100,9.2026,-0.0273,0.1080,0.2574,0.31,176.69,122.19,0.9932,1.6089,-9.3597,9.5488
1,4,0,1,1,28.516,28516,-0.1600,0.3500,-10.2700,10.2772,-0.3163,-0.2225,0.0600,-0.94,178.06,121.50,0.8412,1.4430,-9.4797,9.6257
1,4,0,1,1,28.647,28647,0.0800,0.7300,-10.0300,10.0568,-0.1309,0.0447,0.0033,-0.94,179.50,121.31,0.7409,1.3491,-9.5522,9.6754
1,4,0,1,1,28.777,28777,0.3000,-0.0500,-9.3300,9.3350,0.2269,-0.0676,0.1407,-0.94,178.38,120.19,0.6828,1.1647,-9.5229,9.6182
1,4,0,1,1,28.908,28908,0.5200,-0.0200,-9.6000,9.6141,-0.2411,-0.0229,0.2214,-1.88,178.94,118.75,0.6614,1.0086,-9.5331,9.6091
1,4,0,1,1,29.038,29038,0.3500,0.1600,-9.4900,9.4978,-0.0742,0.0971,0.0469,-1.56,-179.63,118.25,0.6203,0.8968,-9.5274,9.5896
1,4,0,1,1,29.169,29169,0.2600,-0.3400,-9.7100,9.7194,-0.0076,0.0720,0.0109,-1.00,-179.69,117.75,0.5728,0.7338,-9.5515,9.5967
1,4,0,1,1,29.357,29357,0.2000,0.0600,-9.5500,9.5523,0.2138,-0.0185,0.1364,-1.13,-179.63,116.25,0.5237,0.6450,-9.5513,9.5873
1,4,0,1,1,29.489,29489,-0.0200,-0.5500,-9.8000,9.8154,0.0818,0.1080,0.0360,-0.88,178.88,115.00,0.4521,0.4875,-9.5840,9.6071
1,4,0,1,1,29.620,29620,0.4500,0.5600,-10.5200,10.5445,-0.1658,0.3305,-0.1014,1.44,-179.63,115.63,0.4518,0.4971,-9.7074,9.7306
1,4,0,1,1,29.751,29751,0.6800,0.8400,-10.4900,10.5455,0.4003,-0.2160,-0.0873,1.38,179.19,116.19,0.4819,0.5423,-9.8105,9.8373
1,4,0,1,1,29.881,29881,-0.6600,-0.3900,-9.9500,9.9795,0.4265,-0.1374,-0.0884,-0.38,175.00,116.94,0.3314,0.4194,-9.8289,9.8434
1,4,0,1,1,30.011,30011,-0.0200,0.8900,-8.7700,8.8151,0.1320,0.0175,-0.1538,-0.50,173.94,117.56,0.2851,0.4814,-9.6894,9.7055
1,4,0,1,1,30.142,30142,0.4500,0.4500,-9.2600,9.2818,-0.1069,-0.0491,-0.0633,-0.63,173.56,117.94,0.3068,0.4773,-9.6328,9.6495
1,4,0,1,1,30.272,30272,0.3200,1.2500,-9.5300,9.6170,-0.2334,0.1156,0.0469,-0.25,175.50,118.38,0.3086,0.5791,-9.6192,9.6416
1,4,0,1,1,30.445,30445,0.2800,1.3200,-9.6600,9.7538,0.2291,-0.1124,-0.0415,-0.75,174.94,118.69,0.3048,0.6767,-9.6246,9.6532
1,4,0,1,1,30.576,30576,0.4300,0.7600,-9.8300,9.8687,0.3065,-0.1014,-0.0622,-1.00,172.44,119.81,0.3213,0.6877,-9.6517,9.6815
1,4,0,1,1,30.707,30707,-0.0600,1.4600,-9.1000,9.2166,-0.0262,-0.0938,-0.0807,-1.81,171.88,120.56,0.2710,0.7895,-9.5790,9.6153
1,4,0,1,1,30.837,30837,0.1500,1.3600,-10.0600,10.1526,0.1309,-0.0240,-0.1865,-2.06,170.75,121.56,0.2551,0.8647,-9.6424,9.6844
1,4,0,1,1,30.968,30968,0.8500,1.1400,-10.1100,10.2095,0.0567,-0.2291,-0.2847,-2.94,169.94,122.38,0.3335,0.9009,-9.7040,9.7514
1,4,0,1,1,31.098,31098,0.6500,1.8200,-9.6400,9.8318,0.0731,-0.0927,-0.0742,-4.44,169.81,123.63,0.3752,1.0221,-9.6956,9.7565
1,4,0,1,1,31.234,31234,0.2500,2.2800,-9.4700,9.7438,0.2247,0.0196,0.0087,-4.50,168.63,124.13,0.3587,1.1878,-9.6658,9.7451
1,4,0,1,1,31.364,31364,0.6700,1.7600,-9.2600,9.4496,0.3382,0.0545,0.0153,-3.44,165.31,124.25,0.3997,1.2632,-9.6124,9.7032
1,4,0,1,1,31.537,31537,1.0200,2.7200,-9.1500,9.6001,0.2105,-0.1113,0.1069,-4.94,163.44,123.25,0.4815,1.4552,-9.5514,9.6736
1,4,0,1,1,31.667,31667,1.0900,3.2900,-9.0600,9.7003,0.2945,-0.0993,0.0458,-5.69,162.00,123.50,0.5616,1.6970,-9.4867,9.6536
1,4,0,1,1,31.797,31797,1.8900,2.8000,-8.5900,9.2304,0.7123,-0.1996,0.0305,-6.81,158.00,123.44,0.7367,1.8423,-9.3685,9.5763
1,4,0,1,1,31.927,31927,0.6700,3.9800,-8.9800,9.8453,-0.1156,-0.1364,0.1254,-7.75,155.75,124.94,0.7279,2.1240,-9.3173,9.5840
1,4,0,1,1,32.058,32058,1.7300,3.8200,-7.1800,8.3149,0.3862,-0.0949,0.1156,-8.63,154.19,125.00,0.8600,2.3475,-9.0357,9.3752
1,4,0,1,1,32.188,32188,1.1800,4.0700,-8.9200,9.8754,-0.3971,0.1756,-0.1331,-8.00,154.38,125.75,0.9021,2.5745,-9.0204,9.4239
1,4,0,1,1,32.319,32319,1.7500,3.9000,-7.7100,8.8157,0.0894,0.1036,0.2640,-6.88,155.94,125.75,1.0139,2.7491,-8.8477,9.3203
1,5,0,1,1,32.449,32449,1.1800,3.1900,-8.7300,9.3692,-0.2073,-0.0545,-0.1244,-7.25,155.31,126.13,1.0357,2.8072,-8.8322,9.3253
1,5,0,1,1,32.622,32622,1.1100,3.8500,-9.0900,9.9339,-0.2334,0.1102,-0.1494,-6.88,159.06,127.13,1.0455,2.9447,-8.8662,9.4007
1,5,0,1,1,32.752,32752,0.9100,3.2800,-8.8200,9.4540,-0.1702,0.2400,0.0022,-5.31,160.19,127.31,1.0277,2.9888,-8.8601,9.4070
1,5,0,1,1,32.883,32883,1.2000,2.4200,-8.5300,8.9475,-0.2902,0.3011,0.0415,-2.75,161.06,127.00,1.0504,2.9139,-8.8166,9.3449
1,5,0,1,1,33.014,33014,0.9600,2.9000,-9.8300,10.2937,-0.6327,-0.1953,-0.0502,-2.56,165.44,127.75,1.0385,2.9121,-8.9501,9.4691
1,5,0,1,1,33.144,33144,0.2300,1.9500,-9.3600,9.5637,0.1396,-0.1844,-0.0295,-4.38,166.31,128.25,0.9319,2.7853,-9.0042,9.4711
1,5,0,1,1,33.275,33275,0.6300,1.4400,-9.6200,9.7476,-0.2945,0.2945,-0.0600,-3.44,166.94,128.38,0.8921,2.6080,-9.0853,9.4942
1,5,0,1,1,33.405,33405,0.7900,2.1900,-9.6600,9.9366,-0.2171,0.0480,0.0295,-1.94,169.50,128.44,0.8787,2.5529,-9.1610,9.5506
1,5,0,1,1,33.537,33537,0.2100,1.2900,-9.5600,9.6489,0.0807,-0.1178,0.0535,-3.00,169.50,127.56,0.7906,2.3865,-9.2136,9.5504
1,5,0,1,1,33.713,33713,0.6600,1.8000,-9.1800,9.3781,-0.0622,0.3218,0.1036,-1.06,171.31,126.75,0.7734,2.3092,-9.2092,9.5257
1,5,0,1,1,33.843,33843,0.4300,0.6500,-9.2600,9.2927,-0.0447,-0.0676,0.1080,-1.13,170.63,125.50,0.7281,2.0906,-9.2159,9.4780
1,5,0,1,1,33.974,33974,0.1800,1.3600,-9.7800,9.8757,-0.4603,0.1265,0.0055,-0.81,173.44,125.00,0.6559,1.9943,-9.2902,9.5245
1,5,0,1,1,34.104,34104,0.1800,0.6900,-9.7400,9.7661,-0.0076,-0.0425,-0.0196,-0.69,174.44,124.75,0.5932,1.8224,-9.3495,9.5439
1,5,0,1,1,34.235,34235,0.1100,0.9000,-9.4000,9.4436,-0.2880,-0.0218,0.0175,-0.50,176.19,124.75,0.5295,1.7009,-9.3561,9.5242
1,5,0,1,1,34.365,34365,0.1100,-0.1100,-9.8400,9.8412,-0.0087,-0.0076,0.1811,-1.13,176.75,123.69,0.4742,1.4622,-9.4199,9.5445
1,5,0,1,1,34.496,34496,1.0900,1.4200,-7.6400,7.8469,-0.0240,0.2782,0.0644,0.56,178.50,123.25,0.5554,1.4567,-9.1854,9.3167
1,5,0,1,1,34.626,34626,-0.1200,-0.9600,-9.6500,9.6984,0.1004,-0.2323,0.1004,-0.56,176.13,121.81,0.4664,1.1382,-9.2466,9.3280
1,5,0,1,1,34.799,34799,0.1600,0.3000,-9.7300,9.7359,-0.2705,-0.0316,0.0273,-0.25,-179.81,121.31,0.4260,1.0278,-9.3103,9.3765
1,5,0,1,1,34.929,34929,0.0400,-0.2200,-10.0500,10.0525,0.0022,0.2149,-0.1047,0.00,-179.38,120.88,0.3751,0.8633,-9.4078,9.4547
1,5,0,1,1,35.059,35059,0.3700,-0.1300,-9.6700,9.6779,0.0011,-0.2040,0.0360,0.00,-179.19,120.50,0.3745,0.7324,-9.4423,9.4781
1,5,0,1,1,35.189,35189,-0.0400,-0.0800,-9.9200,9.9204,0.0535,-0.2880,-0.1636,-1.88,-179.56,120.06,0.3198,0.6254,-9.5053,9.5312
1,5,0,1,1,35.319,35319,-0.0400,0.3900,-11.0400,11.0470,0.2356,0.2073,-0.0731,-1.81,179.38,120.75,0.2724,0.5944,-9.7075,9.7295
1,5,0,1,1,35.449,35449,0.5100,0.3200,-9.2900,9.3095,0.4974,-0.1593,0.1385,-1.25,176.69,120.44,0.3037,0.5582,-9.6525,9.6734
1,5,0,1,1,35.579,35579,0.4500,0.6800,-9.6400,9.6744,-0.0840,0.0196,0.0862,-1.75,174.63,120.31,0.3230,0.5743,-9.6508,9.6733
1,5,0,1,1,35.709,35709,0.4400,0.9200,-10.0900,10.1414,0.2923,0.0676,-0.0611,-1.50,173.75,120.63,0.3384,0.6198,-9.7087,9.7344
1,6,0,1,1,35.882,35882,0.4000,1.0200,-8.6400,8.7092,0.3982,-0.0785,0.0240,-1.56,170.56,121.00,0.3465,0.6726,-9.5679,9.5977
1,6,0,1,1,36.012,36012,0.2700,1.7000,-8.7700,8.9373,0.0153,0.0436,-0.0567,-2.00,169.56,121.25,0.3365,0.8079,-9.4627,9.5031
1,6,0,1,1,36.142,36142,0.4800,1.7700,-9.7000,9.8718,-0.0196,-0.1156,0.0709,-1.94,169.13,121.19,0.3554,0.9347,-9.4940,9.5465
1,6,0,1,1,36.272,36272,0.3800,1.1200,-10.1200,10.1889,0.0131,-0.1287,-0.0349,-2.44,168.38,121.13,0.3586,0.9591,-9.5765,9.6311
1,6,0,1,1,36.402,36402,0.8400,1.7500,-9.5000,9.6963,0.0185,-0.0993,-0.1167,-3.69,169.25,121.50,0.4220,1.0634,-9.5664,9.6346
1,6,0,1,1,36.532,36532,0.6700,2.3100,-9.6800,9.9743,0.0698,0.0578,-0.0447,-3.69,169.25,122.75,0.4547,1.2276,-9.5814,9.6704
1,6,0,1,1,36.663,36663,0.5100,1.9500,-10.2700,10.4659,0.3098,0.0513,-0.0556,-3.31,167.00,122.88,0.4620,1.3228,-9.6721,9.7731
1,6,0,1,1,36.793,36793,0.5700,2.1500,-9.2300,9.4942,0.2465,-0.1265,0.0207,-3.63,164.81,123.00,0.4762,1.4318,-9.6139,9.7316
1,6,0,1,1,36.966,36966,0.9600,2.1500,-9.4300,9.7195,0.0164,0.0709,-0.1909,-4.19,163.00,123.88,0.5400,1.5265,-9.5896,9.7254
1,6,0,1,1,37.097,37097,0.6600,3.1100,-8.7500,9.3097,0.0698,-0.1320,0.0698,-4.13,163.38,124.75,0.5558,1.7351,-9.4790,9.6525
1,6,0,1,1,37.228,37228,0.8500,2.5700,-9.1600,9.5516,0.2313,0.0207,-0.1265,-4.44,162.06,125.13,0.5946,1.8451,-9.4370,9.6340
1,6,0,1,1,37.358,37358,0.4100,3.3200,-9.0400,9.6391,0.0502,0.1429,0.1265,-3.63,160.81,125.38,0.5702,2.0395,-9.3846,9.6206
1,6,0,1,1,37.489,37489,0.2300,3.1900,-9.3300,9.8630,0.2858,0.0458,-0.2465,-3.06,159.06,125.38,0.5254,2.1911,-9.3774,9.6444
1,6,0,1,1,37.619,37619,0.3200,3.2700,-8.6700,9.2717,-0.0393,-0.2836,0.1385,-3.50,157.63,125.50,0.4983,2.3333,-9.2842,9.5859
1,6,0,1,1,37.753,37753,1.3600,3.6500,-9.6800,10.4343,-0.0415,-0.0796,0.0229,-4.75,157.94,125.88,0.6119,2.5068,-9.3364,9.6864
1,6,0,1,1,37.883,37883,1.2000,3.5700,-9.3400,10.0708,0.3632,0.0164,0.0436,-4.88,156.88,126.13,0.6894,2.6469,-9.3369,9.7292
1,6,0,1,1,38.057,38057,1.4200,3.0800,-8.1700,8.8460,-0.0600,-0.0033,-0.2411,-4.81,155.50,126.19,0.7857,2.7040,-9.1831,9.6051
1,6,0,1,1,38.187,38187,1.0700,4.1800,-8.6600,9.6754,-0.3949,-0.0687,0.0873,-5.06,158.06,126.63,0.8231,2.8985,-9.1142,9.5993
1,6,0,1,1,38.333,38333,0.6600,3.0400,-9.4200,9.9204,0.1004,0.0785,-0.0764,-4.44,157.44,127.06,0.8016,2.9171,-9.1545,9.6414
1,6,0,1,1,38.468,38468,1.1200,3.2000,-7.9800,8.6703,-0.0185,0.0884,-0.0873,-3.88,158.06,127.25,0.8436,2.9544,-8.9997,9.5097
1,6,0,1,1,38.598,38598,0.5300,3.2700,-8.8900,9.4871,-0.4320,-0.2171,-0.0415,-4.81,159.44,127.75,0.8023,2.9960,-8.9852,9.5055
1,6,0,1,1,38.730,38730,0.5700,3.3800,-9.2100,9.8272,-0.2422,0.1484,-0.1047,-4.19,162.56,128.50,0.7717,3.0466,-9.0149,9.5470
1,6,0,1,1,38.860,38860,0.4600,2.2700,-9.3000,9.5841,0.0065,0.0818,-0.0829,-3.13,162.75,128.88,0.7306,2.9443,-9.0524,9.5472
1,6,0,1,1,38.990,38990,0.3300,2.6600,-9.0100,9.4002,-0.3414,-0.0240,-0.0545,-2.94,164.25,129.13,0.6778,2.9068,-9.0468,9.5265
1,6,0,1,1,39.163,39163,0.6000,2.6800,-9.4400,9.8314,0.0338,-0.1353,0.0393,-3.44,166.06,129.63,0.6675,2.8769,-9.0987,9.5660
1,6,0,1,1,39.294,39294,0.2500,1.8600,-8.8200,9.0175,0.1713,0.1734,0.0698,-3.56,164.25,129.19,0.6125,2.7429,-9.0619,9.4877
1,6,0,1,1,39.424,39424,0.9200,2.6200,-9.4000,9.8016,-0.3033,0.0044,0.0840,-2.56,165.81,128.63,0.6530,2.7267,-9.1065,9.5283
1,6,0,1,1,39.555,39555,0.4000,1.9600,-9.4800,9.6888,0.0142,-0.0622,0.1113,-3.38,166.13,128.31,0.6197,2.6257,-9.1557,9.5449
1,6,0,1,1,39.686,39686,0.6500,1.9500,-9.3500,9.5733,-0.2127,0.2574,0.0218,-2.44,167.19,127.75,0.6237,2.5366,-9.1813,9.5457
1,6,0,1,1,39.816,39816,0.8900,1.7400,-9.4600,9.6598,-0.1473,-0.0240,-0.0022,-1.94,168.56,127.69,0.6588,2.4317,-9.2180,9.5561
1,6,0,1,1,39.947,39947,0.7000,1.8600,-9.1700,9.3829,-0.1200,-0.2553,-0.0098,-3.38,170.13,128.00,0.6642,2.3563,-9.2117,9.5315
1,6,0,1,1,40.078,40078,0.6000,0.7800,-9.5300,9.5807,-0.1407,0.0371,-0.0316,-4.19,170.56,128.13,0.6558,2.1486,-9.2536,9.5224
1,6,0,1,1,40.251,40251,0.6300,1.0900,-9.7900,9.8706,-0.3294,0.0600,0.1309,-3.56,174.06,127.94,0.6524,2.0091,-9.3243,9.5606
1,6,0,1,1,40.384,40384,0.3000,1.0000,-10.7400,10.7906,-0.0796,0.0982,0.1407,-3.56,175.81,126.94,0.6059,1.8761,-9.5109,9.7131
1,6,0,1,1,40.515,40515,0.6400,0.6200,-8.9200,8.9644,0.4134,0.2291,0.1593,-1.81,174.06,126.19,0.6104,1.7106,-9.4330,9.6063
1,6,0,1,1,40.645,40645,0.6600,0.7500,-8.9000,8.9559,-0.0884,0.0436,0.0960,-1.13,173.38,124.88,0.6170,1.5840,-9.3628,9.5158
1,6,0,1,1,40.776,40776,0.3600,0.4800,-9.9400,9.9581,-0.2596,-0.1713,0.0578,-2.38,174.44,124.00,0.5831,1.4385,-9.4388,9.5656
1,6,0,1,1,40.906,40906,0.3700,1.4200,-10.1600,10.2654,-0.0731,0.2923,-0.0753,-1.69,176.56,123.56,0.5550,1.4361,-9.5339,9.6574
1,6,0,1,1,41.037,41037,0.5000,0.0100,-8.8400,8.8541,0.3196,-0.1614,0.1931,-1.44,174.81,122.75,0.5478,1.2482,-9.4424,9.5403
1,6,0,1,1,41.167,41167,0.0800,0.4800,-10.2000,10.2116,-0.4767,0.2236,-0.1145,-1.56,176.13,122.13,0.4861,1.1470,-9.5423,9.6232
1,6,0,1,1,41.355,41355,0.5200,0.4600,-9.5000,9.5253,0.1134,-0.2662,0.0109,-0.81,177.44,121.69,0.4906,1.0564,-9.5367,9.6076
1,6,0,1,1,41.488,41488,-0.0900,0.3900,-9.9600,9.9680,0.0251,-0.0873,-0.0044,-2.75,177.06,121.06,0.4141,0.9686,-9.5925,9.6501
1,6,0,1,1,41.619,41619,0.2000,0.6700,-9.9900,10.0144,0.1462,0.3163,0.0284,-1.19,176.44,120.88,0.3859,0.9293,-9.6449,9.6972
1,6,0,1,1,41.749,41749,0.6500,0.1300,-9.1400,9.1640,0.1462,-0.1287,0.1124,-0.25,174.88,120.50,0.4207,0.8239,-9.5783,9.6229
1,6,0,1,1,41.880,41880,0.3200,0.8300,-9.5600,9.6013,-0.2443,-0.2258,0.0196,-2.44,176.38,120.00,0.4074,0.8247,-9.5759,9.6200
1,6,0,1,1,42.010,42010,0.1400,0.1400,-10.4100,10.4119,0.0796,0.1396,-0.0338,-2.88,176.25,120.06,0.3722,0.7345,-9.6858,9.7208
1,6,0,1,1,42.141,42141,0.6800,1.5100,-10.3200,10.4520,0.0218,0.1549,-0.0622,-1.31,177.06,120.56,0.4127,0.8367,-9.7694,9.8138
1,6,0,1,1,42.271,42271,0.0500,0.3400,-10.3300,10.3357,0.4811,-0.2116,0.0622,-2.31,173.69,120.25,0.3649,0.7712,-9.8433,9.8802
1,6,0,1,1,42.444,42444,0.5500,1.2300,-9.0900,9.1893,0.4472,0.2029,-0.1222,-1.44,170.31,119.88,0.3893,0.8317,-9.7440,9.7872
1,6,0,1,1,42.574,42574,0.7500,1.3600,-9.4100,9.5373,-0.0905,-0.3545,-0.0785,-2.13,169.06,120.19,0.4369,0.9013,-9.7000,9.7516
1,6,0,1,1,42.704,42704,0.0400,2.3400,-10.0000,10.2702,0.1473,-0.0818,0.0131,-4.56,169.69,120.69,0.3846,1.0909,-9.7395,9.8080
1,6,0,1,1,42.834,42834,0.5000,2.2200,-9.5400,9.8077,0.5389,0.2367,0.0055,-3.25,166.63,120.38,0.3998,1.2397,-9.7132,9.8002
1,6,0,1,1,42.964,42964,1.0300,2.0000,-8.6300,8.9184,0.3447,0.0415,0.0556,-1.94,163.06,119.81,0.4828,1.3399,-9.5705,9.6759
1,6,0,1,1,43.094,43094,0.6900,2.2700,-8.9100,9.2205,-0.1734,-0.2771,-0.1756,-3.56,162.88,120.13,0.5101,1.4624,-9.4835,9.6091
1,6,0,1,1,43.224,43224,0.9800,3.3500,-8.4500,9.1425,-0.0524,-0.0545,0.1320,-4.44,164.44,120.94,0.5720,1.7112,-9.3473,9.5198
1,6,0,1,1,43.354,43354,0.1000,2.3600,-10.0400,10.3141,-0.0382,-0.0960,-0.1745,-5.38,163.56,122.00,0.5098,1.7967,-9.4386,9.6216
1,6,0,1,1,43.527,43527,1.0200,2.9900,-9.7700,10.2681,0.1516,-0.0873,-0.0916,-4.94,163.44,122.25,0.5771,1.9539,-9.4822,9.6986
1,6,0,1,1,43.658,43658,0.6600,3.0800,-8.2900,8.8683,0.3545,0.0022,0.1484,-5.38,161.13,122.38,0.5880,2.1023,-9.3251,9.5772
1,6,0,1,1,43.788,43788,1.2400,2.9700,-9.3400,9.8790,0.0611,-0.1974,-0.0458,-6.50,159.75,122.81,0.6739,2.2166,-9.3271,9.6105
1,6,0,1,1,43.919,43919,1.5600,3.6900,-9.0100,9.8605,0.1582,-0.0731,0.0698,-6.88,159.25,124.00,0.7907,2.4108,-9.2853,9.6257
1,6,0,1,1,44.050,44050,1.9300,2.8900,-8.7800,9.4427,0.3720,-0.0894,-0.2738,-7.81,156.94,124.44,0.9408,2.4739,-9.2187,9.5912
1,6,0,1,1,44.182,44182,0.6900,3.5800,-8.3900,9.1479,-0.3262,0.0982,-0.0567,-7.31,157.13,125.69,0.9078,2.6197,-9.1095,9.5221
1,6,0,1,1,44.313,44313,1.0300,3.5600,-10.2000,10.8524,-0.2553,0.1004,-0.2313,-6.13,159.13,126.69,0.9239,2.7436,-9.2532,9.6955
1,6,0,1,1,44.447,44447,1.1700,3.5200,-8.5200,9.2925,0.1691,-0.0513,0.1353,-6.00,159.56,126.75,0.9563,2.8459,-9.1566,9.6362
1,6,0,1,1,44.620,44620,0.9300,3.0300,-9.5200,10.0338,-0.4287,0.1484,-0.0327,-6.06,159.13,126.81,0.9528,2.8702,-9.2045,9.6886
1,6,0,1,1,44.750,44750,1.3600,3.4300,-8.3400,9.1198,-0.0578,0.0524,-0.0295,-5.13,161.81,126.56,1.0065,2.9439,-9.0906,9.6082
1,6,0,1,1,44.880,44880,1.0400,2.4900,-9.0100,9.4054,-0.3065,-0.1178,-0.0578,-5.25,162.25,127.50,1.0109,2.8841,-9.0799,9.5805
1,6,0,1,1,45.010,45010,1.5700,1.4500,-11.0200,11.2253,-0.6534,-0.2662,-0.2923,-5.75,165.63,128.81,1.0846,2.6951,-9.3356,9.7772
1,6,0,1,1,45.140,45140,0.3800,2.1300,-8.8300,9.0912,-0.1091,0.0818,-0.1451,-7.94,169.44,129.19,0.9917,2.6207,-9.2690,9.6832
1,6,0,1,1,45.270,45270,1.1300,1.8300,-9.8500,10.0821,-0.3327,0.4898,0.1625,-5.44,170.81,128.00,1.0100,2.5165,-9.3455,9.7310
1,6,0,1,1,45.401,45401,1.3700,1.5400,-8.8000,9.0382,0.0927,0.0982,0.0273,-3.00,171.94,126.94,1.0574,2.3878,-9.2736,9.6343
1,6,0,1,1,45.531,45531,0.4900,0.4100,-9.9900,10.0104,-0.3589,-0.0207,-0.0011,-3.13,172.44,126.63,0.9826,2.1272,-9.3680,9.6566
1,6,0,1,1,45.704,45704,0.4400,1.7100,-9.3800,9.5447,-0.0076,0.0654,-0.0295,-1.88,176.38,127.13,0.9111,2.0722,-9.3696,9.6392
1,6,0,1,1,45.834,45834,0.5100,0.1600,-9.0400,9.0558,0.1702,-0.0665,0.0720,-2.31,174.38,126.13,0.8583,1.8202,-9.3262,9.5408
1,6,0,1,1,45.965,45965,0.2200,1.0100,-9.2200,9.2778,-0.3949,0.2760,-0.0654,-1.13,176.25,125.94,0.7742,1.7135,-9.3122,9.5001
1,6,0,1,1,46.095,46095,0.4500,0.7700,-9.3100,9.3526,-0.0589,-0.1440,0.0240,-0.56,177.94,125.69,0.7314,1.5891,-9.3119,9.4748
1,6,0,1,1,46.226,46226,-0.0900,-0.4600,-9.4700,9.4816,0.0175,0.0644,0.0000,-1.31,177.25,124.56,0.6232,1.3191,-9.3327,9.4461
1,6,0,1,1,46.357,46357,0.2200,0.5300,-10.2200,10.2361,-0.3927,0.3425,-0.0938,0.63,-179.94,124.50,0.5701,1.2151,-9.4497,9.5445
1,6,0,1,1,46.487,46487,0.3800,-0.1000,-9.0900,9.0985,0.2040,-0.1909,0.1244,1.19,-179.94,124.38,0.5450,1.0418,-9.4023,9.4755
1,6,0,1,1,46.618,46618,-0.5400,-0.2900,-10.5100,10.5279,-0.4407,0.1800,0.0196,0.25,-179.38,123.63,0.4020,0.8663,-9.5482,9.5959
1,6,0,1,1,46.794,46794,0.1400,-0.3100,-9.0700,9.0764,0.2749,-0.1298,0.1429,1.81,-178.25,122.69,0.3675,0.7113,-9.4852,9.5189
1,6,0,1,1,46.925,46925,-0.2000,-0.3600,-9.4500,9.4590,-0.2553,0.1014,0.0535,2.06,-177.81,121.81,0.2927,0.5701,-9.4806,9.5022
1,6,0,1,1,47.056,47056,0.0100,-0.6300,-9.3300,9.3513,0.0295,-0.1549,0.0513,1.69,-177.25,120.75,0.2555,0.4120,-9.4607,9.4731
1,6,0,1,1,47.186,47186,0.5300,-0.5400,-9.6600,9.6896,-0.1396,-0.1440,-0.4636,0.63,-176.50,121.56,0.2916,0.2865,-9.4870,9.4958
1,6,0,1,1,47.316,47316,0.5500,0.2600,-9.7700,9.7889,0.1909,-0.2793,-0.3905,-1.19,-176.56,123.75,0.3257,0.2830,-9.5243,9.5341
1,6,0,1,1,47.447,47447,0.6000,-0.3600,-9.8700,9.8948,0.5563,-0.4931,0.1985,-4.00,179.56,124.38,0.3618,0.1983,-9.5698,9.5787
1,6,0,1,1,47.577,47577,0.4500,-0.3700,-9.7100,9.7275,-0.1069,-0.1145,0.0938,-6.63,178.13,123.44,0.3735,0.1234,-9.5883,9.5964
1,6,0,1,1,47.708,47708,0.8600,0.3700,-9.5200,9.5659,-0.0055,0.3436,0.1069,-5.38,178.81,122.88,0.4376,0.1559,-9.5793,9.5906
1,6,0,1,1,47.881,47881,1.0000,0.1500,-9.9900,10.0410,0.0567,0.1353,0.1156,-3.00,178.25,122.25,0.5117,0.1551,-9.6334,9.6483
1,6,0,1,1,48.011,48011,0.5800,0.6600,-9.9900,10.0286,0.0131,-0.0196,-0.0982,-3.00,178.19,122.31,0.5207,0.2217,-9.6804,9.6969
1,6,0,1,1,48.141,48141,0.7400,0.3800,-10.1800,10.2139,0.1298,-0.1265,-0.0665,-3.44,177.06,122.56,0.5496,0.2425,-9.7462,9.7647
1,6,0,1,1,48.271,48271,0.6100,0.9600,-10.1700,10.2334,0.1527,-0.0491,-0.0153,-4.25,176.25,122.88,0.5575,0.3371,-9.8021,9.8237
1,6,0,1,1,48.401,48401,0.4200,0.8400,-9.5000,9.5463,0.3414,0.0720,-0.0840,-4.25,174.19,122.94,0.5394,0.4033,-9.7623,9.7855
1,6,0,1,1,48.531,48531,0.5300,0.9700,-9.0200,9.0875,0.2345,0.1069,-0.0393,-3.19,172.00,123.25,0.5382,0.4780,-9.6645,9.6912
1,6,0,1,1,48.661,48661,0.5800,1.2900,-9.6600,9.7630,0.1025,-0.0076,-0.0873,-2.75,171.06,123.94,0.5437,0.5850,-9.6639,9.6968
1,6,0,1,1,48.791,48791,0.1800,1.6900,-9.7100,9.8576,0.2127,0.0905,-0.0251,-2.63,169.75,124.19,0.4958,0.7306,-9.6700,9.7102
1,6,0,1,1,48.964,48964,0.3600,2.0200,-9.0000,9.2309,0.3414,-0.1854,0.0949,-3.31,167.94,124.19,0.4779,0.9005,-9.5817,9.6358
1,6,0,1,1,49.094,49094,0.6000,1.4400,-9.5100,9.6371,-0.1342,-0.0949,0.1811,-4.13,166.69,123.81,0.4940,0.9716,-9.5722,9.6341
1,6,0,1,1,49.224,49224,0.2800,2.4000,-8.8600,9.1836,0.1582,0.2389,-0.1691,-3.88,167.13,123.75,0.4658,1.1598,-9.4784,9.5604
1,6,0,1,1,49.354,49354,0.4100,2.6300,-8.5700,8.9738,0.2454,0.0240,0.0720,-3.25,166.06,123.69,0.4584,1.3536,-9.3587,9.4672
1,6,0,1,1,49.484,49484,0.7800,2.1500,-8.9200,9.2085,0.0873,-0.0851,-0.0076,-3.50,164.63,123.81,0.5008,1.4585,-9.3009,9.4278
1,6,0,1,1,49.615,49615,0.4000,2.7900,-8.9400,9.3738,-0.0404,0.3360,0.0742,-2.31,164.88,124.19,0.4875,1.6340,-9.2533,9.4091
1,6,0,1,1,49.745,49745,0.5000,2.9500,-9.1200,9.5983,0.2345,0.1767,0.1222,-0.13,164.31,124.06,0.4892,1.8074,-9.2357,9.4236
1,6,0,1,1,49.875,49875,0.2700,2.4200,-10.0200,10.3116,0.2433,-0.3033,-0.2029,-1.56,162.00,123.88,0.4603,1.8881,-9.3391,9.5392
1,6,0,1,1,50.048,50048,0.3200,3.3400,-9.2600,9.8491,0.2247,-0.1767,-0.1767,-3.31,161.06,124.63,0.4418,2.0794,-9.3287,9.5678
1,6,0,1,1,50.179,50179,0.4400,3.2000,-9.2100,9.7600,0.2891,-0.0458,-0.0611,-3.94,158.88,125.06,0.4416,2.2271,-9.3130,9.5858
1,6,0,1,1,50.309,50309,0.8100,3.7000,-9.1800,9.9307,0.2531,-0.0153,0.0938,-4.25,157.13,125.13,0.4901,2.4212,-9.2955,9.6181
1,6,0,1,1,50.440,50440,0.9600,3.9200,-7.8500,8.8267,0.3414,0.0207,0.1582,-4.75,155.25,124.94,0.5520,2.6187,-9.1050,9.4902
1,6,0,1,1,50.571,50571,0.3800,3.3700,-7.7800,8.4870,0.1385,0.0862,-0.1440,-5.00,153.06,124.50,0.5294,2.7177,-8.9304,9.3498
1,7,0,1,1,50.707,50707,0.5700,4.3700,-9.7900,10.7362,-0.4276,0.1145,-0.1549,-4.31,155.19,124.88,0.5347,2.9354,-9.0437,9.5232
1,7,0,1,1,50.837,50837,0.5400,4.2700,-8.0100,9.0931,0.2825,0.1778,0.2400,-3.56,155.63,124.38,0.5354,3.1113,-8.9075,9.4504
1,7,0,1,1,50.969,50969,0.6300,3.4300,-9.1800,9.8201,-0.1800,-0.1505,-0.0676,-3.88,153.94,123.94,0.5479,3.1533,-8.9434,9.4988
1,7,0,1,1,51.141,51141,0.6300,4.1300,-8.7700,9.7143,0.0338,-0.0556,-0.0436,-4.88,156.81,124.56,0.5587,3.2820,-8.9205,9.5215
1,7,0,1,1,51.271,51271,0.8900,3.4500,-7.8800,8.6481,-0.0295,0.0884,0.0785,-4.44,156.31,124.63,0.6024,3.3041,-8.7834,9.4037
1,7,0,1,1,51.402,51402,0.8700,3.3100,-8.2700,8.9502,-0.2651,0.1298,-0.0818,-3.75,157.25,124.50,0.6376,3.3049,-8.7158,9.3431
1,7,0,1,1,51.532,51532,1.0100,3.4200,-9.2200,9.8856,-0.5334,0.1014,0.0044,-2.69,160.69,124.88,0.6867,3.3201,-8.7822,9.4139
1,7,0,1,1,51.662,51662,0.5800,2.4700,-10.3000,10.6079,-0.3491,-0.1931,-0.2716,-2.69,163.50,125.81,0.6726,3.2081,-8.9822,9.5616
1,7,0,1,1,51.792,51792,-0.5600,2.0700,-8.7700,9.0284,-0.2629,0.1353,-0.1942,-2.81,166.06,128.13,0.5102,3.0581,-8.9543,9.4758
1,7,0,1,1,51.922,51922,0.0700,1.8000,-10.1300,10.2889,-0.4854,0.4734,-0.0218,-0.31,168.44,127.81,0.4522,2.8923,-9.1092,9.5680
1,7,0,1,1,52.052,52052,0.3700,2.2600,-10.2000,10.4539,-0.1156,-0.0513,0.1276,1.38,171.44,126.38,0.4414,2.8090,-9.2529,9.6800
1,7,0,1,1,52.225,52225,-0.1600,1.0500,-8.7000,8.7646,0.1374,-0.1385,0.1014,-0.69,169.88,124.94,0.3621,2.5772,-9.1801,9.5418
1,7,0,1,1,52.355,52355,0.0500,0.9500,-9.8000,9.8461,-0.4527,0.2585,-0.0393,-0.06,171.38,124.19,0.3210,2.3628,-9.2618,9.5638
1,7,0,1,1,52.485,52485,0.1600,1.4800,-10.3300,10.4367,-0.2400,-0.0502,-0.0644,0.88,174.56,123.81,0.2998,2.2464,-9.4025,9.6718
1,7,0,1,1,52.615,52615,-0.4200,1.0200,-9.3400,9.4049,0.1865,0.0000,0.0382,0.19,174.38,123.81,0.2049,2.0848,-9.3943,9.6250
1,7,0,1,1,52.745,52745,0.0300,0.5400,-9.1700,9.1859,-0.1560,0.0480,0.0120,0.44,174.13,123.31,0.1819,1.8813,-9.3647,9.5536
1,7,0,1,1,52.875,52875,0.0500,0.7300,-9.5200,9.5481,-0.2727,-0.0404,0.0698,0.31,176.13,122.63,0.1645,1.7296,-9.3852,9.5446
1,7,0,1,1,53.006,53006,-0.1100,0.4000,-9.8600,9.8687,-0.1789,-0.0109,0.0840,0.06,177.69,121.75,0.1283,1.5544,-9.4478,9.5756
1,7,0,1,1,53.136,53136,0.0100,0.3000,-9.3300,9.3348,-0.0894,0.0491,0.1254,0.44,178.69,120.69,0.1127,1.3891,-9.4322,9.5346
1,7,0,1,1,53.309,53309,-0.1900,-0.1200,-9.9900,9.9925,-0.0873,0.1669,-0.0654,0.88,179.00,119.50,0.0728,1.1902,-9.5057,9.5802
1,7,0,1,1,53.440,53440,0.0800,0.2900,-9.6700,9.6747,-0.1014,-0.0425,-0.0109,1.50,-179.88,119.75,0.0738,1.0716,-9.5274,9.5877
1,7,0,1,1,53.570,53570,-0.3700,0.0300,-10.0700,10.0768,0.1298,-0.0665,0.0305,0.56,179.44,119.38,0.0153,0.9343,-9.5989,9.6443
1,7,0,1,1,53.701,53701,-0.3100,1.2500,-9.8800,9.9636,0.3033,0.3142,-0.1004,1.69,178.56,120.31,-0.0276,0.9759,-9.6359,9.6853
1,7,0,1,1,53.832,53832,-0.0300,-0.2100,-8.8700,8.8725,0.4898,-0.3676,0.0709,2.25,174.31,120.06,-0.0279,0.8197,-9.5350,9.5702
1,7,0,1,1,53.962,53962,-0.5400,0.8800,-9.4500,9.5062,-0.3447,-0.2673,0.1887,-1.19,174.94,118.81,-0.0954,0.8276,-9.5238,9.5602
1,7,0,1,1,54.093,54093,0.1800,1.0100,-10.3200,10.3709,0.0218,0.3458,0.0589,-0.25,176.19,117.75,-0.0591,0.8516,-9.6287,9.6665
1,7,0,1,1,54.223,54223,0.8300,0.7200,-9.8700,9.9310,0.1102,-0.1909,0.0851,0.13,175.44,117.06,0.0581,0.8343,-9.6605,9.6966
1,7,0,1,1,54.396,54396,0.1600,1.0100,-9.5200,9.5748,0.1374,-0.2956,-0.1080,-3.56,174.50,117.44,0.0715,0.8574,-9.6420,9.6803
1,7,0,1,1,54.530,54530,0.2200,0.6800,-9.5500,9.5767,0.0382,0.0447,-0.1004,-3.63,173.69,118.19,0.0911,0.8341,-9.6299,9.6664
1,7,0,1,1,54.661,54661,0.3300,1.7700,-10.1800,10.3380,-0.1440,0.1527,0.0524,-2.63,175.06,118.81,0.1226,0.9574,-9.7024,9.7503
1,7,0,1,1,54.791,54791,0.6800,1.1500,-9.5300,9.6232,0.2902,-0.0142,0.1178,-2.13,173.75,117.88,0.1960,0.9828,-9.6797,9.7314
1,7,0,1,1,54.922,54922,0.5800,1.3100,-9.7200,9.8250,0.1440,-0.0796,0.0753,-2.56,172.38,117.38,0.2466,1.0259,-9.6850,9.7423
1,7,0,1,1,55.052,55052,0.7000,1.4100,-9.1100,9.2450,0.2367,-0.1647,0.0240,-3.50,170.81,117.19,0.3064,1.0765,-9.6092,9.6742
1,7,0,1,1,55.183,55183,-0.0200,2.0600,-9.3600,9.5840,0.1134,0.3382,-0.2498,-3.38,169.44,117.81,0.2634,1.2061,-9.5764,9.6556
1,7,0,1,1,55.313,55313,0.6100,1.7800,-9.6300,9.8121,0.0993,-0.0513,-0.0949,-2.38,168.06,117.94,0.3090,1.2817,-9.5834,9.6737
1,7,0,1,1,55.486,55486,0.6200,2.2000,-9.5200,9.7905,0.1429,-0.1713,0.0731,-4.50,167.56,117.75,0.3500,1.4027,-9.5751,9.6836
1,7,0,1,1,55.616,55616,0.9600,1.8900,-9.0000,9.2463,0.2258,0.0371,-0.0447,-4.63,166.00,117.56,0.4304,1.4669,-9.4993,9.6215
1,7,0,1,1,55.746,55746,0.5900,2.5400,-9.7400,10.0830,-0.1789,0.0033,-0.1538,-4.94,166.13,119.13,0.4514,1.6083,-9.5310,9.6763
1,7,0,1,1,55.876,55876,0.8800,2.5800,-9.8700,10.2395,0.2356,-0.1484,-0.1102,-5.44,165.88,119.63,0.5079,1.7364,-9.5757,9.7451
1,7,0,1,1,56.006,56006,0.8300,2.7800,-9.2400,9.6848,0.1713,0.0480,0.0338,-5.50,164.38,120.13,0.5503,1.8739,-9.5314,9.7295
1,7,0,1,1,56.136,56136,1.1100,2.8100,-9.3400,9.8165,0.2225,-0.0142,-0.0731,-5.38,162.56,120.25,0.6241,1.9973,-9.5062,9.7338
1,7,0,1,1,56.267,56267,1.1400,3.2600,-9.1700,9.7988,0.1571,-0.1560,-0.0796,-6.13,161.56,121.25,0.6921,2.1637,-9.4619,9.7308
1,7,0,1,1,56.397,56397,0.9100,3.3700,-9.4500,10.0741,0.1713,-0.1004,-0.2411,-6.69,159.88,122.69,0.7208,2.3226,-9.4603,9.7679
1,7,0,1,1,56.570,56570,1.2200,3.4800,-8.5600,9.3205,0.4167,-0.0676,-0.0622,-6.81,156.88,123.38,0.7866,2.4751,-9.3417,9.6960
1,7,0,1,1,56.701,56701,1.0400,3.9200,-8.7000,9.5989,-0.0044,-0.0894,-0.0284,-7.69,155.44,124.00,0.8200,2.6655,-9.2571,9.6681
1,7,0,1,1,56.831,56831,1.6400,4.1400,-9.0400,10.0772,0.1004,0.0927,0.0676,-7.50,155.13,123.50,0.9280,2.8598,-9.2285,9.7060
1,7,0,1,1,56.962,56962,1.1100,4.5900,-8.3800,9.6190,0.2291,0.0262,0.1233,-7.31,154.31,122.81,0.9520,3.0878,-9.1167,9.6724
1,7,0,1,1,57.093,57093,1.7700,4.1900,-7.6700,8.9173,0.3294,-0.0829,0.2040,-7.81,151.94,121.75,1.0598,3.2331,-8.9261,9.5525
1,7,0,1,1,57.226,57226,1.4700,4.4900,-7.9600,9.2565,-0.1276,-0.1822,-0.0676,-8.88,151.06,122.13,1.1139,3.3987,-8.7988,9.4979
1,7,0,1,1,57.357,57357,1.4500,4.8000,-8.2500,9.6543,-0.1080,-0.0927,-0.0611,-9.50,151.81,123.00,1.1581,3.5833,-8.7265,9.5044
1,7,0,1,1,57.490,57490,1.5100,4.6900,-8.1500,9.5236,0.1254,0.0949,0.1702,-9.06,151.69,122.81,1.2045,3.7292,-8.6505,9.4968
1,7,0,1,1,57.663,57663,1.4700,4.5100,-8.8500,10.0411,-0.1222,0.1418,0.0404,-8.56,151.13,121.88,1.2395,3.8321,-8.6768,9.5660
1,7,0,1,1,57.793,57793,1.5800,4.7500,-8.0300,9.4625,0.0436,0.0589,-0.0011,-8.00,151.94,121.25,1.2844,3.9530,-8.5916,9.5442
1,7,0,1,1,57.923,57923,1.6400,4.5000,-7.8000,9.1531,-0.0480,-0.2105,0.0774,-8.69,151.31,121.56,1.3312,4.0251,-8.4872,9.4872
1,7,0,1,1,58.053,58053,1.4000,4.3300,-7.8600,9.0823,-0.2138,-0.0524,-0.0829,-9.50,151.94,122.19,1.3403,4.0653,-8.4046,9.4319
1,7,0,1,1,58.183,58183,1.3600,4.0600,-8.1900,9.2417,-0.4189,0.1233,-0.0218,-9.00,154.25,122.50,1.3429,4.0646,-8.3763,9.4067
1,7,0,1,1,58.313,58313,1.3100,3.6700,-9.1400,9.9360,-0.3796,0.2171,-0.1353,-7.38,157.13,123.13,1.3386,4.0126,-8.4769,9.4737
1,7,0,1,1,58.443,58443,1.2600,3.3800,-9.0500,9.7424,-0.2803,-0.0087,-0.1156,-6.31,159.56,124.06,1.3282,3.9292,-8.5525,9.5051
1,7,0,1,1,58.574,58574,0.9800,2.8300,-9.0900,9.5707,-0.1898,-0.1124,-0.1451,-6.75,160.81,124.94,1.2823,3.7844,-8.6233,9.5041
1,7,0,1,1,58.747,58747,0.8500,2.7500,-9.4500,9.8786,-0.3491,0.2269,-0.0109,-5.19,164.06,126.00,1.2254,3.6481,-8.7322,9.5426
1,7,0,1,1,58.877,58877,0.7500,2.3600,-9.4900,9.8078,-0.1516,0.1156,0.0142,-3.81,165.69,126.06,1.1627,3.4783,-8.8321,9.5633
1,7,0,1,1,59.007,59007,0.5300,1.9700,-9.5500,9.7655,-0.2040,0.0044,-0.0055,-3.69,166.94,126.00,1.0793,3.2796,-8.9267,9.5711
1,7,0,1,1,59.137,59137,0.5500,2.0500,-9.6800,9.9100,-0.2607,0.0229,0.0273,-3.69,168.94,125.94,1.0096,3.1176,-9.0260,9.6024
1,7,0,1,1,59.267,59267,0.6600,1.4100,-9.2300,9.3604,-0.1069,0.0229,0.0153,-3.44,169.88,125.75,0.9635,2.8925,-9.0528,9.5524
1,7,0,1,1,59.397,59397,-0.3300,0.8500,-10.6300,10.6690,-0.6294,0.1724,0.1734,-3.25,172.38,125.38,0.7931,2.6234,-9.2607,9.6577
1,7,0,1,1,59.527,59527,0.3500,1.4000,-9.7800,9.8859,0.0109,0.1767,-0.0131,-1.56,174.88,124.50,0.7347,2.4622,-9.3291,9.6765
1,7,0,1,1,59.657,59657,0.6200,0.4900,-9.4400,9.4730,-0.0393,-0.0055,0.0589,-1.06,174.31,123.69,0.7196,2.2023,-9.3437,9.6267
1,7,0,1,1,59.830,59830,0.3000,0.8000,-9.4400,9.4786,-0.1484,0.0327,-0.0011,-0.69,176.06,123.19,0.6643,2.0175,-9.3564,9.5945
1,7,0,1,1,59.960,59960,0.4600,0.3500,-8.9000,8.9187,-0.0589,-0.1702,0.0567,-1.38,176.50,122.56,0.6374,1.7978,-9.2963,9.4899
1,7,0,1,1,60.090,60090,-0.0400,0.7000,-10.3300,10.3538,-0.1778,0.0731,-0.0894,-2.06,177.69,121.88,0.5481,1.6531,-9.4325,9.5919
1,7,0,1,1,60.220,60220,0.3100,0.5800,-9.5100,9.5327,0.2334,0.0774,0.1025,-1.13,177.38,121.75,0.5167,1.5117,-9.4427,9.5769
1,7,0,1,1,60.350,60350,0.2500,0.0300,-9.8300,9.8332,-0.1167,-0.0873,0.0393,-1.56,176.56,120.94,0.4816,1.3165,-9.4937,9.5967
1,7,0,1,1,60.480,60480,0.2700,0.7400,-9.6900,9.7220,-0.1560,0.0360,0.0589,-1.56,178.25,120.38,0.4537,1.2405,-9.5196,9.6108
1,7,0,1,1,60.610,60610,0.3100,0.1200,-9.7700,9.7757,0.0676,0.0676,0.0076,-1.06,177.94,119.88,0.4348,1.0928,-9.5526,9.6247
1,7,0,1,1,60.740,60740,0.3600,0.2700,-9.6600,9.6705,-0.0720,-0.0927,-0.0207,-1.38,178.25,119.88,0.4249,0.9844,-9.5667,9.6266
1,7,0,1,1,60.913,60913,0.2600,0.2200,-9.9500,9.9558,-0.1058,-0.0153,-0.0185,-2.13,178.94,120.00,0.4032,0.8837,-9.6173,9.6662
1,7,0,1,1,61.043,61043,0.4400,0.4800,-9.7700,9.7917,0.0938,-0.0251,-0.0229,-2.06,178.94,120.13,0.4080,0.8305,-9.6374,9.6817
1,7,0,1,1,61.173,61173,0.3700,0.0700,-9.8000,9.8072,0.0196,-0.0611,-0.0218,-2.56,178.13,119.88,0.4030,0.7303,-9.6588,9.6948
1,7,0,1,1,61.303,61303,0.4900,0.6200,-10.0600,10.0910,0.0567,-0.0327,-0.0076,-2.81,178.13,119.75,0.4145,0.7157,-9.7117,9.7468
1,7,0,1,1,61.433,61433,0.7300,0.9400,-10.0000,10.0706,0.2891,0.0480,0.0251,-2.69,177.19,119.63,0.4561,0.7453,-9.7497,9.7887
1,7,0,1,1,61.563,61563,0.6200,0.6200,-9.4400,9.4806,0.3120,-0.1593,0.0567,-3.13,174.75,119.50,0.4777,0.7288,-9.7089,9.7479
1,7,0,1,1,61.693,61693,0.4100,0.8300,-8.9300,8.9779,0.2793,0.0415,0.0185,-3.81,172.69,119.19,0.4687,0.7421,-9.6062,9.6462
1,7,0,1,1,61.824,61824,0.2400,1.9300,-8.9100,9.1198,-0.0654,-0.0382,-0.0687,-3.38,172.50,120.06,0.4386,0.8987,-9.5145,9.5669
1,7,0,1,1,61.997,61997,0.7000,1.5200,-9.6900,9.8334,0.0545,0.0720,0.1396,-1.88,170.06,120.69,0.4730,0.9805,-9.5376,9.5995
1,7,0,1,1,62.129,62129,0.7300,2.1200,-9.0600,9.3333,0.2509,-0.1669,0.0785,-2.38,169.56,120.63,0.5069,1.1307,-9.4747,9.5554
1,7,0,1,1,62.260,62260,0.7400,1.9400,-9.8400,10.0567,0.0829,-0.3611,0.1004,-4.88,167.69,120.44,0.5376,1.2373,-9.5228,9.6179
1,7,0,1,1,62.395,62395,0.8500,1.9900,-9.7400,9.9775,0.2313,0.1091,-0.1931,-5.31,166.63,121.19,0.5788,1.3365,-9.5514,9.6618
1,7,0,1,1,62.525,62525,1.2300,2.1600,-9.4900,9.8101,0.1614,0.0087,-0.0295,-4.81,165.06,121.69,0.6646,1.4450,-9.5433,9.6750
1,7,0,1,1,62.657,62657,1.3000,2.6700,-9.3500,9.8103,0.2160,-0.2705,-0.0316,-6.00,164.19,121.88,0.7483,1.6064,-9.5179,9.6814
1,7,0,1,1,62.787,62787,0.6700,2.8600,-9.2700,9.7243,0.1385,0.0578,0.0382,-6.88,163.44,121.75,0.7380,1.7716,-9.4852,9.6774
1,7,0,1,1,62.917,62917,1.4000,3.1700,-8.8500,9.5043,0.4058,0.1407,0.1167,-6.06,161.69,121.19,0.8252,1.9559,-9.4015,9.6382
1,7,0,1,1,63.090,63090,1.4500,3.2700,-8.3300,9.0656,0.3240,-0.0905,0.2029,-6.88,158.56,120.13,0.9076,2.1291,-9.2603,9.5451
1,7,0,1,1,63.221,63221,0.7900,3.7500,-9.1400,9.9109,0.0415,-0.1625,0.1484,-7.94,157.19,120.81,0.8921,2.3427,-9.2444,9.5783
1,7,0,1,1,63.351,63351,1.9400,3.7000,-9.0400,9.9587,0.2531,-0.1407,-0.2443,-8.81,155.75,120.63,1.0302,2.5215,-9.2175,9.6115
1,7,0,1,1,63.482,63482,1.7700,4.2800,-7.8200,9.0887,0.2542,-0.0949,0.1364,-9.75,154.38,120.81,1.1277,2.7532,-9.0334,9.5107
1,7,0,1,1,63.613,63613,2.8200,3.9400,-8.4400,9.7319,0.1080,-0.3676,0.0153,-11.31,152.00,121.00,1.3507,2.9096,-8.9552,9.5124
1,7,0,1,1,63.743,63743,2.4800,4.6000,-6.9300,8.6796,-0.0371,0.0120,0.1953,-12.31,152.81,121.75,1.4995,3.1324,-8.6883,9.3566
1,8,0,1,1,63.874,63874,2.2300,4.4300,-8.7600,10.0665,-0.0698,-0.1560,-0.1484,-12.63,152.06,122.50,1.5957,3.3034,-8.6977,9.4398
1,8,0,1,1,64.004,64004,2.2500,4.4900,-8.1000,9.5306,-0.2029,-0.1473,-0.1582,-13.31,153.19,124.50,1.6820,3.4597,-8.6190,9.4385
1,8,0,1,1,64.177,64177,2.0600,3.7800,-8.4500,9.4834,-0.2313,0.0589,-0.0993,-13.38,154.19,126.56,1.7318,3.5019,-8.5967,9.4428
1,8,0,1,1,64.311,64311,2.1100,3.6200,-8.0300,9.0574,-0.3960,0.2345,-0.0142,-12.00,156.69,127.75,1.7816,3.5175,-8.5220,9.3900
1,8,0,1,1,64.442,64442,1.8000,2.8900,-9.1800,9.7910,-0.7079,-0.0709,-0.0960,-11.06,160.63,129.06,1.7840,3.4348,-8.6087,9.4388
1,8,0,1,1,64.572,64572,2.2200,3.0200,-8.8900,9.6478,-0.4712,-0.0218,-0.0633,-10.88,164.81,130.31,1.8415,3.3801,-8.6458,9.4639
1,8,0,1,1,64.703,64703,1.6700,2.4000,-8.8900,9.3585,-0.0284,-0.0971,-0.0458,-11.31,165.63,131.38,1.8189,3.2510,-8.6780,9.4438
1,8,0,1,1,64.834,64834,1.7500,1.7500,-9.9900,10.2920,-0.2923,-0.0022,-0.0415,-11.63,166.88,132.00,1.8098,3.0532,-8.8509,9.5360
1,8,0,1,1,64.964,64964,1.6800,1.7600,-9.3500,9.6614,-0.0305,0.1560,0.1167,-11.50,168.56,131.56,1.7927,2.8828,-8.9166,9.5410
1,8,0,1,1,65.094,65094,1.7800,1.2500,-9.3300,9.5802,-0.1527,0.3272,0.1331,-9.44,168.81,130.50,1.7910,2.6676,-8.9711,9.5292
1,8,0,1,1,65.267,65267,1.0300,2.1200,-9.3700,9.6619,-0.5640,0.0611,-0.0600,-7.25,172.69,129.88,1.6907,2.5955,-9.0237,9.5405
1,8,0,1,1,65.397,65397,1.2100,1.0200,-9.0600,9.1972,0.3218,0.0153,-0.0273,-6.38,172.56,129.25,1.6274,2.3879,-9.0285,9.4796
1,8,0,1,1,65.527,65527,1.4500,0.7100,-9.1000,9.2421,-0.3382,-0.0982,-0.0065,-7.13,173.06,128.19,1.6040,2.1668,-9.0379,9.4314
1,8,0,1,1,65.657,65657,0.8600,0.9500,-10.1100,10.1909,-0.2694,-0.0622,0.0982,-8.06,175.88,128.00,1.5060,2.0064,-9.1792,9.5158
1,8,0,1,1,65.787,65787,0.8100,0.5700,-10.1900,10.2380,0.3763,0.5454,-0.0076,-6.00,175.13,127.25,1.4143,1.8171,-9.3124,9.5928
1,8,0,1,1,65.917,65917,1.2900,0.3900,-9.0700,9.1696,-0.1113,0.0851,0.0949,-3.31,174.06,126.88,1.3979,1.6291,-9.2804,9.5255
1,8,0,1,1,66.048,66048,0.7300,0.8600,-9.7300,9.7952,-0.3785,-0.3622,0.1593,-5.81,176.81,125.94,1.3099,1.5277,-9.3397,9.5540
1,8,0,1,1,66.178,66178,0.5100,0.6100,-9.9200,9.9518,-0.0513,0.0436,0.1887,-6.19,177.63,124.38,1.2045,1.4068,-9.4161,9.5965
1,8,0,1,1,66.351,66351,1.0300,0.5800,-9.0200,9.0971,0.1931,0.1942,0.2563,-4.19,176.75,122.13,1.1815,1.2978,-9.3639,9.5270
1,8,0,1,1,66.482,66482,1.1300,0.1300,-9.8900,9.9552,-0.0556,-0.0764,0.0720,-4.13,176.63,120.38,1.1747,1.1440,-9.4333,9.5747
1,8,0,1,1,66.612,66612,0.7800,0.0500,-9.6000,9.6318,-0.0087,-0.1069,0.0644,-4.88,176.94,119.63,1.1227,0.9998,-9.4552,9.5740
1,8,0,1,1,66.742,66742,0.4600,0.1600,-10.1000,10.1117,-0.1527,0.1538,-0.0938,-4.88,177.69,119.81,1.0354,0.8891,-9.5402,9.6373
1,8,0,1,1,66.872,66872,0.8600,0.9100,-9.6400,9.7210,0.1287,0.0447,0.0218,-3.75,177.88,120.19,1.0123,0.8919,-9.5534,9.6481
1,8,0,1,1,67.002,67002,0.6400,0.0900,-9.5300,9.5519,0.0927,-0.2334,0.1025,-4.75,176.50,119.25,0.9632,0.7862,-9.5503,9.6309
1,8,0,1,1,67.132,67132,0.9000,0.2800,-10.0800,10.1240,-0.1560,-0.0360,-0.0131,-5.69,177.44,118.75,0.9549,0.7195,-9.6201,9.6941
1,8,0,1,1,67.262,67262,1.2700,0.7500,-10.5600,10.6625,-0.0731,-0.0720,-0.1462,-6.00,178.13,119.75,0.9964,0.7235,-9.7439,9.8214
1,8,0,1,1,67.435,67435,1.2300,0.5200,-10.0500,10.1383,0.3349,-0.1134,-0.0131,-6.88,176.44,120.06,1.0272,0.6967,-9.7843,9.8627
1,8,0,1,1,67.565,67565,0.5600,0.8000,-9.4400,9.4904,0.1429,0.1963,0.0796,-6.38,174.81,120.13,0.9656,0.7103,-9.7389,9.8124
1,8,0,1,1,67.696,67696,0.9400,1.3300,-9.1200,9.2643,0.2214,0.1516,0.1560,-4.88,174.00,119.44,0.9622,0.7920,-9.6573,9.7374
1,8,0,1,1,67.827,67827,1.4700,1.1600,-9.0200,9.2123,0.1756,-0.3382,0.0862,-5.81,172.44,118.88,1.0292,0.8405,-9.5734,9.6651
1,8,0,1,1,67.957,67957,0.8400,1.8400,-8.1300,8.3778,-0.0218,-0.1713,0.0338,-7.94,172.19,119.06,1.0042,0.9722,-9.3832,9.4867
1,8,0,1,1,68.088,68088,1.6300,0.7100,-10.4900,10.6396,-0.1800,-0.3349,0.1560,-9.38,171.38,118.69,1.0867,0.9376,-9.5290,9.6365
1,8,0,1,1,68.218,68218,1.2500,2.0300,-10.4700,10.7380,-0.1833,-0.0829,-0.1047,-10.56,173.00,119.63,1.1082,1.0816,-9.6530,9.7764
1,8,0,1,1,68.353,68353,1.7100,1.4500,-9.7900,10.0434,0.4451,0.2487,-0.0840,-9.19,171.38,120.00,1.1875,1.1301,-9.6711,9.8090
1,8,0,1,1,68.526,68526,1.7800,1.5600,-8.4500,8.7752,0.0884,-0.0098,0.0153,-7.44,167.81,119.56,1.2656,1.1868,-9.5102,9.6671
1,8,0,1,1,68.656,68656,1.5200,2.1100,-9.6800,10.0232,-0.3523,-0.3436,0.0240,-9.38,168.75,120.38,1.2991,1.3084,-9.5325,9.7092
1,8,0,1,1,68.806,68806,1.2900,2.0600,-10.1400,10.4272,0.2323,0.3818,-0.0829,-8.56,168.25,121.19,1.2979,1.4075,-9.6126,9.8014
1,8,0,1,1,68.936,68936,1.4700,2.3000,-9.1800,9.5772,0.2694,0.0884,-0.1985,-6.19,166.63,121.69,1.3206,1.5251,-9.5556,9.7662
1,8,0,1,1,69.068,69068,0.8300,1.9100,-9.6800,9.9015,0.3054,-0.5389,-0.0633,-9.06,164.00,122.50,1.2559,1.5758,-9.5720,9.7818
1,8,0,1,1,69.198,69198,1.1900,3.0000,-9.0400,9.5988,0.1058,0.2683,0.0055,-9.00,163.00,123.00,1.2473,1.7635,-9.5019,9.7443
1,8,0,1,1,69.329,69329,1.9600,3.1400,-9.2600,9.9724,0.2978,0.1745,0.0131,-7.25,161.25,122.19,1.3412,1.9449,-9.4700,9.7602
1,8,0,1,1,69.459,69459,1.8900,3.5100,-8.2900,9.1987,0.3382,0.0295,0.0665,-6.88,159.13,122.19,1.4135,2.1511,-9.3145,9.6636
1,8,0,1,1,69.632,69632,1.3200,3.5000,-8.7300,9.4976,-0.2683,-0.2029,-0.0644,-8.31,157.13,123.06,1.4012,2.3289,-9.2375,9.6290
1,8,0,1,1,69.762,69762,1.9600,4.2600,-8.4600,9.6727,-0.0698,0.0720,-0.0131,-8.25,159.31,123.69,1.4748,2.5833,-9.1350,9.6072
1,8,0,1,1,69.893,69893,1.7300,3.3400,-9.0000,9.7544,0.1167,-0.0447,-0.2258,-7.75,157.75,125.25,1.5084,2.6830,-9.1172,9.6228
1,8,0,1,1,70.023,70023,1.4600,3.3800,-8.0500,8.8520,-0.0360,-0.0284,-0.0273,-7.75,157.75,126.19,1.5021,2.7749,-8.9766,9.5150
1,8,0,1,1,70.153,70153,1.1200,3.8300,-9.9200,10.6925,-0.2902,0.0327,-0.2073,-7.44,158.94,127.25,1.4517,2.9139,-9.1009,9.6657
1,8,0,1,1,70.283,70283,1.4000,3.5500,-8.9000,9.6836,0.2847,-0.3883,-0.0022,-8.13,158.50,128.19,1.4449,2.9977,-9.0744,9.6654
1,8,0,1,1,70.413,70413,1.1300,3.7300,-8.3900,9.2510,0.0218,0.0796,0.0829,-9.25,157.13,128.38,1.4034,3.0942,-8.9843,9.6052
1,8,0,1,1,70.543,70543,1.8800,3.6600,-8.2400,9.2102,-0.1178,0.2727,0.0938,-7.75,157.81,127.13,1.4662,3.1688,-8.8862,9.5475
1,8,0,1,1,70.716,70716,1.5400,3.5800,-8.7200,9.5513,-0.2171,0.0774,-0.0033,-6.94,159.63,126.56,1.4759,3.2230,-8.8643,9.5468
1,8,0,1,1,70.847,70847,1.1500,3.1600,-8.8100,9.4300,-0.1058,0.0360,0.0284,-6.81,160.25,126.56,1.4330,3.2147,-8.8571,9.5308
1,8,0,1,1,70.977,70977,0.7800,2.7500,-8.5800,9.0436,-0.0774,0.1647,0.1309,-6.56,161.13,125.63,1.3469,3.1534,-8.8206,9.4637
1,8,0,1,1,71.111,71111,0.7800,2.5300,-9.3700,9.7368,-0.4309,0.3840,0.1484,-4.63,163.06,124.50,1.2722,3.0713,-8.8930,9.4940
1,8,0,1,1,71.242,71242,0.9300,2.4400,-9.2700,9.6308,-0.2487,0.2509,0.0960,-2.81,166.00,123.06,1.2271,2.9881,-8.9427,9.5082
1,8,0,1,1,71.375,71375,1.7200,0.9600,-12.9600,13.1088,-0.4909,-0.0818,-0.1658,-2.50,168.19,122.69,1.2921,2.7209,-9.4721,9.9394
1,8,0,1,1,71.505,71505,0.3200,2.8600,-7.9500,8.4549,0.3425,-0.2105,0.2269,-4.81,170.69,122.56,1.1640,2.7392,-9.2715,9.7375
1,8,0,1,1,71.636,71636,1.1400,0.5900,-8.2000,8.2999,0.1374,0.1669,0.2934,-4.69,166.25,120.75,1.1608,2.4560,-9.1303,9.5258
1,8,0,1,1,71.809,71809,0.7800,1.7300,-9.8500,10.0311,-0.5149,0.1462,-0.0676,-3.38,171.25,120.50,1.1106,2.3603,-9.2251,9.5869
1,8,0,1,1,71.940,71940,0.4100,0.7000,-9.6900,9.7239,-0.1745,0.0982,-0.1025,-2.69,173.44,120.50,1.0183,2.1415,-9.2864,9.5844
1,8,0,1,1,72.070,72070,0.5800,0.3300,-10.9000,10.9204,-0.6207,-0.2356,-0.0393,-2.94,176.38,120.75,0.9606,1.9028,-9.4990,9.7352
1,8,0,1,1,72.201,72201,0.4200,1.6600,-9.4200,9.5744,-0.0654,0.1909,-0.2018,-3.06,-179.69,121.50,0.8893,1.8708,-9.4886,9.7121
1,8,0,1,1,72.331,72331,0.0200,-0.3400,-9.0800,9.0864,0.4276,0.0196,-0.0796,-2.38,176.88,121.50,0.7748,1.5795,-9.4348,9.5974
1,8,0,1,1,72.462,72462,-0.1000,0.2900,-9.8900,9.8948,-0.3807,0.1560,0.1222,-1.75,177.88,121.06,0.6595,1.4096,-9.4948,9.6214
1,8,0,1,1,72.593,72593,0.7700,0.3200,-9.7500,9.7856,-0.1342,-0.0382,0.1658,-1.00,179.88,119.56,0.6741,1.2660,-9.5284,9.6357
1,8,0,1,1,72.726,72726,0.2000,-0.1200,-9.2100,9.2130,-0.0567,-0.2171,0.3033,-2.38,-179.38,118.00,0.6116,1.0834,-9.4864,9.5677
1,8,0,1,1,72.899,72899,0.4300,-0.1600,-9.9400,9.9506,-0.0774,-0.0436,0.2847,-3.81,-178.06,113.44,0.5877,0.9195,-9.5462,9.6084
1,8,0,1,1,73.030,73030,0.9800,-0.5300,-10.0000,10.0619,-0.0731,0.1822,-0.0862,-2.94,-177.63,112.13,0.6394,0.7285,-9.6060,9.6548
1,8,0,1,1,73.160,73160,1.1600,-0.0700,-9.7500,9.8190,0.0273,0.0665,-0.1527,-2.38,-177.69,113.19,0.7080,0.6233,-9.6250,9.6711
1,8,0,1,1,73.292,73292,0.4800,-0.4400,-10.1400,10.1609,-0.0404,-0.2563,-0.1276,-3.81,-178.06,114.25,0.6779,0.4832,-9.6928,9.7285
1,8,0,1,1,73.422,73422,0.6900,0.3200,-10.4400,10.4677,0.0480,0.0011,-0.1189,-4.63,-177.88,115.19,0.6795,0.4617,-9.7913,9.8257
1,8,0,1,1,73.552,73552,0.9600,0.4400,-10.3600,10.4137,0.3709,0.0665,-0.0240,-4.38,-179.81,115.44,0.7165,0.4588,-9.8662,9.9029
1,8,0,1,1,73.683,73683,0.2600,-0.1100,-10.0000,10.0040,0.5149,-0.0644,0.0055,-5.25,176.31,115.44,0.6563,0.3839,-9.8839,9.9131
1,8,0,1,1,73.813,73813,0.7900,0.9600,-9.5200,9.6008,0.1876,-0.1374,-0.0295,-5.63,173.94,115.44,0.6739,0.4598,-9.8359,9.8697
1,8,0,1,1,73.986,73986,0.6900,1.2100,-8.6000,8.7121,0.4800,0.0349,-0.0742,-5.50,170.88,116.31,0.6761,0.5586,-9.6731,9.7127
1,8,0,1,1,74.117,74117,0.6900,2.4900,-8.2200,8.6165,-0.0185,0.0087,-0.1396,-5.19,170.19,117.13,0.6779,0.8131,-9.4816,9.5405
1,8,0,1,1,74.248,74248,0.9700,1.2700,-10.2500,10.3738,0.0905,-0.1145,0.0185,-5.50,168.38,117.38,0.7164,0.8733,-9.5828,9.6492
1,8,0,1,1,74.378,74378,0.8600,2.5400,-10.2300,10.5756,0.1745,-0.0120,-0.0916,-5.69,168.31,117.88,0.7353,1.0930,-9.6681,9.7574
1,8,0,1,1,74.509,74509,0.6500,1.6600,-8.8300,9.0082,0.5192,0.3272,-0.1691,-4.25,164.31,119.31,0.7241,1.1677,-9.5577,9.6559
1,8,0,1,1,74.641,74641,1.3500,3.0500,-9.0500,9.6451,-0.0098,-0.1200,-0.0316,-3.50,162.88,119.63,0.8066,1.4157,-9.4908,9.6296
1,8,0,1,1,74.775,74775,0.3100,3.1600,-9.4300,9.9502,0.3491,-0.1909,-0.2673,-4.44,161.56,121.63,0.7411,1.6456,-9.4828,9.6530
1,8,0,1,1,74.906,74906,0.8500,3.2700,-8.4500,9.1004,0.3240,0.1353,0.0502,-3.75,158.81,122.25,0.7555,1.8596,-9.3467,9.5598
1,8,0,1,1,75.079,75079,0.9100,3.7500,-9.2200,9.9949,0.3076,-0.2520,-0.0218,-4.19,156.44,122.94,0.7758,2.1087,-9.3300,9.5967
1,8,0,1,1,75.209,75209,1.1000,4.2100,-7.7600,8.8967,0.4941,0.0764,0.2083,-5.25,154.31,122.94,0.8185,2.3856,-9.1231,9.4653
1,8,0,1,1,75.339,75339,0.8300,4.1600,-9.9500,10.8165,-0.2487,-0.1298,-0.0065,-4.81,152.81,122.94,0.8201,2.6194,-9.2321,9.6315
1,8,0,1,1,75.469,75469,0.1500,4.2200,-9.0000,9.9414,0.5312,-0.2356,-0.0644,-6.75,152.00,122.94,0.7318,2.8304,-9.2015,9.6547
1,8,0,1,1,75.599,75599,1.3000,4.1000,-7.8200,8.9248,0.2378,0.2062,0.0971,-7.69,149.19,121.06,0.8066,2.9977,-9.0194,9.5387
1,8,0,1,1,75.729,75729,2.0300,4.3700,-7.3900,8.8221,-0.1953,0.1211,0.0644,-6.69,149.31,119.94,0.9678,3.1785,-8.8047,9.4108
1,8,0,1,1,75.859,75859,1.4700,5.0200,-8.6900,10.1428,-0.4331,-0.1876,-0.1331,-6.69,151.94,121.19,1.0340,3.4212,-8.7896,9.4885
1,8,0,1,1,75.990,75990,1.0800,4.5700,-7.9600,9.2419,0.1505,-0.2411,-0.1385,-7.75,152.19,122.94,1.0401,3.5726,-8.6803,9.4442
1,8,0,1,1,76.163,76163,0.8400,3.7900,-7.4000,8.3564,-0.3971,0.1876,-0.0087,-7.63,152.94,123.88,1.0137,3.6012,-8.5116,9.2975
1,9,0,1,1,76.293,76293,1.2300,3.8900,-9.1600,10.0275,-0.8039,0.2880,-0.0011,-5.81,157.75,123.38,1.0422,3.6393,-8.5970,9.3936
1,9,0,1,1,76.424,76424,1.3400,3.2500,-9.4600,10.0921,-0.3709,0.0305,-0.0273,-4.75,162.19,123.44,1.0815,3.5880,-8.7107,9.4826
1,9,0,1,1,76.555,76555,0.8300,1.2900,-10.4500,10.5620,-0.6054,-0.3818,0.1156,-6.13,164.81,123.81,1.0483,3.2852,-8.9399,9.5819
1,9,0,1,1,76.685,76685,0.7900,2.0300,-9.2200,9.4738,-0.5247,0.3065,0.0109,-7.19,170.06,123.06,1.0143,3.1198,-8.9768,9.5575
1,9,0,1,1,76.816,76816,1.2600,1.3400,-10.0800,10.2464,-0.2574,0.2793,0.1124,-4.56,172.31,122.88,1.0467,2.8852,-9.1222,9.6247
1,9,0,1,1,76.946,76946,1.0500,0.9600,-9.4700,9.5763,-0.0774,0.0011,0.0589,-3.94,173.44,122.38,1.0471,2.6315,-9.1680,9.5955
1,9,0,1,1,77.079,77079,0.6400,0.8700,-9.2700,9.3327,-0.1604,0.0633,-0.0622,-3.88,174.38,121.63,0.9935,2.3994,-9.1815,9.5417
1,9,0,1,1,77.254,77254,0.6100,0.4800,-9.6200,9.6513,-0.1604,0.1396,0.0196,-2.69,175.56,122.00,0.9429,2.1465,-9.2393,9.5321
1,9,0,1,1,77.384,77384,0.4400,0.6400,-9.2800,9.3124,-0.1342,0.1505,0.0153,-1.69,176.69,121.81,0.8767,1.9480,-9.2446,9.4882
1,9,0,1,1,77.515,77515,0.4100,-0.0200,-9.7400,9.7486,-0.2498,0.0502,0.0436,-0.94,177.63,121.06,0.8152,1.6886,-9.3099,9.4969
1,9,0,1,1,77.645,77645,0.4500,1.2200,-9.1100,9.2023,-0.2683,-0.0829,0.0284,-1.56,-179.69,120.94,0.7670,1.6269,-9.2836,9.4562
1,9,0,1,1,77.775,77775,0.0600,-0.6600,-9.3700,9.3934,0.1844,0.0447,0.0698,-2.19,178.88,119.88,0.6739,1.3255,-9.2950,9.4131
1,9,0,1,1,77.906,77906,0.5500,-0.0500,-9.7200,9.7357,-0.4374,0.1440,-0.0556,-1.06,-178.94,119.88,0.6575,1.1443,-9.3510,9.4436
1,9,0,1,1,78.037,78037,0.3100,-0.1800,-9.9500,9.9565,-0.1025,-0.0840,-0.0840,-1.38,-177.25,120.19,0.6117,0.9698,-9.4299,9.4994
1,9,0,1,1,78.167,78167,0.2100,-0.2600,-9.8000,9.8057,0.0720,0.0513,-0.0447,-1.56,-177.44,120.19,0.5588,0.8077,-9.4787,9.5294
1,9,0,1,1,78.340,78340,0.2800,-0.6500,-9.4300,9.4565,0.1396,-0.0207,-0.0382,-1.56,-178.69,120.19,0.5221,0.6156,-9.4723,9.5066
1,9,0,1,1,78.471,78471,0.2800,0.1100,-9.2700,9.2749,-0.0098,0.0273,0.0109,-1.56,-178.44,120.25,0.4902,0.5490,-9.4456,9.4742
1,9,0,1,1,78.601,78601,0.4000,-0.2900,-9.6200,9.6327,0.0415,-0.0131,-0.0382,-1.31,-178.94,120.19,0.4783,0.4384,-9.4686,9.4908
1,9,0,1,1,78.732,78732,0.6200,-0.4000,-9.3400,9.3691,0.0600,-0.1713,-0.1134,-2.00,-179.38,121.13,0.4970,0.3280,-9.4516,9.4704
1,9,0,1,1,78.862,78862,0.0900,-0.4200,-9.8500,9.8594,-0.2094,0.0425,-0.0774,-2.63,-178.69,121.88,0.4433,0.2294,-9.5041,9.5172
1,9,0,1,1,78.992,78992,0.2600,0.0700,-9.9500,9.9536,-0.1713,0.3043,0.0011,-1.06,-177.06,122.38,0.4192,0.2084,-9.5629,9.5743
1,9,0,1,1,79.122,79122,0.2600,-0.4800,-9.9000,9.9150,0.1800,0.1309,0.0556,0.44,-178.13,122.13,0.3982,0.1177,-9.6073,9.6163
1,9,0,1,1,79.252,79252,0.3800,-0.5600,-9.9400,9.9630,-0.0785,-0.2443,0.1254,-0.44,-178.25,120.88,0.3958,0.0284,-9.6512,9.6593
1,9,0,1,1,79.425,79425,-0.0500,-0.1000,-9.9100,9.9106,0.1047,-0.0993,-0.0240,-2.63,-177.63,119.63,0.3371,0.0115,-9.6853,9.6911
1,9,0,1,1,79.555,79555,0.2200,-0.1100,-9.7800,9.7831,0.3000,0.2182,0.0349,-1.50,-179.56,119.50,0.3216,-0.0045,-9.6977,9.7031
1,9,0,1,1,79.691,79691,0.7800,-0.0900,-9.1700,9.2036,0.2083,-0.1331,0.0065,-1.00,178.63,119.44,0.3820,-0.0158,-9.6282,9.6358
1,9,0,1,1,79.821,79821,0.0500,-0.1400,-10.3100,10.3111,-0.0491,-0.1604,-0.1756,-2.56,177.94,119.94,0.3383,-0.0322,-9.7180,9.7240
1,9,0,1,1,79.952,79952,0.0600,0.5200,-9.7400,9.7541,0.1244,0.0993,-0.1036,-2.69,178.25,120.06,0.3016,0.0406,-9.7209,9.7257
1,9,0,1,1,80.083,80083,0.5200,0.3500,-9.6900,9.7103,0.1276,0.0065,-0.0654,-2.19,177.25,120.38,0.3304,0.0814,-9.7169,9.7228
1,9,0,1,1,80.214,80214,0.4200,0.5000,-9.2300,9.2531,0.2094,-0.0971,0.0633,-2.56,175.94,120.25,0.3422,0.1365,-9.6527,9.6597
1,9,0,1,1,80.344,80344,0.5200,0.6800,-9.1800,9.2198,0.0742,0.0622,-0.0055,-2.94,175.13,120.19,0.3656,0.2081,-9.5904,9.5996
1,9,0,1,1,80.517,80517,0.8500,0.9000,-8.8200,8.9065,0.1113,-0.0415,0.0262,-2.63,174.56,120.50,0.4295,0.2993,-9.4889,9.5033
1,9,0,1,1,80.647,80647,-0.0500,1.5600,-9.7900,9.9136,0.0349,-0.0894,0.0207,-3.06,174.19,121.38,0.3663,0.4654,-9.5286,9.5470
1,9,0,1,1,80.778,80778,1.5800,1.2200,-9.6100,9.8151,0.3742,0.1047,0.1429,-2.75,172.19,121.56,0.5262,0.5649,-9.5393,9.5705
1,9,0,1,1,80.908,80908,0.2200,1.3700,-9.6800,9.7789,0.2269,-0.1931,-0.0622,-3.31,169.88,122.19,0.4859,0.6710,-9.5578,9.5937
1,9,0,1,1,81.039,81039,1.5100,1.2800,-10.2000,10.3903,0.2782,-0.0535,-0.1614,-4.38,168.06,122.31,0.6208,0.7512,-9.6425,9.6916
1,9,0,1,1,81.170,81170,-0.0200,2.2100,-8.2700,8.5602,0.1756,0.0851,-0.0567,-4.06,166.44,122.88,0.5364,0.9435,-9.4616,9.5236
1,9,0,1,1,81.300,81300,1.2700,2.3000,-8.7500,9.1359,0.0131,0.2782,0.0851,-2.56,166.44,122.75,0.6330,1.1222,-9.3678,9.4560
1,9,0,1,1,81.431,81431,0.6500,2.2300,-10.6800,10.9297,0.2007,-0.0960,-0.0284,-2.13,165.50,122.56,0.6353,1.2682,-9.5407,9.6456
1,9,0,1,1,81.607,81607,0.7800,1.9600,-8.4000,8.6608,0.3567,-0.1604,-0.0131,-4.00,161.50,121.69,0.6544,1.3594,-9.3904,9.5108
1,9,0,1,1,81.737,81737,0.5300,2.8000,-9.9100,10.3116,-0.5531,-0.0305,-0.1822,-4.44,163.31,122.19,0.6380,1.5492,-9.4589,9.6061
1,9,0,1,1,81.869,81869,1.1000,3.0000,-8.5000,9.0807,0.3174,-0.1080,0.0109,-4.81,164.38,122.31,0.6988,1.7404,-9.3325,9.5191
1,9,0,1,1,81.999,81999,0.9800,2.3100,-8.7500,9.1027,-0.0916,-0.0611,-0.0175,-5.63,162.94,122.38,0.7359,1.8154,-9.2558,9.4608
1,9,0,1,1,82.129,82129,1.1500,2.3600,-8.8000,9.1833,-0.3109,0.0425,-0.0851,-5.38,164.94,122.81,0.7905,1.8872,-9.1957,9.4206
1,9,0,1,1,82.275,82275,0.7800,2.4000,-8.9800,9.3279,-0.2214,0.0796,-0.0960,-5.44,167.44,123.56,0.7891,1.9548,-9.1673,9.4065
1,9,0,1,1,82.410,82410,0.2800,2.3200,-8.9700,9.2694,-0.1876,0.1756,-0.0055,-4.75,169.06,123.88,0.7220,2.0029,-9.1413,9.3859
1,9,0,1,1,82.540,82540,1.3200,1.3500,-9.4600,9.6466,-0.1876,0.1091,0.0098,-3.13,170.19,123.63,0.8008,1.9169,-9.1833,9.4153
1,9,0,1,1,82.713,82713,-0.8600,1.5200,-10.8100,10.9502,-0.3676,-0.4091,-0.2051,-5.06,173.06,125.00,0.5820,1.8646,-9.3976,9.5985
1,9,0,1,1,82.843,82843,1.0200,1.2300,-8.3400,8.4917,0.1898,0.1887,0.1156,-5.19,173.31,124.38,0.6397,1.7809,-9.2583,9.4497
1,9,0,1,1,82.973,82973,0.5000,0.3000,-9.8900,9.9072,-0.4222,0.1756,-0.0687,-3.44,173.56,124.69,0.6213,1.5858,-9.3415,9.4955
1,9,0,1,1,83.103,83103,1.1000,1.2700,-8.4500,8.6154,-0.2345,0.0175,0.1811,-3.06,177.06,124.56,0.6844,1.5442,-9.2240,9.3774
1,9,0,1,1,83.233,83233,-0.2800,0.4800,-8.7400,8.7576,-0.0785,0.0447,0.1887,-3.38,177.38,124.75,0.5573,1.4039,-9.1603,9.2840
1,9,0,1,1,83.363,83363,0.9400,-0.5100,-9.8500,9.9079,-0.5454,0.0109,0.1353,-2.13,179.19,124.13,0.6077,1.1517,-9.2511,9.3424
1,9,0,1,1,83.494,83494,0.2800,-0.2100,-10.2800,10.2860,-0.3731,-0.0971,0.1124,-3.19,-176.81,123.50,0.5645,0.9723,-9.3867,9.4538
1,9,0,1,1,83.624,83624,0.2000,-0.2100,-10.1500,10.1541,-0.0131,0.2203,0.0829,-2.00,-175.69,123.06,0.5165,0.8165,-9.4873,9.5364
1,9,0,1,1,83.797,83797,0.6100,-1.2200,-9.0900,9.1918,0.3327,-0.3371,0.1702,-1.56,-179.13,121.19,0.5288,0.5481,-9.4349,9.4656
1,9,0,1,1,83.928,83928,0.3700,-1.2300,-9.7200,9.8045,-0.4374,-0.2869,0.2673,-4.44,-177.00,119.00,0.5079,0.3138,-9.4725,9.4913
1,9,0,1,1,84.058,84058,0.2200,-0.7300,-10.9800,11.0064,-0.5716,0.1156,-0.0240,-5.00,-172.75,118.75,0.4699,0.1763,-9.6712,9.6842
1,9,0,1,1,84.189,84189,1.0800,0.8300,-9.6500,9.7457,0.2934,0.4363,0.1309,-2.38,-170.75,119.75,0.5503,0.2624,-9.6684,9.6876
1,9,0,1,1,84.319,84319,0.6500,-1.5000,-9.0200,9.1669,1.0810,-0.3992,0.0295,-3.06,-178.06,119.00,0.5635,0.0302,-9.5829,9.5995
1,9,0,1,1,84.450,84450,0.7100,-0.8800,-9.1700,9.2394,-0.3436,-0.0840,0.0207,-4.81,-179.25,118.31,0.5828,-0.0898,-9.5285,9.5467
1,9,0,1,1,84.581,84581,0.7600,-0.1000,-9.3000,9.3315,-0.1974,0.1276,-0.0098,-4.44,-176.88,118.50,0.6061,-0.0911,-9.4984,9.5182
1,9,0,1,1,84.712,84712,0.8800,-0.6600,-10.1800,10.2393,-0.2334,0.1778,-0.0393,-3.25,-176.00,118.88,0.6422,-0.1661,-9.5882,9.6111
1,9,0,1,1,84.885,84885,0.7400,-0.1100,-10.9900,11.0154,0.0338,-0.1604,-0.0196,-3.25,-174.50,119.44,0.6551,-0.1587,-9.7729,9.7962
1,9,0,1,1,85.018,85018,0.7300,-0.0200,-10.2200,10.2461,0.5487,-0.1167,-0.0076,-4.19,-176.50,119.63,0.6650,-0.1404,-9.8319,9.8553
1,10,0,1,1,85.149,85149,0.7900,-0.5700,-9.3900,9.4404,0.5018,0.0622,-0.0295,-4.00,178.88,119.94,0.6815,-0.1970,-9.7736,9.7993
1,10,0,1,1,85.280,85280,0.7900,0.2900,-9.2800,9.3181,0.0371,0.0044,-0.1189,-3.81,177.38,120.81,0.6958,-0.1328,-9.7086,9.7344
1,10,0,1,1,85.410,85410,0.5800,0.8600,-9.2500,9.3080,0.0785,-0.0742,-0.1309,-4.31,177.00,122.13,0.6805,-0.0020,-9.6482,9.6721
1,10,0,1,1,85.540,85540,0.5300,0.7100,-10.3100,10.3480,0.1429,0.0469,-0.1058,-4.75,175.81,123.19,0.6607,0.0918,-9.7354,9.7582
1,10,0,1,1,85.671,85671,0.7500,1.2800,-9.4300,9.5460,0.4483,0.0491,-0.0022,-3.94,173.81,123.50,0.6724,0.2484,-9.6951,9.7216
1,10,0,1,1,85.801,85801,0.9400,1.1700,-9.5200,9.6376,0.3894,-0.1494,-0.0044,-4.50,170.13,123.50,0.7077,0.3698,-9.6720,9.7050
1,10,0,1,1,85.974,85974,0.9000,2.0500,-8.4700,8.7609,0.3033,0.0905,0.1658,-4.88,167.94,123.69,0.7330,0.5912,-9.5136,9.5601
1,10,0,1,1,86.104,86104,0.6700,1.9900,-9.1700,9.4073,-0.1102,-0.0316,0.0273,-4.38,166.38,124.75,0.7247,0.7756,-9.4684,9.5277
1,10,0,1,1,86.234,86234,1.0700,2.2500,-9.2100,9.5410,-0.0393,-0.0480,-0.0360,-4.56,167.06,125.31,0.7702,0.9699,-9.4343,9.5153
1,10,0,1,1,86.364,86364,0.8500,1.8800,-8.6400,8.8829,-0.0109,0.3862,0.0469,-4.75,167.19,124.31,0.7807,1.0898,-9.3296,9.4255
1,10,0,1,1,86.494,86494,0.9300,2.6400,-9.9000,10.2881,-0.5105,0.2553,0.0622,-1.63,169.75,123.56,0.8004,1.2941,-9.4048,9.5271
1,10,0,1,1,86.624,86624,1.0500,2.5200,-10.0500,10.4142,0.4407,-0.4418,-0.1244,-2.63,170.19,123.44,0.8333,1.4556,-9.4898,9.6369
1,10,0,1,1,86.755,86755,0.7000,1.6300,-9.1400,9.3106,0.7407,-0.4581,0.1538,-5.75,164.88,124.19,0.8157,1.4786,-9.4437,9.5935
1,10,0,1,1,86.885,86885,0.5900,2.3600,-8.4800,8.8220,0.1211,-0.1473,-0.0273,-8.38,162.25,124.13,0.7860,1.5947,-9.3167,9.4849
1,10,0,1,1,87.058,87058,0.9500,3.2200,-8.6500,9.2787,0.0425,0.1996,0.0447,-7.19,161.75,124.56,0.8076,1.8089,-9.2289,9.4391
1,10,0,1,1,87.189,87189,1.0900,3.1600,-9.3200,9.9013,0.1451,-0.0382,-0.1309,-6.81,160.94,124.13,0.8448,1.9869,-9.2409,9.4898
1,10,0,1,1,87.319,87319,1.6400,3.4100,-8.9900,9.7539,0.1636,-0.1342,0.2193,-7.38,159.56,123.94,0.9496,2.1745,-9.2078,9.5086
1,10,0,1,1,87.450,87450,0.7100,3.3600,-9.1500,9.7732,0.0851,-0.1069,-0.2105,-7.88,158.44,124.44,0.9180,2.3307,-9.2002,9.5351
1,10,0,1,1,87.580,87580,1.1000,3.9400,-8.8900,9.7860,0.1538,0.1287,-0.1505,-8.31,158.06,123.75,0.9420,2.5428,-9.1593,9.5523
1,10,0,1,1,87.711,87711,1.7900,3.6400,-7.9700,8.9429,0.2640,0.1091,0.1025,-7.38,156.50,123.00,1.0537,2.6873,-9.0026,9.4541
1,10,0,1,1,87.842,87842,1.3500,3.6000,-8.4200,9.2563,-0.2313,-0.0164,-0.0055,-7.19,156.25,123.13,1.0928,2.8076,-8.9258,9.4206
1,10,0,1,1,87.972,87972,1.2700,4.0200,-8.0800,9.1137,-0.2094,0.0644,0.0295,-7.19,157.63,123.44,1.1161,2.9674,-8.8144,9.3672
1,10,0,1,1,88.145,88145,1.5700,3.1000,-9.9700,10.5582,-0.3818,0.1778,-0.1713,-5.50,158.81,123.56,1.1759,2.9848,-8.9667,9.5233
1,10,0,1,1,88.279,88279,0.4500,3.2300,-8.4500,9.0575,-0.2891,-0.2018,-0.1407,-6.00,162.19,124.00,1.0803,3.0172,-8.8986,9.4581
1,10,0,1,1,88.410,88410,0.3500,1.9600,-9.5800,9.7847,-0.3851,0.4189,0.0873,-5.31,163.69,123.81,0.9841,2.8778,-8.9884,9.4890
1,10,0,1,1,88.541,88541,1.1600,2.5900,-9.4900,9.9052,-0.4680,0.1113,0.0916,-2.81,167.69,122.69,1.0072,2.8399,-9.0545,9.5427
1,10,0,1,1,88.671,88671,0.9000,2.0000,-9.6000,9.8473,0.0164,-0.0011,0.0709,-3.31,168.50,121.69,0.9931,2.7292,-9.1264,9.5773
1,10,0,1,1,88.801,88801,0.5100,1.7400,-8.9300,9.1122,-0.0622,-0.0796,-0.0371,-3.94,168.75,121.81,0.9294,2.5989,-9.1005,9.5098
1,10,0,1,1,88.932,88932,0.2000,0.9700,-9.8700,9.9196,-0.3142,-0.0404,-0.3218,-4.00,169.63,123.13,0.8333,2.3842,-9.2019,9.5422
1,10,0,1,1,89.062,89062,0.4400,1.6200,-9.5800,9.7260,-0.3818,-0.0698,-0.0807,-3.63,172.94,124.69,0.7815,2.2835,-9.2517,9.5613
1,10,0,1,1,89.235,89235,0.5500,1.2500,-8.1100,8.2242,0.3807,-0.2018,0.0829,-6.00,172.69,124.94,0.7510,2.1473,-9.1013,9.3813
1,10,0,1,1,89.366,89366,1.0500,0.4000,-9.4300,9.4967,-0.2083,-0.0469,0.1222,-7.19,171.38,124.06,0.7904,1.9171,-9.1446,9.3767
1,10,0,1,1,89.497,89497,0.5700,1.1100,-10.3300,10.4051,-0.4516,0.6272,-0.0578,-5.00,174.63,123.94,0.7613,1.8107,-9.3008,9.5059
1,10,0,1,1,89.627,89627,1.0700,0.7300,-9.2200,9.3105,0.1407,-0.0415,0.2182,-2.56,175.06,122.25,0.8020,1.6683,-9.2901,9.4728
1,10,0,1,1,89.758,89758,0.6100,0.0300,-9.6600,9.6793,-0.3545,-0.0055,0.0371,-3.19,175.75,121.25,0.7767,1.4524,-9.3389,9.4830
1,10,0,1,1,89.889,89889,0.5800,0.2100,-10.0500,10.0689,-0.2640,0.1833,-0.0393,-2.56,178.69,121.31,0.7508,1.2887,-9.4326,9.5498
1,10,0,1,1,90.024,90024,1.1400,0.4600,-9.2100,9.2917,0.0687,0.1407,-0.0709,-1.13,179.56,121.94,0.8021,1.1795,-9.4033,9.5108
1,10,0,1,1,90.154,90154,-0.0200,-1.0700,-11.2900,11.3406,-0.2291,-0.3142,-0.0905,-2.00,179.25,123.19,0.6938,0.8831,-9.6519,9.7170
1,10,0,1,1,90.327,90327,0.6400,0.6000,-8.5400,8.5849,0.3305,0.1963,0.0305,-0.94,-177.56,124.44,0.6867,0.8458,-9.5054,9.5676
1,10,0,1,1,90.457,90457,0.2200,-1.0700,-9.4500,9.5129,0.0382,-0.1484,0.0055,-1.00,179.63,123.69,0.6252,0.5933,-9.4981,9.5371
1,10,0,1,1,90.587,90587,-0.1700,-0.4900,-9.7600,9.7738,-0.4625,-0.0665,0.0447,-1.69,-177.44,123.69,0.5204,0.4506,-9.5326,9.5574
1,10,0,1,1,90.717,90717,0.3300,0.1000,-10.7400,10.7455,-0.1767,0.2182,0.0382,-1.06,-175.00,123.13,0.4953,0.4044,-9.6917,9.7128
1,10,0,1,1,90.848,90848,0.4300,0.3800,-10.3300,10.3459,0.5007,0.1233,0.0076,0.13,-177.31,123.25,0.4867,0.4012,-9.7758,9.7961
1,10,0,1,1,90.978,90978,0.1400,-0.4100,-9.5000,9.5099,0.6621,-0.1898,0.0196,-0.19,177.56,123.19,0.4410,0.2943,-9.7395,9.7539
1,10,0,1,1,91.108,91108,0.2700,-0.1200,-9.3200,9.3247,0.0425,-0.2007,0.0764,-1.88,176.44,122.56,0.4185,0.2397,-9.6842,9.6962
1,10,0,1,1,91.239,91239,0.3700,0.5100,-9.9600,9.9799,-0.3480,0.1309,-0.0316,-1.75,178.38,122.63,0.4121,0.2753,-9.7205,9.7332
1,10,0,1,1,91.411,91411,0.5100,0.7600,-10.2600,10.3007,0.2040,0.0109,0.0120,-1.13,178.94,122.69,0.4250,0.3392,-9.7916,9.8067
1,10,0,1,1,91.541,91541,0.0900,-0.0600,-9.5700,9.5706,-0.0109,-0.1309,0.1625,-1.75,178.00,121.50,0.3808,0.2866,-9.7624,9.7740
1,10,0,1,1,91.671,91671,0.5800,0.7800,-9.7200,9.7685,0.1440,0.0578,0.0742,-1.75,177.81,121.50,0.4071,0.3516,-9.7568,9.7716
1,10,0,1,1,91.801,91801,0.5500,1.2000,-9.6800,9.7696,0.5814,-0.1440,0.1134,-2.19,175.19,121.63,0.4259,0.4634,-9.7467,9.7670
1,10,0,1,1,91.931,91931,0.6000,0.8300,-9.5500,9.6048,0.5912,0.0087,-0.0545,-2.69,170.69,121.69,0.4489,0.5117,-9.7208,9.7446
1,10,0,1,1,92.061,92061,0.7300,1.6800,-9.2000,9.3806,0.1593,-0.0425,-0.0251,-2.63,169.19,122.13,0.4859,0.6657,-9.6522,9.6873
1,10,0,1,1,92.192,92192,0.6200,2.3500,-9.3600,9.6704,0.1822,-0.1865,-0.0480,-3.56,167.63,122.88,0.5036,0.8876,-9.6137,9.6677
1,10,0,1,1,92.322,92322,0.5200,3.0100,-8.4600,8.9946,0.3971,-0.1440,0.0993,-4.50,166.13,123.00,0.5057,1.1673,-9.4616,9.5468
1,10,0,1,1,92.495,92495,1.4300,1.7900,-7.6600,7.9953,0.2051,-0.2182,-0.1800,-6.94,160.56,122.56,0.6275,1.2493,-9.2242,9.3296
1,10,0,1,1,92.626,92626,3.2800,3.0500,-10.1100,11.0577,-1.0243,-0.5836,0.1734,-9.31,164.88,123.44,0.9771,1.4866,-9.3409,9.5088
1,10,0,1,1,92.757,92757,-0.1400,3.8400,-9.8500,10.5730,0.3851,0.0633,-1.8130,-10.25,165.69,134.56,0.8299,1.7967,-9.4080,9.6139
1,10,0,1,1,92.887,92887,2.5400,3.0800,-8.3400,9.2463,1.0276,1.4399,-0.7472,-3.13,158.31,137.19,1.0552,1.9658,-9.2673,9.5321
1,10,0,1,1,93.018,93018,-2.0800,3.6700,-8.9900,9.9305,-0.8345,-0.6981,-0.0393,3.06,157.56,141.50,0.6421,2.1904,-9.2307,9.5088
1,10,0,1,1,93.148,93148,0.0700,3.9000,-10.7000,11.3888,-1.1181,-0.9370,0.2509,-5.63,166.75,139.44,0.5667,2.4157,-9.4244,9.7455
1,10,0,1,1,93.282,93282,-0.0900,2.7000,-9.6400,10.0114,0.9130,0.0469,-0.3763,-9.00,166.06,140.50,0.4802,2.4532,-9.4528,9.7777
1,10,0,1,1,93.413,93413,1.1000,2.3000,-8.1200,8.5108,0.5138,0.2694,-0.2803,-6.06,159.88,141.44,0.5618,2.4330,-9.2771,9.6073
1,10,0,1,1,93.586,93586,2.3900,3.0400,-8.7200,9.5390,-0.1898,0.1091,-0.1865,-6.81,162.06,137.88,0.8027,2.5130,-9.2037,9.5743
1,10,0,1,1,93.717,93717,0.4900,2.8200,-9.1600,9.5968,-0.1287,0.0545,-0.4091,-5.19,162.63,140.56,0.7615,2.5534,-9.1980,9.5761
1,10,0,1,1,93.847,93847,0.3600,3.0500,-9.8200,10.2890,-0.3131,0.3436,0.1647,-3.88,165.00,140.25,0.7086,2.6189,-9.2799,9.6684
1,10,0,1,1,93.977,93977,0.8400,2.9300,-9.7500,10.2153,0.4909,0.2880,-0.0600,-2.25,163.88,139.00,0.7259,2.6599,-9.3419,9.7403
1,10,0,1,1,94.108,94108,1.1100,2.8600,-8.4700,9.0085,0.1844,-0.0262,-0.1800,-0.38,161.13,139.75,0.7765,2.6862,-9.2270,9.6414
1,10,0,1,1,94.239,94239,-0.1200,2.7300,-8.6000,9.0237,-0.4778,-0.1440,-0.1069,-1.31,162.56,140.94,0.6584,2.6920,-9.1444,9.5551
1,10,0,1,1,94.369,94369,0.4500,3.7200,-9.6500,10.3520,-0.1494,0.1942,-0.1014,-0.63,165.81,140.56,0.6309,2.8275,-9.2110,9.6558
