participant,rep,equipment_code,exercise_code,quality_code,timestamp,timestamp_ms,accelX,accelY,accelZ,accelMag,gyroX,gyroY,gyroZ,roll,pitch,yaw,filteredX,filteredY,filteredZ,filteredMag
1,1,0,1,1,00.000,0,-0.2400,-0.1800,-9.6200,9.6247,0.0338,-0.1527,0.0742,0.75,-178.56,166.25,-0.3846,0.5849,-8.2917,8.3212
1,1,0,1,1,00.130,130,-0.2400,-0.3400,-10.0900,10.0986,0.1036,-0.0273,0.0938,0.13,-179.06,165.88,-0.3655,0.4630,-8.5287,8.5491
1,1,0,1,1,00.260,260,-0.0100,0.1400,-9.6100,9.6110,0.0589,0.0938,-0.0545,0.56,-179.63,166.00,-0.3187,0.4204,-8.6712,8.6872
1,1,0,1,1,00.390,390,0.0600,0.0000,-9.8400,9.8402,0.1189,-0.0120,-0.0578,0.81,179.50,166.19,-0.2688,0.3650,-8.8252,8.8368
1,1,0,1,1,00.563,563,-0.1800,0.2100,-10.1300,10.1338,-0.0207,0.0949,-0.0698,0.69,179.06,166.63,-0.2571,0.3446,-8.9971,9.0074
1,1,0,1,1,00.693,693,-0.3800,0.2600,-10.7800,10.7898,0.0884,-0.1244,0.0731,0.69,178.88,166.63,-0.2733,0.3334,-9.2321,9.2421
1,1,0,1,1,00.823,823,-0.3300,0.6700,-9.6200,9.6489,0.1887,0.2378,0.0371,0.75,178.19,165.56,-0.2808,0.3778,-9.2832,9.2951
1,1,0,1,1,00.954,954,-0.2300,0.5100,-9.8300,9.8459,0.3207,0.1113,-0.1244,2.50,175.81,166.19,-0.2741,0.3952,-9.3552,9.3676
1,1,0,1,1,01.084,1084,-0.9000,0.6100,-9.0800,9.1449,0.0556,-0.0240,-0.1025,2.38,174.31,167.25,-0.3566,0.4235,-9.3190,9.3354
1,1,0,1,1,01.218,1218,-0.9000,1.5700,-9.0700,9.2488,0.1287,0.0382,0.0229,2.94,173.50,168.13,-0.4282,0.5746,-9.2862,9.3138
1,1,0,1,1,01.349,1349,-1.8400,1.2600,-8.6300,8.9135,0.1287,-0.0611,0.0644,2.50,171.31,168.13,-0.6142,0.6649,-9.1997,9.2441
1,1,0,1,1,01.482,1482,-1.3900,1.7200,-10.3600,10.5934,0.0578,0.0164,-0.0185,3.25,170.63,168.00,-0.7164,0.8039,-9.3526,9.4144
1,1,0,1,1,01.654,1654,-1.5000,1.7800,-9.4000,9.6839,0.0578,-0.3382,0.0469,2.63,166.88,168.88,-0.8197,0.9326,-9.3588,9.4408
1,1,0,1,1,01.784,1784,-0.1800,2.6000,-10.1600,10.4889,0.1571,0.2454,-0.0993,3.38,166.38,169.06,-0.7354,1.1523,-9.4644,9.5626
1,1,0,1,1,01.914,1914,-1.5300,2.0600,-8.5800,8.9555,0.2727,0.1418,0.0556,4.88,164.44,169.19,-0.8401,1.2719,-9.3479,9.4713
1,1,0,1,1,02.044,2044,-0.0500,2.3500,-9.8300,10.1071,0.0971,0.2193,-0.2443,6.06,162.56,168.81,-0.7360,1.4140,-9.4114,9.5454
1,1,0,1,1,02.174,2174,-0.9900,3.5800,-10.0300,10.6957,-0.2727,-0.3785,-0.0218,5.50,164.25,169.81,-0.7695,1.6994,-9.4929,9.6745
1,1,0,1,1,02.304,2304,-1.0900,3.2800,-9.1300,9.7623,0.5847,0.2182,-0.1396,4.63,163.00,171.38,-0.8117,1.9077,-9.4451,9.6700
1,1,0,1,1,02.434,2434,-1.1700,2.3100,-8.9700,9.3363,0.1702,0.1233,0.2334,7.13,158.94,172.25,-0.8589,1.9607,-9.3825,9.6236
1,1,0,1,1,02.565,2565,-0.6400,4.0100,-9.8100,10.6172,-0.1560,0.0502,0.0033,7.00,159.38,171.19,-0.8301,2.2307,-9.4388,9.7343
1,1,0,1,1,02.737,2737,-0.4800,3.5400,-10.0000,10.6189,0.4145,0.4756,-0.4243,9.13,154.81,170.81,-0.7839,2.4033,-9.5128,9.8429
1,2,0,1,1,02.867,2867,-2.1500,4.4400,-5.7600,7.5838,0.5531,-0.0589,0.2596,9.69,152.25,171.00,-0.9639,2.6717,-9.0183,9.4549
1,2,0,1,1,02.997,2997,-2.3100,4.4600,-9.2500,10.5257,-0.0764,0.0109,-0.0175,10.94,150.00,171.44,-1.1413,2.9073,-9.0488,9.5727
1,2,0,1,1,03.127,3127,-1.9800,4.6700,-9.1200,10.4357,-0.1854,0.1571,-0.1080,10.56,151.13,170.31,-1.2518,3.1396,-9.0582,9.6682
1,2,0,1,1,03.257,3257,-1.8200,4.6800,-6.8800,8.5176,-0.0524,-0.1167,0.1331,10.56,152.38,169.69,-1.3267,3.3426,-8.7711,9.4798
1,2,0,1,1,03.387,3387,-2.2600,3.5100,-9.9800,10.8180,-0.4658,-0.1145,-0.3523,10.94,153.63,170.81,-1.4497,3.3646,-8.9304,9.6527
1,2,0,1,1,03.517,3517,-1.8100,4.7800,-8.3700,9.8072,-0.0971,-0.0087,-0.0382,10.25,157.19,170.94,-1.4972,3.5511,-8.8566,9.6587
1,2,0,1,1,03.648,3648,-1.6300,2.5200,-8.7200,9.2220,0.2716,-0.4963,-0.1658,9.63,155.06,172.25,-1.5147,3.4153,-8.8386,9.5958
1,2,0,1,1,03.820,3820,-1.9000,3.9100,-10.2900,11.1706,-0.4309,-0.1407,-0.1942,8.00,158.81,173.19,-1.5655,3.4805,-9.0299,9.8032
1,2,0,1,1,03.951,3951,-1.0500,3.8500,-9.2000,10.0282,0.0545,-0.1287,-0.1222,5.13,159.56,173.13,-1.4975,3.5292,-9.0523,9.8306
1,2,0,1,1,04.081,4081,-1.0800,3.2600,-8.8000,9.4464,-0.1985,-0.0753,-0.0011,4.38,159.94,173.81,-1.4425,3.4937,-9.0190,9.7790
1,2,0,1,1,04.212,4212,0.1500,3.3800,-10.5700,11.0983,-0.6927,-0.2945,0.2367,2.63,162.19,173.56,-1.2327,3.4787,-9.2234,9.9344
1,2,0,1,1,04.342,4342,-1.0400,3.0500,-8.5700,9.1558,0.4985,-0.2105,-0.1462,0.88,163.25,174.19,-1.2073,3.4222,-9.1373,9.8316
1,2,0,1,1,04.476,4476,-0.0500,2.5400,-10.3700,10.6767,-0.3938,-0.0513,0.0633,-0.19,162.19,174.00,-1.0548,3.3060,-9.2997,9.9261
1,2,0,1,1,04.607,4607,-0.6600,2.6600,-9.7100,10.0894,0.0120,0.7919,-0.2193,2.13,164.31,173.13,-1.0028,3.2208,-9.3538,9.9435
1,2,0,1,1,04.740,4740,0.4000,2.4400,-9.5900,9.9036,-0.0840,-0.1647,0.1527,3.50,164.56,171.38,-0.8179,3.1179,-9.3849,9.9231
1,2,0,1,1,04.912,4912,-0.7200,2.4100,-10.1500,10.4570,-0.1724,0.1593,0.0207,1.56,166.06,170.69,-0.8050,3.0247,-9.4857,9.9888
1,2,0,1,1,05.042,5042,-0.1300,3.1900,-10.4400,10.9173,-0.0196,-0.0535,-0.0229,2.00,167.25,170.38,-0.7161,3.0464,-9.6115,10.1081
1,2,0,1,1,05.172,5172,-0.9800,2.1600,-9.1400,9.4428,0.5476,0.2847,-0.0654,3.06,164.69,170.19,-0.7508,2.9296,-9.5494,10.0168
1,2,0,1,1,05.302,5302,-0.7100,3.4600,-9.7600,10.3795,-0.2803,-0.2934,0.0905,3.00,163.94,169.38,-0.7455,2.9995,-9.5771,10.0635
1,2,0,1,1,05.432,5432,-0.8700,2.1600,-8.6300,8.9386,0.5541,0.3971,-0.0055,3.00,162.13,168.81,-0.7619,2.8889,-9.4523,9.9132
1,2,0,1,1,05.562,5562,-0.5600,3.3900,-9.2000,9.8207,-0.3774,-0.0491,0.1102,3.75,162.88,168.19,-0.7353,2.9549,-9.4191,9.8990
1,2,0,1,1,05.692,5692,-0.3600,2.4100,-9.9100,10.2052,-0.0676,-0.1069,0.1713,3.31,163.56,167.88,-0.6858,2.8831,-9.4838,9.9360
1,2,0,1,1,05.823,5823,-1.0500,3.2600,-9.3600,9.9669,-0.0273,0.0676,-0.0458,2.44,164.88,167.63,-0.7338,2.9328,-9.4674,9.9384
1,2,0,1,1,05.996,5996,-0.6700,3.4700,-10.2700,10.8611,-0.2269,-0.3076,-0.0894,1.88,165.38,167.88,-0.7254,3.0036,-9.5732,10.0595
1,2,0,1,1,06.130,6130,-0.3700,2.6200,-10.4300,10.7604,0.1691,-0.0436,0.0589,1.25,164.50,168.00,-0.6786,2.9530,-9.6861,10.1490
1,2,0,1,1,06.261,6261,-0.0300,3.8200,-9.9700,10.6768,0.1593,-0.2847,0.0829,-0.13,164.81,166.88,-0.5931,3.0673,-9.7235,10.2131
1,2,0,1,1,06.394,6394,-1.1100,2.3100,-8.9700,9.3289,0.6360,0.4723,-0.3720,1.06,160.31,168.25,-0.6612,2.9675,-9.6242,10.0930
1,2,0,1,1,06.524,6524,-0.7300,2.8900,-8.1700,8.6968,0.0480,0.2018,-0.3174,3.75,159.00,169.44,-0.6703,2.9573,-9.4326,9.9080
1,2,0,1,1,06.655,6655,-0.7400,3.8400,-9.1100,9.9139,-0.0185,-0.2323,-0.0731,4.25,159.19,170.38,-0.6795,3.0736,-9.3901,9.9037
1,2,0,1,1,06.785,6785,-1.2300,3.8100,-9.4600,10.2723,0.0840,-0.1582,0.0665,3.19,158.88,170.94,-0.7520,3.1706,-9.3993,9.9481
1,2,0,1,1,06.915,6915,-0.4300,3.7200,-9.4100,10.1278,-0.0567,-0.2913,0.0109,2.13,158.00,170.63,-0.7096,3.2430,-9.4007,9.9697
1,2,0,1,1,07.088,7088,-1.1600,3.8500,-8.3500,9.2677,0.2673,0.0240,0.0055,1.63,155.25,171.25,-0.7689,3.3230,-9.2623,9.8703
1,2,0,1,1,07.219,7219,-0.3500,4.3100,-9.8800,10.7849,0.0436,0.2051,-0.2563,3.31,154.56,172.31,-0.7137,3.4531,-9.3437,9.9868
1,2,0,1,1,07.349,7349,-0.7100,4.6100,-8.2100,9.4425,0.1396,0.1974,0.0055,4.75,154.00,172.69,-0.7132,3.6055,-9.1943,9.9017
1,2,0,1,1,07.481,7481,-1.0500,4.3400,-8.3300,9.4513,0.4112,0.1898,-0.1494,7.06,151.69,173.56,-0.7576,3.7023,-9.0804,9.8354
1,2,0,1,1,07.612,7612,-1.6900,5.1100,-7.5200,9.2476,0.1189,-0.0360,0.0196,7.31,150.19,173.94,-0.8805,3.8878,-8.8748,9.7289
1,2,0,1,1,07.746,7746,-1.3700,4.7800,-9.6600,10.8647,0.1680,0.2760,-0.1604,9.13,148.25,174.44,-0.9450,4.0054,-8.9782,9.8765
1,2,0,1,1,07.878,7878,-1.7900,5.0600,-4.9800,7.3218,0.3600,0.0774,-0.1036,10.00,147.31,174.50,-1.0563,4.1443,-8.4514,9.4719
1,3,0,1,1,08.008,8008,-2.3600,6.0200,-9.3200,11.3434,0.2858,0.0578,-0.0687,11.06,145.00,175.38,-1.2281,4.3915,-8.5658,9.7040
1,3,0,1,1,08.181,8181,-2.2800,5.2100,-8.3400,10.0945,-0.1189,0.2913,0.0251,14.06,141.31,175.38,-1.3667,4.4994,-8.5361,9.7456
1,3,0,1,1,08.312,8312,-1.9900,6.7900,-7.1700,10.0734,0.0742,0.0393,0.2073,12.69,143.25,173.06,-1.4489,4.8012,-8.3561,9.7455
1,3,0,1,1,08.442,8442,-2.2100,5.2500,-7.0500,9.0636,0.2356,-0.1156,-0.0665,12.38,140.63,173.50,-1.5492,4.8604,-8.1840,9.6437
1,3,0,1,1,08.573,8573,-2.6000,6.1700,-6.7700,9.5216,-0.3436,-0.0393,-0.1309,11.56,142.00,173.94,-1.6876,5.0329,-7.9976,9.5990
1,3,0,1,1,08.704,8704,-2.0300,6.2900,-7.3000,9.8476,-0.2247,0.1145,0.0480,11.50,143.69,173.00,-1.7328,5.1986,-7.9057,9.6191
1,3,0,1,1,08.839,8839,-1.4000,4.7800,-7.2700,8.8126,-0.1200,-0.3000,-0.0338,10.63,144.75,172.63,-1.6889,5.1434,-7.8219,9.5126
1,3,0,1,1,08.969,8969,-0.7900,4.5500,-8.9100,10.0357,-0.7287,-0.5269,0.1396,8.38,148.25,173.13,-1.5705,5.0652,-7.9653,9.5692
1,3,0,1,1,09.101,9101,-1.7200,5.1300,-9.5500,10.9762,-0.5127,-0.2454,0.0175,5.56,154.00,174.06,-1.5902,5.0738,-8.1741,9.7513
1,3,0,1,1,09.273,9273,-1.2400,3.6300,-8.8300,9.6272,0.0578,0.1069,0.0284,5.50,154.50,174.13,-1.5440,4.8835,-8.2606,9.7195
1,3,0,1,1,09.403,9403,-0.9200,3.8700,-8.7100,9.5754,-0.2356,0.1222,0.1614,6.00,155.19,173.00,-1.4618,4.7500,-8.3198,9.6911
1,3,0,1,1,09.533,9533,-0.2700,4.1500,-9.6400,10.4988,-0.3360,-0.2236,0.1407,5.25,157.50,172.00,-1.3047,4.6709,-8.4938,9.7808
1,3,0,1,1,09.663,9663,-0.9300,3.6200,-9.4400,10.1530,-0.1058,-0.1745,0.1124,3.19,158.81,171.88,-1.2554,4.5324,-8.6184,9.8182
1,3,0,1,1,09.793,9793,-0.5200,3.8600,-9.6200,10.3786,-0.2531,-0.0087,0.0829,2.06,160.63,171.38,-1.1585,4.4438,-8.7504,9.8823
1,3,0,1,1,09.923,9923,-1.3100,3.1400,-9.0600,9.6778,-0.0305,0.2367,-0.0589,2.75,161.06,171.31,-1.1784,4.2720,-8.7912,9.8450
1,3,0,1,1,10.053,10053,-0.1900,2.6500,-9.1600,9.5375,-0.1876,0.3076,0.0578,5.06,161.75,171.38,-1.0482,4.0583,-8.8398,9.7832
1,3,0,1,1,10.183,10183,-1.2400,3.3600,-8.5000,9.2237,-0.2280,-0.5116,0.0676,2.63,164.13,171.06,-1.0735,3.9662,-8.7950,9.7075
1,3,0,1,1,10.356,10356,-0.9300,3.3400,-9.4200,10.0378,-0.0404,-0.1658,0.1265,-1.38,165.81,170.50,-1.0546,3.8837,-8.8774,9.7470
1,3,0,1,1,10.487,10487,0.4900,2.2000,-9.7000,9.9584,0.0578,0.3720,0.0415,0.38,164.75,170.06,-0.8510,3.6619,-8.9858,9.7405
1,3,0,1,1,10.618,10618,-0.0900,3.4000,-9.9600,10.5247,-0.0644,-0.3720,0.1178,-0.44,165.50,169.25,-0.7507,3.6273,-9.1142,9.8382
1,3,0,1,1,10.750,10750,-0.7000,2.0100,-8.8200,9.0732,0.2847,0.3033,-0.0458,-0.75,163.75,169.50,-0.7441,3.4142,-9.0754,9.7249
1,3,0,1,1,10.881,10881,0.4600,2.7700,-9.9900,10.3771,-0.5411,-0.0295,-0.0120,0.88,165.38,169.25,-0.5854,3.3293,-9.1959,9.7976
1,3,0,1,1,11.015,11015,-1.2000,3.4300,-10.5700,11.1772,0.1953,-0.0545,0.1800,0.00,166.56,169.00,-0.6664,3.3426,-9.3770,9.9772
1,3,0,1,1,11.146,11146,-0.1900,3.3400,-9.7000,10.2607,0.3272,0.2182,-0.0349,0.88,164.81,168.56,-0.6036,3.3423,-9.4196,10.0131
1,3,0,1,1,11.276,11276,0.2800,2.1300,-9.4000,9.6424,0.0491,-0.1320,-0.0393,1.25,162.31,168.56,-0.4872,3.1825,-9.4170,9.9521
1,3,0,1,1,11.449,11449,0.2200,3.6300,-10.1700,10.8007,0.1516,-0.0905,-0.0109,-0.31,163.56,168.75,-0.3940,3.2415,-9.5162,10.0608
1,3,0,1,1,11.580,11580,-0.5100,3.1900,-9.9100,10.4233,0.2956,0.2127,-0.2934,0.38,161.31,169.88,-0.4093,3.2347,-9.5681,10.1084
1,3,0,1,1,11.710,11710,-0.8000,3.2500,-8.7400,9.3590,0.3425,0.1920,-0.4440,2.69,159.19,171.00,-0.4608,3.2367,-9.4590,10.0080
1,3,0,1,1,11.844,11844,-0.4000,3.8700,-8.3900,9.2482,0.4167,0.0000,-0.0502,4.06,156.44,171.63,-0.4528,3.3202,-9.3181,9.9023
1,3,0,1,1,11.975,11975,0.0600,4.1200,-9.0800,9.9712,0.2618,-0.0873,0.0916,4.13,154.25,172.06,-0.3852,3.4256,-9.2867,9.9059
1,3,0,1,1,12.107,12107,-2.6100,4.4400,-8.0900,9.5903,0.0545,0.1734,-0.0764,4.81,153.13,172.88,-0.6784,3.5592,-9.1290,9.8218
1,3,0,1,1,12.238,12238,-0.3600,4.9300,-8.1400,9.5233,0.3349,-0.0076,-0.1047,6.50,151.75,172.75,-0.6364,3.7399,-8.9987,9.7657
1,3,0,1,1,12.369,12369,-0.7700,4.9400,-8.1700,9.5784,0.1440,-0.0338,0.0480,7.00,150.13,173.31,-0.6540,3.8980,-8.8895,9.7286
1,3,0,1,1,12.542,12542,-1.7000,4.5900,-7.2500,8.7476,0.3196,0.0142,-0.1222,7.06,147.50,174.25,-0.7918,3.9892,-8.6735,9.5796
1,3,0,1,1,12.673,12673,-1.2500,4.9200,-8.1100,9.5677,0.0207,0.2073,-0.1145,8.44,146.75,174.38,-0.8522,4.1119,-8.5992,9.5697
1,3,0,1,1,12.804,12804,-1.3600,5.6400,-8.3600,10.1759,0.1189,-0.0971,-0.1604,8.88,147.00,174.25,-0.9191,4.3132,-8.5677,9.6361
1,3,0,1,1,12.935,12935,-2.1500,5.2600,-7.6200,9.5055,0.2880,0.0175,-0.2574,9.00,145.75,175.94,-1.0813,4.4380,-8.4428,9.5993
1,3,0,1,1,13.070,13070,-2.3000,5.5100,-7.3800,9.4929,0.1156,0.0000,0.0916,10.00,144.38,176.69,-1.2419,4.5793,-8.3028,9.5628
1,4,0,1,1,13.201,13201,-1.8800,6.0700,-8.2500,10.4135,0.0524,0.3272,-0.2280,11.19,143.88,176.69,-1.3260,4.7757,-8.2958,9.6636
1,4,0,1,1,13.331,13331,-2.2100,5.4800,-6.9300,9.1071,-0.0065,-0.0927,0.0840,11.06,143.50,176.38,-1.4425,4.8685,-8.1158,9.5734
1,4,0,1,1,13.461,13461,-2.2600,5.9100,-7.8300,10.0670,0.2880,0.0109,-0.2814,11.13,142.63,176.75,-1.5502,5.0057,-8.0782,9.6290
1,4,0,1,1,13.634,13634,-2.5700,6.0800,-7.9900,10.3639,-0.0055,-0.0065,-0.1036,10.94,142.19,177.94,-1.6846,5.1473,-8.0665,9.7161
1,4,0,1,1,13.765,13765,-2.1000,5.9300,-6.5600,9.0889,-0.0545,0.1713,0.1800,11.75,142.38,177.50,-1.7393,5.2504,-7.8680,9.6176
1,4,0,1,1,13.896,13896,-1.9400,5.8600,-7.2600,9.5295,-0.1560,-0.0360,0.0840,12.31,142.56,176.63,-1.7658,5.3308,-7.7879,9.6014
1,4,0,1,1,14.027,14027,-1.7000,5.4000,-5.9100,8.1840,-0.1767,0.1254,0.0796,11.88,144.00,176.00,-1.7571,5.3399,-7.5404,9.4053
1,4,0,1,1,14.162,14162,-1.6000,5.5700,-9.1900,10.8647,-1.1006,-0.2902,0.0404,11.56,148.50,176.19,-1.7364,5.3702,-7.7578,9.5936
1,4,0,1,1,14.292,14292,-2.2700,4.8200,-8.5500,10.0741,0.0753,-0.1167,-0.1734,10.19,152.56,176.81,-1.8067,5.2977,-7.8622,9.6511
1,4,0,1,1,14.424,14424,-1.5100,3.9000,-9.3800,10.2701,-0.3240,-0.4265,0.0153,8.88,153.06,178.19,-1.7676,5.1135,-8.0622,9.7094
1,4,0,1,1,14.554,14554,-1.3400,3.6200,-9.4100,10.1709,-0.4222,-0.1724,0.3283,6.63,155.75,177.50,-1.7113,4.9167,-8.2398,9.7466
1,4,0,1,1,14.727,14727,-1.5900,4.2200,-9.3700,10.3987,-0.1734,0.4036,0.1167,6.31,158.69,175.31,-1.6953,4.8249,-8.3887,9.8247
1,4,0,1,1,14.857,14857,-0.7500,3.4200,-8.9700,9.6291,-0.0927,0.1931,0.1167,9.13,158.63,173.94,-1.5707,4.6398,-8.4653,9.7804
1,4,0,1,1,14.988,14988,-1.4800,3.4100,-9.2700,9.9876,-0.1931,-0.2378,0.0033,8.13,159.88,173.56,-1.5588,4.4777,-8.5714,9.7953
1,4,0,1,1,15.118,15118,-1.2700,3.2600,-9.9000,10.5000,-0.3294,-0.1713,0.0458,6.56,161.69,173.38,-1.5207,4.3173,-8.7465,9.8718
1,4,0,1,1,15.252,15252,-0.9700,3.2800,-9.5000,10.0970,-0.0927,-0.1309,0.1167,5.25,163.25,172.81,-1.4481,4.1806,-8.8457,9.8905
1,4,0,1,1,15.383,15383,-0.5800,2.8600,-9.4100,9.8521,-0.0360,-0.2967,-0.0044,4.06,163.63,171.81,-1.3337,4.0066,-8.9201,9.8691
1,4,0,1,1,15.516,15516,-1.3200,2.3500,-8.7500,9.1557,-0.0971,0.1364,0.0316,3.69,164.19,171.69,-1.3319,3.7883,-8.8977,9.7619
1,4,0,1,1,15.646,15646,-0.7900,2.4700,-10.0400,10.3695,-0.5792,0.0327,0.0153,4.38,167.00,171.38,-1.2605,3.6146,-9.0482,9.8247
1,4,0,1,1,15.819,15819,-0.4500,2.2100,-10.2100,10.4561,0.2738,-0.0731,0.0731,5.56,168.00,170.50,-1.1537,3.4295,-9.2013,9.8872
1,4,0,1,1,15.950,15950,-1.0600,2.0300,-9.1700,9.4516,0.2378,-0.2149,-0.0218,3.75,166.06,170.06,-1.1414,3.2451,-9.1972,9.8194
1,4,0,1,1,16.081,16081,-1.0800,3.0400,-9.9400,10.4504,-0.1658,0.0033,0.1058,3.38,166.25,170.00,-1.1333,3.2180,-9.2951,9.9014
1,4,0,1,1,16.212,16212,-0.2500,2.9300,-10.9500,11.3380,0.0087,-0.3949,0.0251,2.06,165.75,167.94,-1.0169,3.1801,-9.5131,10.0820
1,4,0,1,1,16.343,16343,-0.4400,2.8100,-9.6400,10.0508,0.4145,0.0044,0.1549,0.56,164.13,167.94,-0.9409,3.1313,-9.5299,10.0751
1,4,0,1,1,16.478,16478,-0.6200,3.3400,-9.3700,9.9668,-0.0240,0.0851,-0.0393,1.19,162.88,168.13,-0.8986,3.1588,-9.5088,10.0600
1,4,0,1,1,16.609,16609,0.1100,3.2700,-9.2500,9.8116,0.3763,0.0349,-0.0436,1.38,161.00,167.94,-0.7657,3.1735,-9.4747,10.0213
1,4,0,1,1,16.739,16739,0.4300,3.6700,-10.0800,10.7359,0.1887,-0.0589,-0.0273,1.88,159.06,168.19,-0.6081,3.2389,-9.5545,10.1068
1,4,0,1,1,16.912,16912,0.1200,3.7100,-8.9700,9.7077,0.2323,0.0425,0.0535,1.94,156.25,167.81,-0.5122,3.3010,-9.4774,10.0489
1,4,0,1,1,17.043,17043,-0.5000,4.3300,-8.9400,9.9460,0.1756,0.2018,-0.1265,2.13,155.13,167.69,-0.5106,3.4366,-9.4066,10.0277
1,4,0,1,1,17.173,17173,-1.4700,4.8900,-7.9300,9.4317,0.3796,0.2563,-0.1462,4.44,153.75,168.13,-0.6370,3.6281,-9.2120,9.9212
1,4,0,1,1,17.307,17307,0.3500,4.4400,-8.6900,9.7648,0.2716,-0.2618,-0.0774,4.69,150.44,168.75,-0.5069,3.7351,-9.1432,9.8897
1,4,0,1,1,17.438,17438,-2.3300,4.6900,-9.0400,10.4473,0.1473,0.1887,-0.3294,5.25,149.38,170.38,-0.7472,3.8609,-9.1296,9.9406
1,4,0,1,1,17.571,17571,-1.2700,5.4600,-7.8000,9.6054,-0.0982,-0.0676,-0.2269,5.56,150.00,170.94,-0.8161,4.0716,-8.9544,9.8705
1,4,0,1,1,17.701,17701,-0.7300,4.9900,-9.3900,10.6586,-0.0164,-0.2236,-0.1113,4.88,149.94,172.00,-0.8047,4.1927,-9.0118,9.9719
1,4,0,1,1,17.832,17832,-1.1300,4.6000,-9.7200,10.8127,-0.1167,0.1800,-0.1036,5.50,149.81,173.50,-0.8476,4.2463,-9.1051,10.0823
1,4,0,1,1,18.005,18005,-0.9700,5.1500,-9.3300,10.7010,0.2869,0.4767,-0.2302,7.81,150.25,172.94,-0.8637,4.3654,-9.1348,10.1611
1,4,0,1,1,18.136,18136,-0.8800,4.7000,-6.3900,7.9810,0.3218,-0.4069,0.4603,8.13,148.19,172.19,-0.8659,4.4095,-8.7731,9.8570
1,4,0,1,1,18.266,18266,-2.2400,5.8000,-8.9900,10.9306,0.1844,0.1145,-0.3589,8.94,146.38,173.81,-1.0469,4.5927,-8.8017,9.9829
1,4,0,1,1,18.397,18397,-1.7200,5.9000,-7.3300,9.5654,0.1156,0.1276,-0.1113,9.31,145.63,174.06,-1.1356,4.7650,-8.6077,9.9039
1,4,0,1,1,18.529,18529,-1.3200,5.3700,-6.4300,8.4808,0.2193,-0.0927,0.1342,10.06,144.13,174.69,-1.1599,4.8447,-8.3208,9.6980
1,4,0,1,1,18.663,18663,-2.4700,6.2500,-7.8300,10.3185,-0.2073,-0.0993,-0.0774,9.63,144.69,175.63,-1.3326,5.0299,-8.2561,9.7590
1,4,0,1,1,18.794,18794,-1.8000,5.5400,-7.7200,9.6711,0.0589,0.2422,-0.0022,10.13,144.56,175.25,-1.3942,5.0971,-8.1855,9.7430
1,4,0,1,1,18.925,18925,-1.8000,5.0100,-6.9600,8.7625,-0.2793,0.1560,0.1571,11.13,145.31,174.63,-1.4476,5.0856,-8.0240,9.6096
1,4,0,1,1,19.098,19098,-2.9400,5.2900,-7.4800,9.6218,-0.0153,-0.1789,-0.2531,8.81,148.06,175.06,-1.6443,5.1126,-7.9523,9.5959
1,4,0,1,1,19.228,19228,-2.0000,4.6400,-7.1000,8.7143,-0.3120,0.4516,0.1298,10.63,149.06,174.56,-1.6912,5.0503,-7.8400,9.4779
1,5,0,1,1,19.361,19361,-1.4400,5.2500,-8.8700,10.4074,-0.4385,-0.4156,-0.0829,11.13,152.25,174.06,-1.6581,5.0766,-7.9757,9.5986
1,5,0,1,1,19.492,19492,-2.0300,4.0500,-8.8100,9.9065,0.0316,-0.3316,-0.0578,8.13,153.56,175.13,-1.7071,4.9413,-8.0856,9.6285
1,5,0,1,1,19.626,19626,-1.0100,4.1700,-9.5300,10.4513,-0.3556,0.0164,0.0371,7.06,155.31,175.25,-1.6152,4.8397,-8.2760,9.7223
1,5,0,1,1,19.756,19756,-1.5500,3.8200,-8.6600,9.5912,-0.2716,0.0295,0.0862,6.94,157.25,174.69,-1.6066,4.7053,-8.3266,9.6981
1,5,0,1,1,19.887,19887,-1.0800,3.7600,-9.7100,10.4684,-0.2411,0.1473,0.0175,7.38,159.13,173.75,-1.5372,4.5808,-8.5089,9.7851
1,5,0,1,1,20.017,20017,-1.0200,3.7700,-9.2400,10.0315,-0.0535,-0.1244,0.1178,7.19,160.25,173.25,-1.4691,4.4739,-8.6052,9.8094
1,5,0,1,1,20.190,20190,-0.9700,3.5900,-9.1800,9.9046,-0.1004,-0.1680,-0.0229,5.56,160.63,173.44,-1.4033,4.3574,-8.6810,9.8141
1,5,0,1,1,20.320,20320,-1.4500,3.1800,-8.8800,9.5430,-0.0185,0.1254,-0.0731,5.63,160.94,173.81,-1.4095,4.2023,-8.7072,9.7704
1,5,0,1,1,20.451,20451,-0.7400,3.2100,-9.5900,10.1400,-0.3731,-0.0491,0.1047,6.00,162.38,173.38,-1.3212,4.0715,-8.8235,9.8070
1,5,0,1,1,20.581,20581,-1.2100,3.2800,-9.4400,10.0666,-0.0873,-0.1942,-0.0076,4.94,164.19,173.13,-1.3066,3.9672,-8.9048,9.8357
1,5,0,1,1,20.714,20714,-1.5200,2.5800,-9.2700,9.7416,-0.2193,0.0796,-0.0011,4.75,165.06,174.00,-1.3347,3.7844,-8.9529,9.8111
1,5,0,1,1,20.845,20845,-0.7900,2.9200,-9.8900,10.3423,-0.3382,0.0393,0.0960,5.06,166.94,173.56,-1.2629,3.6705,-9.0764,9.8716
1,5,0,1,1,20.979,20979,-1.0400,2.8800,-9.8500,10.3150,0.2051,-0.0807,0.0142,4.81,167.38,172.88,-1.2336,3.5663,-9.1783,9.9238
1,5,0,1,1,21.109,21109,-0.8600,2.2800,-9.6900,9.9917,0.0884,-0.0851,0.0687,4.13,165.88,172.19,-1.1843,3.3968,-9.2457,9.9209
1,5,0,1,1,21.282,21282,-0.8600,3.4400,-10.5000,11.0826,-0.0218,-0.3251,-0.0425,1.63,166.81,171.63,-1.1416,3.4025,-9.4110,10.0721
1,5,0,1,1,21.412,21412,-0.3800,2.3400,-9.9600,10.2382,0.2825,0.2978,0.0458,2.00,165.00,171.81,-1.0412,3.2625,-9.4834,10.0828
1,5,0,1,1,21.542,21542,-0.5200,3.5400,-9.6700,10.3107,0.1178,-0.0589,-0.1560,2.69,164.19,171.88,-0.9725,3.2991,-9.5080,10.1109
1,5,0,1,1,21.672,21672,-0.3100,2.7800,-9.6400,10.0376,0.5105,0.0305,-0.0076,3.00,161.06,172.50,-0.8852,3.2307,-9.5254,10.0972
1,5,0,1,1,21.802,21802,-1.3900,3.8000,-8.3300,9.2607,0.1876,-0.0305,-0.1647,3.44,159.56,172.69,-0.9518,3.3057,-9.3678,9.9795
1,5,0,1,1,21.932,21932,-0.5500,3.4700,-8.7700,9.4476,0.0960,0.1953,-0.0469,4.31,158.44,173.25,-0.8988,3.3273,-9.2891,9.9079
1,5,0,1,1,22.062,22062,-1.3800,3.8600,-8.1200,9.0961,-0.2051,0.1385,-0.1069,5.75,159.44,173.88,-0.9622,3.3975,-9.1350,9.7937
1,5,0,1,1,22.192,22192,-1.2800,3.6500,-8.7400,9.5576,-0.0938,-0.1178,-0.1004,5.50,160.44,174.56,-1.0041,3.4308,-9.0830,9.7611
1,5,0,1,1,22.365,22365,-2.1600,4.1200,-9.0000,10.1311,-0.0011,0.4440,0.0055,7.00,160.56,175.38,-1.1564,3.5216,-9.0720,9.8000
1,5,0,1,1,22.496,22496,-0.1900,3.4900,-9.9000,10.4989,0.3392,-0.1658,0.0687,8.69,158.19,174.63,-1.0291,3.5175,-9.1811,9.8856
1,5,0,1,1,22.626,22626,-1.4300,4.1100,-9.5100,10.4584,0.1113,-0.1909,-0.0829,6.94,157.25,175.19,-1.0819,3.5955,-9.2245,9.9594
1,5,0,1,1,22.757,22757,-2.0700,3.9900,-9.5000,10.5098,0.0665,0.1505,-0.0382,7.63,156.31,175.75,-1.2121,3.6475,-9.2608,10.0267
1,5,0,1,1,22.888,22888,-0.8100,4.2100,-9.9700,10.8527,0.1342,0.2673,-0.1516,9.63,155.75,175.19,-1.1591,3.7216,-9.3542,10.1339
1,5,0,1,1,23.023,23023,-2.2400,3.8100,-7.0000,8.2785,0.1647,-0.1145,-0.0273,10.25,155.13,175.50,-1.3016,3.7333,-9.0440,9.8704
1,5,0,1,1,23.153,23153,-2.0100,4.9200,-9.5100,10.8943,-0.0087,0.1920,-0.1069,11.75,154.75,176.69,-1.3949,3.8897,-9.1054,9.9992
1,5,0,1,1,23.285,23285,-1.9100,4.3600,-7.1100,8.5563,0.0284,0.1036,0.0295,12.13,154.00,176.94,-1.4628,3.9516,-8.8425,9.7951
1,5,0,1,1,23.457,23457,-2.6500,5.2000,-8.3700,10.2039,-0.1320,0.0927,-0.1374,12.19,153.81,177.94,-1.6192,4.1161,-8.7802,9.8314
1,5,0,1,1,23.587,23587,-2.4000,4.2600,-8.2100,9.5557,0.1353,0.0109,-0.0404,12.25,153.00,178.13,-1.7221,4.1351,-8.7051,9.7899
1,5,0,1,1,23.717,23717,-2.3400,4.6700,-7.5500,9.1808,-0.0524,0.0142,0.0916,12.31,153.38,177.69,-1.8035,4.2056,-8.5529,9.7001
1,5,0,1,1,23.847,23847,-2.1600,4.0400,-9.2700,10.3402,-0.2389,0.0044,0.0502,12.44,153.69,177.31,-1.8505,4.1838,-8.6474,9.7829
1,5,0,1,1,23.977,23977,-1.3700,4.6400,-7.3600,8.8077,-0.1025,-0.0360,0.0905,11.88,156.19,176.19,-1.7872,4.2439,-8.4777,9.6476
1,6,0,1,1,24.107,24107,-1.4900,4.0000,-8.9100,9.8797,-0.0633,-0.4701,-0.2760,10.31,156.06,177.31,-1.7480,4.2117,-8.5347,9.6765
1,6,0,1,1,24.237,24237,-2.2000,3.3300,-9.1400,9.9734,-0.3131,-0.0207,0.0382,8.81,158.19,177.88,-1.8076,4.0956,-8.6144,9.7082
1,6,0,1,1,24.367,24367,-1.4700,3.7700,-9.2200,10.0689,-0.4014,0.2269,0.1320,10.56,160.88,177.00,-1.7631,4.0527,-8.6942,9.7531
1,6,0,1,1,24.540,24540,-1.2800,3.5500,-9.2300,9.9716,0.3403,-0.7690,-0.0262,7.00,161.06,177.13,-1.6994,3.9864,-8.7648,9.7776
1,6,0,1,1,24.671,24671,-2.1100,3.2700,-8.5200,9.3667,0.0916,0.0949,0.0873,4.38,159.44,177.94,-1.7535,3.8920,-8.7326,9.7201
1,6,0,1,1,24.802,24802,-1.2100,3.0600,-9.4700,10.0254,-0.4451,0.6436,0.0927,7.69,160.56,176.50,-1.6819,3.7824,-8.8298,9.7519
1,6,0,1,1,24.934,24934,-0.6100,3.6100,-9.3400,10.0319,-0.2236,-0.2029,0.1156,8.50,163.38,175.13,-1.5407,3.7597,-8.8970,9.7809
1,6,0,1,1,25.065,25065,-1.4200,2.6500,-9.5500,10.0121,-0.1407,-0.2193,0.0644,6.69,163.94,174.63,-1.5248,3.6134,-8.9830,9.8019
1,6,0,1,1,25.199,25199,-1.1300,3.0700,-10.1000,10.6166,-0.2934,-0.1069,-0.0055,4.88,165.88,174.31,-1.4727,3.5418,-9.1302,9.9033
1,6,0,1,1,25.329,25329,-1.5100,3.4700,-9.0700,9.8278,0.2553,0.0818,0.2716,5.06,165.81,173.94,-1.4777,3.5324,-9.1223,9.8933
1,6,0,1,1,25.460,25460,-1.0300,2.1800,-9.2300,9.5397,0.0556,-0.1494,0.2825,4.44,163.31,173.38,-1.4187,3.3542,-9.1365,9.8356
1,6,0,1,1,25.633,25633,-1.0000,3.4600,-9.3700,10.0384,-0.0851,0.1178,0.1113,3.56,166.56,172.75,-1.3635,3.3681,-9.1673,9.8611
1,6,0,1,1,25.764,25764,-0.9700,2.5300,-9.7900,10.1580,-0.1025,-0.0251,0.0513,4.31,166.56,172.38,-1.3116,3.2577,-9.2493,9.8936
1,6,0,1,1,25.894,25894,-0.5900,3.1400,-9.7200,10.2316,0.2313,-0.4178,0.1364,1.81,166.44,171.38,-1.2165,3.2422,-9.3113,9.9344
1,6,0,1,1,26.030,26030,-0.5200,2.5300,-9.1600,9.5172,0.1309,0.2814,-0.0502,1.25,164.81,171.06,-1.1248,3.1483,-9.2914,9.8746
1,6,0,1,1,26.160,26160,-0.1100,3.0100,-9.3800,9.8517,-0.2378,-0.0338,0.0207,2.56,165.81,170.94,-0.9910,3.1301,-9.3031,9.8654
1,6,0,1,1,26.292,26292,-0.7300,2.8600,-9.9600,10.3882,-0.0785,-0.2280,0.0295,0.69,166.63,171.06,-0.9566,3.0945,-9.3896,9.9326
1,6,0,1,1,26.422,26422,-0.1800,3.2800,-10.2400,10.7540,0.0545,0.0764,-0.0644,0.88,166.63,171.19,-0.8543,3.1189,-9.5017,10.0369
1,6,0,1,1,26.553,26553,-0.1100,2.6700,-9.7600,10.1192,0.2945,-0.0164,-0.1407,1.00,164.88,171.56,-0.7562,3.0598,-9.5357,10.0431
1,6,0,1,1,26.725,26725,-1.0300,3.3100,-9.0600,9.7005,0.1767,0.1189,-0.0185,1.31,163.25,172.00,-0.7923,3.0928,-9.4730,9.9966
1,6,0,1,1,26.856,26856,-0.2300,3.0800,-9.8900,10.3611,-0.1429,0.0556,-0.0687,2.44,162.81,172.00,-0.7182,3.0911,-9.5280,10.0426
1,6,0,1,1,26.986,26986,-1.1400,3.2200,-8.8200,9.4584,0.3567,0.2149,0.0676,3.00,162.50,172.06,-0.7738,3.1081,-9.4347,9.9635
1,6,0,1,1,27.117,27117,0.7600,3.5700,-10.0600,10.7017,-0.3033,-0.1222,0.2727,4.31,161.25,171.56,-0.5717,3.1689,-9.5171,10.0471
1,6,0,1,1,27.247,27247,-0.4900,3.5700,-9.2500,9.9271,0.3632,0.0785,-0.1265,3.69,161.25,171.56,-0.5609,3.2218,-9.4819,10.0300
1,6,0,1,1,27.381,27381,-1.3200,3.0400,-8.5900,9.2072,-0.0349,-0.1254,-0.1429,3.75,159.69,171.94,-0.6609,3.1978,-9.3644,9.9174
1,6,0,1,1,27.512,27512,0.0700,3.8000,-9.4500,10.1856,-0.0785,0.0807,-0.1702,4.38,160.19,172.81,-0.5646,3.2772,-9.3757,9.9479
1,6,0,1,1,27.645,27645,-0.9900,4.3500,-9.2700,10.2876,-0.0447,-0.2247,-0.0938,3.63,161.56,174.38,-0.6207,3.4186,-9.3617,9.9857
1,6,0,1,1,27.817,27817,-1.6900,3.6500,-8.0800,9.0258,0.1593,0.2313,0.0218,5.31,159.75,175.69,-0.7616,3.4490,-9.1928,9.8480
1,6,0,1,1,27.947,27947,-2.0700,3.5100,-8.3300,9.2733,0.0709,0.4178,-0.0284,7.81,158.56,175.31,-0.9340,3.4571,-9.0791,9.7598
1,6,0,1,1,28.077,28077,-1.2500,3.9500,-8.6900,9.6271,0.1244,0.0894,0.0927,9.75,157.94,174.81,-0.9756,3.5220,-9.0279,9.7395
1,6,0,1,1,28.207,28207,-1.6900,4.1600,-8.5400,9.6485,0.0349,-0.2105,0.0502,8.81,157.25,174.75,-1.0698,3.6061,-8.9636,9.7208
1,6,0,1,1,28.337,28337,-2.1500,4.0300,-8.1100,9.3078,0.2683,-0.0011,0.0185,9.25,156.19,175.50,-1.2121,3.6620,-8.8511,9.6551
1,6,0,1,1,28.467,28467,-1.5500,4.4800,-7.8300,9.1532,0.2083,-0.0262,-0.0971,9.69,154.88,175.50,-1.2566,3.7698,-8.7165,9.5796
1,6,0,1,1,28.597,28597,-1.4000,4.5700,-7.5600,8.9442,0.3731,0.0131,0.2105,10.63,152.69,175.75,-1.2755,3.8752,-8.5641,9.4862
1,7,0,1,1,28.728,28728,-1.0500,5.3300,-8.4200,10.0204,0.0098,-0.0567,-0.0971,10.31,152.06,176.25,-1.2458,4.0669,-8.5451,9.5452
1,7,0,1,1,28.900,28900,-2.7800,4.5400,-7.7200,9.3775,0.0393,0.2334,-0.2836,9.88,150.75,178.00,-1.4480,4.1293,-8.4364,9.5037
1,7,0,1,1,29.031,29031,-1.8500,5.3900,-8.2000,9.9857,-0.3523,0.0316,0.0905,10.75,152.25,177.00,-1.5010,4.2954,-8.4053,9.5578
1,7,0,1,1,29.162,29162,-2.1400,4.7000,-7.5000,9.1060,0.1374,0.0698,-0.1233,10.81,152.06,176.75,-1.5852,4.3487,-8.2860,9.4911
1,7,0,1,1,29.292,29292,-2.7200,4.4600,-7.4500,9.0990,-0.2673,0.1342,0.2683,11.31,152.50,176.50,-1.7347,4.3634,-8.1758,9.4283
1,7,0,1,1,29.423,29423,-1.9100,4.5600,-8.8300,10.1198,-0.5225,0.0109,-0.0600,11.94,155.00,175.06,-1.7578,4.3893,-8.2620,9.5193
1,7,0,1,1,29.556,29556,-1.9500,3.8800,-9.1400,10.1191,-0.1931,-0.1287,0.0622,10.69,157.81,174.63,-1.7831,4.3222,-8.3777,9.5941
1,7,0,1,1,29.689,29689,-2.8900,3.1000,-9.6100,10.5031,-0.5465,0.4418,0.3403,12.06,160.00,173.19,-1.9290,4.1611,-8.5401,9.6938
1,7,0,1,1,29.820,29820,-0.9100,4.0400,-10.1600,10.9716,-0.1571,-0.2127,0.0774,12.56,162.94,171.81,-1.7947,4.1452,-8.7536,9.8503
1,7,0,1,1,29.993,29993,-1.9200,2.7400,-9.0200,9.6205,0.0622,-0.3502,-0.2323,8.31,161.63,174.06,-1.8112,3.9600,-8.7887,9.8083
1,7,0,1,1,30.124,30124,-1.4700,2.6900,-9.2200,9.7162,-0.1985,-0.0142,-0.1276,8.63,162.56,175.38,-1.7663,3.7926,-8.8455,9.7850
1,7,0,1,1,30.254,30254,-1.9200,3.0200,-9.7100,10.3485,-0.3000,-0.2018,-0.0753,7.81,164.81,175.69,-1.7865,3.6908,-8.9594,9.8532
1,7,0,1,1,30.389,30389,-1.2800,2.7400,-9.2500,9.7318,0.0185,-0.1418,0.0502,6.88,165.69,175.50,-1.7198,3.5655,-8.9977,9.8300
1,7,0,1,1,30.519,30519,-1.6100,2.6200,-9.2600,9.7573,-0.2160,-0.3327,0.1102,4.81,166.19,174.69,-1.7053,3.4409,-9.0323,9.8148
1,7,0,1,1,30.651,30651,-0.6200,2.5200,-10.3000,10.6219,-0.2073,0.0251,0.1353,3.69,167.69,173.38,-1.5623,3.3196,-9.1993,9.9039
1,7,0,1,1,30.782,30782,-0.4400,2.9300,-9.4800,9.9322,0.0633,-0.2465,0.0011,2.81,168.38,172.19,-1.4144,3.2682,-9.2363,9.8991
1,7,0,1,1,30.913,30913,-0.8100,1.8800,-9.4000,9.6203,0.1571,0.2182,-0.0436,3.06,166.75,173.13,-1.3348,3.0853,-9.2579,9.8493
1,7,0,1,1,31.085,31085,-0.4600,2.5400,-9.6800,10.0183,0.3000,0.2531,-0.1920,4.50,166.00,173.00,-1.2195,3.0135,-9.3135,9.8646
1,7,0,1,1,31.216,31216,-0.0300,2.7800,-9.1500,9.5630,-0.0458,-0.2727,0.0894,4.06,165.25,172.81,-1.0627,2.9827,-9.2920,9.8166
1,7,0,1,1,31.346,31346,-1.0700,2.7300,-9.4100,9.8563,0.0273,-0.1014,0.0458,2.44,165.19,173.00,-1.0637,2.9494,-9.3075,9.8214
1,7,0,1,1,31.476,31476,-0.5600,2.9400,-10.1800,10.6108,-0.2934,0.0654,0.1473,2.81,165.56,171.94,-0.9973,2.9482,-9.4225,9.9232
1,7,0,1,1,31.606,31606,0.0000,3.1100,-9.8700,10.3484,0.1549,0.0709,-0.0818,2.81,165.56,171.44,-0.8659,2.9695,-9.4815,9.9732
1,7,0,1,1,31.736,31736,-0.3900,2.9800,-11.3200,11.7122,-0.0829,-0.5094,-0.0371,1.31,165.00,172.50,-0.8032,2.9709,-9.7237,10.1991
1,7,0,1,1,31.866,31866,-0.6800,2.4500,-9.3100,9.6510,0.6294,0.3774,-0.3731,-0.19,163.38,173.50,-0.7870,2.9022,-9.6692,10.1260
1,7,0,1,1,31.996,31996,-0.4800,3.1100,-9.8600,10.3500,-0.1222,0.5934,-0.1571,4.75,161.13,174.25,-0.7465,2.9296,-9.6944,10.1548
1,7,0,1,1,32.169,32169,-0.4700,2.4400,-8.6800,9.0287,0.4189,-0.0164,-0.0698,7.25,159.50,174.69,-0.7101,2.8651,-9.5607,10.0060
1,7,0,1,1,32.300,32300,-2.2700,3.2400,-8.4200,9.3031,-0.3436,-0.0098,-0.0709,6.69,160.06,175.19,-0.9156,2.9145,-9.4104,9.8938
1,7,0,1,1,32.431,32431,0.4600,3.2200,-9.8000,10.3257,-0.0055,-0.0425,-0.0622,7.38,161.38,175.13,-0.7344,2.9548,-9.4617,9.9395
1,7,0,1,1,32.566,32566,-1.9100,3.7900,-9.5400,10.4414,-0.1658,0.0371,-0.0153,6.38,162.19,175.44,-0.8893,3.0648,-9.4720,9.9952
1,7,0,1,1,32.697,32697,-1.2200,2.9800,-8.9000,9.4646,0.1309,-0.0153,-0.0185,6.94,161.44,175.31,-0.9329,3.0536,-9.3967,9.9243
1,7,0,1,1,32.827,32827,-1.4100,3.2500,-7.9000,8.6580,-0.0698,0.0098,0.0273,7.00,161.94,175.88,-0.9957,3.0795,-9.1994,9.7522
1,7,0,1,1,32.957,32957,-0.4700,3.0500,-10.4900,10.9345,-0.2214,0.0415,-0.0502,8.44,162.88,176.44,-0.9265,3.0756,-9.3695,9.9048
1,7,0,1,1,33.088,33088,-2.1900,3.6600,-9.4600,10.3771,0.2422,-0.1571,-0.0360,6.44,163.38,176.50,-1.0930,3.1526,-9.3814,9.9571
1,7,0,1,1,33.261,33261,-1.1000,2.5700,-8.7000,9.1381,0.0153,-0.1091,0.0480,6.56,160.81,177.81,-1.0939,3.0759,-9.2916,9.8484
1,7,0,1,1,33.396,33396,-1.2300,3.8800,-9.1100,9.9779,-0.1647,0.1833,0.1222,6.69,161.81,177.75,-1.1118,3.1818,-9.2677,9.8616
1,7,0,1,1,33.527,33527,-1.3000,3.4200,-8.7600,9.4934,0.2814,0.1505,0.0142,7.69,160.63,176.75,-1.1366,3.2132,-9.2008,9.8118
1,7,0,1,1,33.659,33659,-1.2300,3.7000,-8.6900,9.5247,0.0415,-0.1625,-0.0360,7.50,159.25,176.31,-1.1489,3.2774,-9.1335,9.7715
1,7,0,1,1,33.789,33789,-1.2200,4.0200,-9.1300,10.0502,0.0240,-0.0371,0.0033,6.50,159.38,176.50,-1.1583,3.3752,-9.1330,9.8054
1,7,0,1,1,33.920,33920,-1.5200,3.2400,-8.7300,9.4351,0.1080,0.1309,-0.0480,6.94,158.31,177.06,-1.2060,3.3574,-9.0799,9.7556
1,7,0,1,1,34.050,34050,-1.1700,3.8000,-8.0700,8.9963,0.0873,0.1156,-0.0142,8.75,158.19,177.69,-1.2012,3.4157,-8.9468,9.6517
1,7,0,1,1,34.180,34180,-1.4300,3.3600,-9.0500,9.7589,-0.3447,-0.1058,-0.0360,8.44,159.13,177.88,-1.2314,3.4084,-8.9604,9.6655
1,7,0,1,1,34.353,34353,-1.6100,3.3600,-8.8400,9.5931,0.1636,0.0240,0.0807,7.13,160.19,177.06,-1.2813,3.4020,-8.9446,9.6551
1,7,0,1,1,34.484,34484,-1.0900,3.3100,-8.9500,9.6045,-0.2258,0.1440,0.0796,7.19,160.19,175.44,-1.2561,3.3899,-8.9453,9.6482
1,8,0,1,1,34.614,34614,-1.2500,3.1000,-9.6700,10.2314,-0.0055,-0.1374,-0.2007,7.75,160.81,175.44,-1.2553,3.3517,-9.0408,9.7234
1,8,0,1,1,34.749,34749,-0.7100,3.4000,-9.3000,9.9274,-0.0469,-0.2422,0.1167,5.75,161.06,175.31,-1.1834,3.3580,-9.0749,9.7484
1,8,0,1,1,34.879,34879,-0.8800,3.4800,-9.6400,10.2866,-0.1407,-0.1124,-0.3502,5.19,162.38,176.38,-1.1434,3.3741,-9.1494,9.8185
1,8,0,1,1,35.012,35012,-1.1300,2.9800,-9.4500,9.9730,0.1844,-0.1833,-0.1811,4.38,161.94,177.63,-1.1417,3.3222,-9.1890,9.8376
1,8,0,1,1,35.142,35142,-0.9400,3.4600,-9.2500,9.9206,-0.1276,-0.1385,0.0087,3.94,161.69,178.56,-1.1151,3.3403,-9.1970,9.8482
1,8,0,1,1,35.273,35273,-1.3100,3.0500,-9.2500,9.8276,0.1004,0.0720,0.0044,3.88,161.56,178.81,-1.1408,3.3021,-9.2040,9.8448
1,8,0,1,1,35.446,35446,-0.2400,2.9800,-9.0700,9.5500,-0.1527,0.0240,0.2542,4.44,162.19,177.44,-1.0221,3.2596,-9.1864,9.8010
1,8,0,1,1,35.577,35577,-0.8300,3.5200,-10.3300,10.9448,0.2051,-0.0360,0.0556,4.13,161.63,176.25,-0.9968,3.2940,-9.3371,9.9511
1,8,0,1,1,35.709,35709,-0.4700,2.5300,-8.8100,9.1781,0.2509,-0.1331,0.0480,3.19,159.63,175.69,-0.9273,3.1933,-9.2676,9.8461
1,8,0,1,1,35.840,35840,-0.3200,3.2400,-9.1300,9.6931,-0.6196,-0.4669,-0.0785,1.19,161.44,175.88,-0.8473,3.1994,-9.2495,9.8238
1,8,0,1,1,35.974,35974,-0.7000,3.3200,-9.6300,10.2103,-0.0807,0.0687,0.0720,-0.44,164.00,176.06,-0.8279,3.2153,-9.2996,9.8745
1,8,0,1,1,36.104,36104,0.3300,3.1600,-9.8800,10.3783,0.0404,0.1996,0.1254,1.50,164.94,175.50,-0.6753,3.2080,-9.3761,9.9327
1,8,0,1,1,36.235,36235,-0.1700,2.4500,-9.3400,9.6575,0.0371,-0.1331,0.1789,1.13,163.38,174.81,-0.6087,3.1081,-9.3713,9.8921
1,8,0,1,1,36.365,36365,-0.2000,3.0700,-9.5400,10.0238,-0.0829,0.0535,0.0480,0.56,164.19,174.25,-0.5549,3.1031,-9.3936,9.9084
1,8,0,1,1,36.538,36538,-0.2600,3.5900,-10.5000,11.0998,-0.0545,-0.0567,-0.0338,1.19,164.75,174.00,-0.5160,3.1673,-9.5394,10.0647
1,8,0,1,1,36.668,36668,0.1000,2.3700,-9.2400,9.5396,0.5149,0.0698,0.1440,1.19,162.50,174.06,-0.4348,3.0622,-9.4999,9.9907
1,8,0,1,1,36.799,36799,-0.5500,3.5000,-9.3600,10.0081,-0.1145,-0.2171,-0.1134,-0.38,162.00,173.94,-0.4500,3.1199,-9.4815,9.9917
1,8,0,1,1,36.930,36930,-0.5100,3.4800,-9.4000,10.0365,0.2989,0.5825,-0.0578,2.31,161.50,174.81,-0.4579,3.1674,-9.4707,9.9968
1,8,0,1,1,37.061,37061,0.1700,3.1600,-8.7700,9.3235,0.1364,-0.0458,0.1014,4.31,159.50,174.31,-0.3752,3.1664,-9.3784,9.9056
1,8,0,1,1,37.192,37192,-0.6400,3.5600,-9.0800,9.7739,-0.1778,-0.3120,-0.0327,1.94,159.50,174.69,-0.4101,3.2183,-9.3391,9.8865
1,8,0,1,1,37.327,37327,-1.1400,4.2700,-9.6000,10.5685,0.0371,0.3840,-0.0873,2.25,160.44,175.00,-0.5063,3.3568,-9.3735,9.9693
1,8,0,1,1,37.458,37458,0.1100,3.8000,-9.5700,10.2974,0.2367,-0.0785,0.1331,4.31,158.44,174.69,-0.4251,3.4152,-9.3994,10.0096
1,8,0,1,1,37.630,37630,-0.9900,3.9300,-8.8000,9.6884,0.2345,0.3469,0.0196,4.38,156.81,174.56,-0.4995,3.4831,-9.3204,9.9625
1,8,0,1,1,37.760,37760,-0.1900,3.9000,-7.7000,8.6334,0.1876,-0.0218,0.1102,6.06,155.31,174.06,-0.4587,3.5380,-9.1069,9.7807
1,8,0,1,1,37.890,37890,-0.9700,3.8300,-9.2800,10.0860,-0.4287,-0.3218,-0.0447,5.06,156.13,174.88,-0.5261,3.5765,-9.1297,9.8193
1,8,0,1,1,38.020,38020,-1.0400,4.8700,-9.1800,10.4437,-0.0938,0.4865,0.0011,4.06,157.81,173.69,-0.5938,3.7469,-9.1363,9.8926
1,8,0,1,1,38.150,38150,-0.2400,3.9400,-8.5500,9.4172,0.3905,0.1353,-0.0131,6.69,156.13,173.44,-0.5472,3.7724,-9.0590,9.8284
1,8,0,1,1,38.280,38280,-1.2900,4.3900,-8.7200,9.8476,-0.0196,-0.3272,0.0305,6.06,154.88,174.56,-0.6451,3.8538,-9.0144,9.8248
1,8,0,1,1,38.410,38410,-1.3200,4.3100,-9.4000,10.4249,0.2356,0.2302,-0.1942,6.63,153.75,175.50,-0.7340,3.9139,-9.0652,9.9013
1,8,0,1,1,38.540,38540,-1.0300,5.1300,-8.1000,9.6430,0.3971,0.0796,-0.2760,8.25,152.38,176.38,-0.7730,4.0741,-8.9380,9.8531
1,8,0,1,1,38.713,38713,-1.7900,4.6600,-8.5500,9.9006,-0.0425,-0.0229,-0.1942,9.13,150.44,179.25,-0.9070,4.1513,-8.8869,9.8505
1,8,0,1,1,38.844,38844,-2.0100,5.3900,-7.6800,9.5956,0.2673,0.1222,0.2193,9.13,150.31,179.31,-1.0524,4.3146,-8.7278,9.7928
1,8,0,1,1,38.974,38974,-1.2600,4.7400,-8.7100,9.9960,0.1614,0.1898,-0.3076,10.69,147.63,179.06,-1.0797,4.3706,-8.7255,9.8185
1,8,0,1,1,39.107,39107,-1.5300,5.2400,-7.7700,9.4959,0.0589,-0.1047,-0.0753,10.81,147.38,179.50,-1.1391,4.4852,-8.5996,9.7656
1,8,0,1,1,39.238,39238,-2.7800,5.1300,-6.6300,8.8319,0.2291,-0.1418,-0.2323,9.63,147.25,180.94,-1.3553,4.5702,-8.3400,9.6062
1,8,0,1,1,39.372,39372,-1.7400,5.0600,-8.3000,9.8753,-0.4309,-0.0676,0.1571,9.63,147.88,180.81,-1.4060,4.6347,-8.3348,9.6398
1,8,0,1,1,39.502,39502,-1.7700,5.4400,-7.0700,9.0946,-0.0894,0.1527,0.0916,9.56,150.06,179.88,-1.4540,4.7408,-8.1681,9.5555
1,9,0,1,1,39.633,39633,-1.5200,4.4100,-8.3700,9.5820,-0.1887,-0.1484,0.0764,9.44,150.88,179.56,-1.4627,4.6972,-8.1947,9.5581
1,9,0,1,1,39.806,39806,-2.4200,4.7100,-9.1800,10.5978,-0.3982,0.0436,-0.1276,8.19,154.44,179.25,-1.5888,4.6989,-8.3245,9.6903
1,9,0,1,1,39.937,39937,-0.7500,3.8900,-8.8500,9.6962,0.0055,0.1822,0.1036,9.69,155.13,178.31,-1.4783,4.5923,-8.3938,9.6814
1,9,0,1,1,40.067,40067,-1.6000,4.3400,-9.3300,10.4137,-0.3185,-0.1429,0.0284,9.19,157.06,177.69,-1.4943,4.5591,-8.5172,9.7755
1,9,0,1,1,40.198,40198,-1.1600,3.4900,-8.8400,9.5745,-0.0360,-0.0382,0.0873,8.69,157.56,177.56,-1.4503,4.4182,-8.5597,9.7413
1,9,0,1,1,40.331,40331,-1.1500,3.6300,-8.9800,9.7540,-0.2422,-0.2596,0.0545,7.63,159.06,177.19,-1.4107,4.3143,-8.6151,9.7377
1,9,0,1,1,40.464,40464,-1.0900,3.4200,-9.2800,9.9500,-0.1887,-0.3142,0.0055,5.00,161.19,177.50,-1.3684,4.1965,-8.7027,9.7581
1,9,0,1,1,40.595,40595,-1.1100,2.9300,-9.5700,10.0699,-0.3218,0.0654,0.2389,4.00,162.81,176.94,-1.3344,4.0296,-8.8170,9.7856
1,9,0,1,1,40.725,40725,-0.9300,3.0900,-9.3700,9.9101,-0.2858,0.3131,0.0556,5.31,165.19,175.69,-1.2811,3.9058,-8.8899,9.7942
1,9,0,1,1,40.898,40898,-1.2700,2.5500,-9.9500,10.3498,-0.4549,-0.0545,0.0142,6.38,167.81,174.94,-1.2796,3.7271,-9.0296,9.8520
1,9,0,1,1,41.028,41028,-1.3500,2.4900,-9.6100,10.0187,0.1571,0.0415,0.0502,6.38,168.69,174.75,-1.2889,3.5641,-9.1060,9.8633
1,9,0,1,1,41.158,41158,-0.6800,2.1800,-9.8000,10.0625,0.1800,-0.2389,0.1494,5.50,166.69,173.75,-1.2087,3.3817,-9.1975,9.8737
1,9,0,1,1,41.288,41288,-1.2100,2.2400,-9.3900,9.7290,-0.0654,-0.1004,0.0949,4.00,166.50,173.38,-1.2088,3.2313,-9.2229,9.8470
1,9,0,1,1,41.418,41418,-0.3900,2.7400,-9.9400,10.3181,-0.2313,0.1222,0.1014,4.38,167.63,172.63,-1.1009,3.1665,-9.3174,9.9021
1,9,0,1,1,41.548,41548,-0.4000,2.6800,-9.8600,10.2256,0.1353,-0.0982,0.0131,4.56,167.81,172.19,-1.0086,3.1024,-9.3889,9.9395
1,9,0,1,1,41.678,41678,-0.5200,2.7300,-10.5600,10.9196,-0.0513,-0.1145,0.0545,3.25,167.19,172.44,-0.9442,3.0533,-9.5432,10.0641
1,9,0,1,1,41.808,41808,-0.5100,3.3800,-11.3600,11.8631,0.2913,-0.0371,0.0393,3.06,166.50,172.56,-0.8870,3.0964,-9.7826,10.2992
1,9,0,1,1,41.981,41981,-1.3300,2.1600,-8.1900,8.5738,0.9316,0.4363,-0.3011,3.94,159.19,173.44,-0.9454,2.9730,-9.5727,10.0683
1,9,0,1,1,42.112,42112,0.3500,3.2400,-8.7300,9.3184,-0.2553,0.2171,0.0098,7.25,156.94,174.00,-0.7747,3.0082,-9.4617,9.9586
1,9,0,1,1,42.243,42243,-1.1200,4.7000,-9.5400,10.6937,0.0687,-0.0785,-0.0545,7.38,158.75,174.44,-0.8202,3.2311,-9.4720,10.0415
1,9,0,1,1,42.376,42376,-1.0700,3.2400,-8.0800,8.7709,0.1364,0.2629,-0.0447,8.13,157.44,175.81,-0.8531,3.2323,-9.2886,9.8718
1,9,0,1,1,42.506,42506,-0.5700,3.7200,-9.2800,10.0141,-0.3971,-0.1724,0.0982,8.69,158.44,176.94,-0.8158,3.2966,-9.2874,9.8889
1,9,0,1,1,42.640,42640,-2.0700,3.8200,-9.8400,10.7565,-0.0731,0.0076,0.0709,7.56,160.56,177.31,-0.9811,3.3655,-9.3603,9.9952
1,9,0,1,1,42.770,42770,-2.0800,3.8200,-8.7400,9.7625,0.4592,0.2673,0.2705,9.44,158.75,176.50,-1.1259,3.4254,-9.2785,9.9545
1,9,0,1,1,42.901,42901,-1.2900,3.3500,-9.1600,9.8383,0.1200,0.0862,0.0273,10.81,156.50,175.38,-1.1475,3.4155,-9.2629,9.9390
1,9,0,1,1,43.074,43074,-2.0400,4.4700,-8.7900,10.0701,0.0556,0.5105,0.3392,12.63,156.50,174.75,-1.2651,3.5544,-9.2006,9.9441
1,9,0,1,1,43.205,43205,-1.8700,4.7900,-8.5000,9.9343,0.3447,-0.2225,-0.0044,12.94,153.75,173.63,-1.3448,3.7173,-9.1083,9.9291
1,9,0,1,1,43.335,43335,-1.3600,4.7100,-8.1600,9.5194,0.2334,-0.1265,0.0458,11.00,152.06,174.19,-1.3468,3.8481,-8.9833,9.8652
1,9,0,1,1,43.471,43471,-1.6600,4.6000,-7.5800,9.0206,0.3283,0.1025,0.0415,11.69,150.19,175.81,-1.3881,3.9472,-8.7984,9.7426
1,9,0,1,1,43.601,43601,-2.4600,4.8600,-7.5600,9.3180,0.2193,-0.1865,0.1364,11.63,148.13,176.63,-1.5293,4.0674,-8.6352,9.6669
1,9,0,1,1,43.733,43733,-2.6700,5.3000,-8.2100,10.1303,-0.1505,0.0415,0.0055,11.63,147.88,177.00,-1.6796,4.2299,-8.5792,9.7116
1,9,0,1,1,43.863,43863,-2.0700,5.5300,-7.8400,9.8149,0.0993,0.0142,0.0644,11.69,148.13,176.19,-1.7311,4.4012,-8.4818,9.7112
1,9,0,1,1,43.994,43994,-2.1500,5.8100,-7.2000,9.4983,0.2825,0.4276,0.0458,13.81,147.19,176.19,-1.7863,4.5868,-8.3129,9.6609
1,10,0,1,1,44.166,44166,-2.7200,5.0100,-8.1600,9.9541,-0.4549,-0.6556,-0.1571,12.38,147.13,178.25,-1.9093,4.6426,-8.2927,9.6937
1,10,0,1,1,44.297,44297,-1.9100,4.7600,-8.3900,9.8335,-0.2269,-0.0665,0.1014,9.81,150.00,178.19,-1.9094,4.6581,-8.3055,9.7121
1,10,0,1,1,44.427,44427,-1.0900,4.7900,-8.9600,10.2183,-0.4309,-0.0415,0.2771,9.19,152.63,177.31,-1.8014,4.6755,-8.3918,9.7738
1,10,0,1,1,44.558,44558,-1.0900,4.6100,-10.2300,11.2736,-0.3043,-0.2149,0.0535,8.88,155.31,176.94,-1.7077,4.6668,-8.6340,9.9620
1,10,0,1,1,44.688,44688,-1.4400,4.4600,-8.3300,9.5579,0.3774,-0.1560,-0.0665,7.38,155.50,177.00,-1.6724,4.6396,-8.5939,9.9085
1,10,0,1,1,44.823,44823,-1.2700,3.8500,-8.7100,9.6073,-0.2553,-0.2683,0.1549,5.94,154.50,177.50,-1.6194,4.5355,-8.6092,9.8647
1,10,0,1,1,44.953,44953,-1.5000,4.0100,-8.1900,9.2415,-0.1778,0.3425,0.1102,5.94,156.50,176.50,-1.6037,4.4663,-8.5540,9.7821
1,10,0,1,1,45.085,45085,-0.8000,3.8900,-8.9100,9.7550,-0.3196,0.0545,0.1789,6.88,157.88,174.94,-1.4978,4.3903,-8.6009,9.7721
1,10,0,1,1,45.258,45258,-1.0800,3.4800,-9.6300,10.2963,-0.3752,-0.2116,0.0076,5.50,161.31,174.69,-1.4427,4.2704,-8.7365,9.8308
1,10,0,1,1,45.388,45388,-1.3000,3.4800,-10.0800,10.7428,-0.4723,0.0360,-0.0851,4.81,164.44,176.31,-1.4239,4.1662,-8.9136,9.9416
1,10,0,1,1,45.518,45518,-0.8000,3.5700,-10.0300,10.6764,0.1963,0.2269,0.0207,6.75,165.75,176.63,-1.3417,4.0877,-9.0607,10.0302
1,10,0,1,1,45.648,45648,-1.2900,2.0700,-9.3900,9.7016,0.2149,-0.2105,-0.0480,6.19,163.00,176.38,-1.3349,3.8218,-9.1041,9.9635
1,10,0,1,1,45.778,45778,-1.5700,2.7900,-9.1500,9.6939,-0.2280,0.0436,0.2389,5.06,163.38,175.69,-1.3659,3.6858,-9.1101,9.9220
1,10,0,1,1,45.908,45908,-0.6000,3.2800,-9.6800,10.2382,-0.2334,-0.2193,0.2825,4.00,165.19,173.31,-1.2649,3.6323,-9.1852,9.9580
1,10,0,1,1,46.038,46038,-0.3100,2.8500,-9.4800,9.9040,0.1440,0.0109,0.2149,3.19,165.31,171.69,-1.1391,3.5293,-9.2241,9.9417
1,10,0,1,1,46.169,46169,0.0800,3.1300,-11.0800,11.5139,-0.3709,-0.2203,0.0807,2.44,165.56,171.44,-0.9785,3.4766,-9.4686,10.1341
1,10,0,1,1,46.342,46342,0.0800,2.5700,-11.5000,11.7839,0.3251,0.1887,-0.0011,2.81,164.63,172.00,-0.8390,3.3572,-9.7363,10.3330
1,10,0,1,1,46.478,46478,-1.1300,3.0300,-9.9600,10.4718,0.3272,0.2967,-0.1309,4.38,162.06,172.50,-0.8773,3.3141,-9.7658,10.3500
1,10,0,1,1,46.608,46608,-0.7100,3.1800,-9.0500,9.6187,0.1036,-0.1734,-0.1898,4.63,160.25,173.31,-0.8553,3.2964,-9.6715,10.2535
1,10,0,1,1,46.740,46740,-1.0100,2.9200,-9.1800,9.6860,0.1571,0.1080,-0.2651,5.06,159.50,174.13,-0.8757,3.2468,-9.6067,10.1783
1,10,0,1,1,46.870,46870,-0.9300,3.7800,-8.9800,9.7874,-0.0175,-0.3523,0.2313,4.88,159.50,174.44,-0.8828,3.3171,-9.5241,10.1238
1,10,0,1,1,47.001,47001,-0.6400,4.0000,-9.4900,10.3184,0.0676,0.0862,-0.1244,4.38,158.94,174.50,-0.8508,3.4070,-9.5196,10.1467
1,10,0,1,1,47.131,47131,-1.5100,4.0800,-8.9800,9.9783,0.0491,-0.0262,0.0284,4.00,158.50,174.75,-0.9377,3.4957,-9.4485,10.1180
1,10,0,1,1,47.261,47261,-1.0400,3.8300,-9.7600,10.5360,0.1298,0.3872,-0.0327,5.38,157.50,174.56,-0.9512,3.5398,-9.4896,10.1728
1,10,0,1,1,47.434,47434,-0.7700,4.3800,-9.6900,10.6618,0.0491,0.0622,-0.0840,7.50,157.00,174.06,-0.9273,3.6505,-9.5160,10.2342
1,10,0,1,1,47.565,47565,-2.1400,4.1800,-9.1000,10.2402,0.2607,-0.0240,-0.0240,7.00,154.88,174.50,-1.0871,3.7203,-9.4612,10.2243
1,10,0,1,1,47.695,47695,-1.3400,5.0800,-8.2600,9.7893,0.5465,-0.2705,-0.3796,7.38,152.31,175.50,-1.1204,3.8994,-9.3029,10.1491
1,10,0,1,1,47.829,47829,-1.7300,4.6400,-6.9000,8.4931,0.5541,-0.2269,-0.4494,6.25,148.63,178.44,-1.2008,3.9970,-8.9862,9.9081
1,10,0,1,1,47.960,47960,-1.0600,5.2800,-8.8900,10.3939,-0.2051,0.0055,-0.2465,6.69,147.31,180.44,-1.1822,4.1661,-8.9736,9.9639
1,10,0,1,1,48.092,48092,-1.5700,5.6900,-7.5300,9.5678,0.2105,-0.1265,-0.2869,7.25,147.94,182.06,-1.2333,4.3669,-8.7833,9.8862
1,10,0,1,1,48.223,48223,-2.0400,5.5900,-6.9000,9.1115,0.3742,0.2509,0.2989,8.00,146.38,183.06,-1.3396,4.5281,-8.5352,9.7543
1,10,0,1,1,48.354,48354,-1.1900,5.5600,-8.6500,10.3514,-0.2040,0.1200,-0.0229,8.63,144.63,181.69,-1.3199,4.6641,-8.5503,9.8287
1,10,0,1,1,48.527,48527,-1.4500,6.0300,-7.5300,9.7552,-0.0142,-0.2749,-0.1276,7.25,146.94,181.75,-1.3370,4.8441,-8.4158,9.8020
1,10,0,1,1,48.658,48658,-2.2300,5.2200,-7.8100,9.6549,-0.1418,0.0480,0.1833,6.19,146.75,182.19,-1.4547,4.8936,-8.3360,9.7751
1,10,0,1,1,48.790,48790,-1.2400,5.1000,-8.0400,9.6015,-0.4527,0.3447,0.3142,7.31,148.81,179.38,-1.4264,4.9208,-8.2970,9.7514
1,10,0,1,1,48.920,48920,-0.8600,5.2900,-8.2300,9.8212,-0.3218,0.0949,0.2705,7.63,151.63,176.75,-1.3518,4.9694,-8.2882,9.7579
1,10,0,1,1,49.055,49055,-0.9500,4.5900,-9.2500,10.3698,-0.1418,-0.3240,-0.0840,6.38,152.75,176.44,-1.2988,4.9194,-8.4149,9.8336
