participant,rep,equipment_code,exercise_code,quality_code,timestamp,timestamp_ms,accelX,accelY,accelZ,accelMag,gyroX,gyroY,gyroZ,roll,pitch,yaw,filteredX,filteredY,filteredZ,filteredMag
2,1,0,1,1,00.000,0,-0.0700,-0.8400,-9.4300,9.4676,-0.0404,-0.0044,0.0196,0.31,-174.69,130.38,-0.1935,-0.8606,-9.4053,9.4466
2,1,0,1,1,00.173,173,-0.0400,-0.8500,-9.4500,9.4882,0.0011,0.0240,-0.0305,0.69,-174.56,130.56,-0.1733,-0.8592,-9.4112,9.4519
2,1,0,1,1,00.303,303,-0.3700,-0.8400,-9.3900,9.4348,-0.0076,-0.0251,-0.0207,0.50,-174.56,130.69,-0.1992,-0.8567,-9.4084,9.4494
2,1,0,1,1,00.434,434,-0.1000,-1.0600,-9.2800,9.3409,-0.0556,0.0404,0.0316,0.63,-174.38,130.63,-0.1862,-0.8835,-9.3915,9.4348
2,1,0,1,1,00.564,564,0.1300,-0.8900,-9.5700,9.6122,-0.0578,-0.0251,0.0164,0.69,-173.94,130.44,-0.1445,-0.8843,-9.4150,9.4575
2,1,0,1,1,00.694,694,-0.2000,-0.9700,-9.3900,9.4421,0.0513,-0.0654,0.0600,0.25,-174.00,130.38,-0.1518,-0.8956,-9.4117,9.4554
2,1,0,1,1,00.824,824,0.1100,-1.0100,-10.1100,10.1609,0.0218,-0.0589,-0.0545,0.06,-174.00,130.38,-0.1173,-0.9107,-9.5037,9.5480
2,1,0,1,1,00.954,954,-0.2300,-0.9500,-9.4900,9.5402,0.1265,-0.0360,0.0218,-0.31,-175.00,130.50,-0.1322,-0.9159,-9.5019,9.5469
2,1,0,1,1,01.084,1084,0.2700,-0.5100,-9.6500,9.6672,0.0458,0.0033,-0.0109,-0.06,-175.19,130.25,-0.0792,-0.8624,-9.5214,9.5607
2,1,0,1,1,01.258,1258,-0.0600,-0.6200,-9.5200,9.5404,0.3218,-0.1353,0.0065,-0.94,-177.44,130.13,-0.0766,-0.8304,-9.5212,9.5577
2,1,0,1,1,01.393,1393,0.0600,-0.4900,-9.3600,9.3730,0.0262,-0.0076,-0.0011,-1.19,-178.50,129.94,-0.0586,-0.7856,-9.5000,9.5326
2,1,0,1,1,01.524,1524,0.3700,0.1500,-9.7200,9.7282,-0.0360,-0.0633,-0.0524,-1.19,-178.06,129.88,-0.0022,-0.6623,-9.5290,9.5520
2,1,0,1,1,01.670,1670,0.0000,-0.2200,-9.9600,9.9624,0.2018,0.0153,-0.0502,-1.63,-179.19,130.19,-0.0019,-0.6040,-9.5858,9.6048
2,1,0,1,1,01.805,1805,0.2000,-0.5000,-9.6900,9.7050,0.0873,0.0338,0.0469,-1.06,179.50,130.19,0.0247,-0.5903,-9.5995,9.6177
2,1,0,1,1,01.936,1936,0.1300,-0.0400,-9.7500,9.7509,0.0742,-0.0087,0.0687,-1.69,179.06,129.75,0.0386,-0.5178,-9.6193,9.6333
2,1,0,1,1,02.066,2066,0.7100,0.1400,-9.4600,9.4876,0.2138,0.1745,0.1080,-0.63,177.75,129.25,0.1271,-0.4311,-9.5983,9.6089
2,1,0,1,1,02.197,2197,-0.0700,0.1900,-10.0900,10.0920,0.1614,-0.0665,-0.0087,-1.06,176.63,128.81,0.1011,-0.3493,-9.6631,9.6700
2,1,0,1,1,02.370,2370,0.0000,1.5100,-8.9200,9.0469,0.2291,-0.0535,0.1451,-1.06,175.38,128.19,0.0878,-0.1043,-9.5652,9.5662
2,1,0,1,1,02.500,2500,1.1300,0.1300,-9.5000,9.5679,0.3174,0.2345,0.0447,0.38,172.25,127.94,0.2251,-0.0734,-9.5566,9.5595
2,1,0,1,1,02.631,2631,0.0700,1.4900,-9.1400,9.2609,-0.0153,-0.2094,-0.1549,-0.50,172.13,127.94,0.2047,0.1326,-9.5017,9.5048
2,1,0,1,1,02.761,2761,0.1600,1.3100,-9.5200,9.6110,-0.0044,0.0894,-0.0971,-0.69,172.00,128.56,0.1988,0.2878,-9.5041,9.5106
2,1,0,1,1,02.892,2892,0.2100,1.8300,-9.4100,9.5886,-0.0316,0.1036,0.0196,-0.13,172.63,128.50,0.2003,0.4910,-9.4917,9.5065
2,1,0,1,1,03.023,3023,0.3200,0.8900,-9.5800,9.6266,0.1571,-0.0556,-0.0600,0.13,171.56,128.75,0.2160,0.5436,-9.5034,9.5213
2,1,0,1,1,03.156,3156,-0.6000,1.5000,-8.6500,8.7996,-0.0185,0.1287,0.0000,0.13,171.13,129.25,0.1085,0.6696,-9.3909,9.4154
2,1,0,1,1,03.287,3287,0.2600,1.3300,-9.8600,9.9527,-0.1527,-0.0131,-0.1047,0.69,171.94,129.25,0.1285,0.7566,-9.4527,9.4838
2,1,0,1,1,03.460,3460,-0.2000,1.0700,-9.3800,9.4429,0.1549,0.1080,0.0098,0.44,171.44,129.56,0.0852,0.7979,-9.4431,9.4772
2,1,0,1,1,03.591,3591,0.0100,1.2300,-9.6600,9.7380,-0.1113,0.1418,0.1309,1.38,171.31,128.75,0.0753,0.8549,-9.4717,9.5105
2,1,0,1,1,03.721,3721,-0.3600,1.0600,-10.4900,10.5496,-0.2018,-0.0404,-0.0022,1.69,172.38,128.19,0.0179,0.8819,-9.6059,9.6463
2,1,0,1,1,03.852,3852,-0.1600,1.0900,-9.2500,9.3154,0.0785,-0.0415,0.0044,1.38,172.94,128.13,-0.0055,0.9093,-9.5590,9.6022
2,1,0,1,1,03.982,3982,-0.6700,0.7400,-9.3400,9.3932,-0.0589,0.0753,0.0284,1.38,172.50,128.00,-0.0931,0.8870,-9.5301,9.5718
2,1,0,1,1,04.112,4112,-0.1400,0.8600,-9.9200,9.9582,-0.4461,0.0044,0.0185,1.75,175.06,127.75,-0.0993,0.8834,-9.5815,9.6227
2,1,0,1,1,04.243,4243,-0.2900,1.0400,-9.7700,9.8295,0.0044,0.0371,0.0055,2.25,176.50,127.88,-0.1244,0.9041,-9.6064,9.6496
2,1,0,1,1,04.373,4373,-0.1700,0.2900,-9.0600,9.0662,0.0567,-0.0698,-0.0120,2.06,175.94,127.94,-0.1304,0.8232,-9.5344,9.5707
2,1,0,1,1,04.546,4546,-0.4200,-0.0100,-9.9600,9.9689,-0.4505,0.0251,-0.0840,1.94,178.31,128.69,-0.1686,0.7134,-9.5904,9.6184
2,1,0,1,1,04.677,4677,-0.5400,0.3300,-9.8000,9.8204,-0.0295,0.0938,-0.0055,2.38,-179.81,128.75,-0.2175,0.6628,-9.6181,9.6433
2,1,0,1,1,04.807,4807,-0.6400,-0.7000,-9.9000,9.9453,-0.0949,-0.0982,0.0229,2.38,179.94,128.56,-0.2732,0.4833,-9.6552,9.6712
2,1,0,1,1,04.938,4938,-0.6800,-0.3700,-10.0000,10.0299,-0.3240,-0.0502,-0.0524,1.75,-177.94,128.19,-0.3268,0.3708,-9.7006,9.7132
2,1,0,1,1,05.068,5068,-0.2700,-0.2400,-10.0600,10.0665,-0.1571,0.1538,0.0393,2.44,-176.38,128.06,-0.3193,0.2903,-9.7480,9.7575
2,1,0,1,1,05.198,5198,-0.2300,-0.3700,-10.2800,10.2892,-0.0295,-0.0207,-0.0044,2.88,-175.81,128.13,-0.3075,0.2033,-9.8181,9.8250
2,2,0,1,1,05.328,5328,-0.4200,-0.7100,-9.7700,9.8048,0.2454,-0.1691,0.0109,1.75,-177.00,128.13,-0.3224,0.0830,-9.8118,9.8174
2,2,0,1,1,05.458,5458,-0.4600,-0.5500,-9.6000,9.6267,0.0502,-0.1494,0.0295,0.56,-177.88,128.38,-0.3405,-0.0004,-9.7839,9.7898
2,2,0,1,1,05.631,5631,0.3100,-0.5500,-9.8600,9.8802,0.1069,-0.0011,0.0807,0.13,-178.63,127.94,-0.2548,-0.0729,-9.7939,9.7975
2,2,0,1,1,05.764,5764,-0.2800,0.1200,-10.2300,10.2345,0.0665,-0.2465,-0.0393,-1.06,-178.88,128.00,-0.2581,-0.0474,-9.8514,9.8549
2,2,0,1,1,05.895,5895,0.2800,-0.0400,-9.8000,9.8041,0.3425,0.0142,0.1342,-1.94,179.50,127.56,-0.1872,-0.0465,-9.8446,9.8465
2,2,0,1,1,06.028,6028,0.5700,-0.0400,-9.4200,9.4373,0.1298,0.0240,0.0469,-1.63,177.31,127.31,-0.0874,-0.0456,-9.7886,9.7891
2,2,0,1,1,06.159,6159,0.2500,0.5800,-9.9700,9.9900,0.0360,-0.1593,-0.0131,-2.38,177.31,127.38,-0.0430,0.0368,-9.8125,9.8127
2,2,0,1,1,06.289,6289,0.6200,0.4500,-10.5900,10.6177,0.0884,-0.0044,0.0545,-2.63,176.75,127.06,0.0444,0.0913,-9.9150,9.9155
2,2,0,1,1,06.419,6419,0.2300,1.0800,-9.8200,9.8819,0.3992,-0.0862,-0.0022,-3.44,175.00,126.75,0.0689,0.2216,-9.9025,9.9052
2,2,0,1,1,06.550,6550,0.5800,0.8200,-8.6300,8.6883,0.4265,0.1385,-0.0447,-3.06,171.69,126.50,0.1362,0.3004,-9.7348,9.7404
2,2,0,1,1,06.723,6723,0.9300,1.5200,-8.3200,8.5087,0.1767,-0.1134,-0.0153,-2.38,170.06,126.25,0.2408,0.4611,-9.5484,9.5625
2,2,0,1,1,06.853,6853,0.9400,1.3600,-10.0500,10.1851,-0.0818,-0.0196,-0.1745,-3.44,169.44,126.88,0.3330,0.5796,-9.6145,9.6377
2,2,0,1,1,06.984,6984,0.1700,2.5100,-9.9500,10.2631,0.1374,-0.1167,-0.0524,-4.06,169.75,127.81,0.3115,0.8340,-9.6587,9.6996
2,2,0,1,1,07.114,7114,-0.0100,1.1600,-9.0600,9.1340,0.4647,0.0153,-0.1604,-4.25,166.69,128.38,0.2691,0.8769,-9.5798,9.6236
2,2,0,1,1,07.245,7245,0.6000,2.1500,-9.1200,9.3892,-0.2411,0.0949,-0.1167,-3.94,166.81,128.31,0.3127,1.0447,-9.5192,9.5815
2,2,0,1,1,07.375,7375,0.5000,3.1900,-8.1800,8.7942,0.0196,-0.1974,-0.0785,-4.25,168.38,128.69,0.3374,1.3274,-9.3427,9.4426
2,2,0,1,1,07.508,7508,0.3000,0.6100,-9.4700,9.4944,-0.0033,0.1865,-0.0273,-4.06,166.44,129.00,0.3325,1.2328,-9.3595,9.4462
2,2,0,1,1,07.639,7639,0.6200,3.1100,-9.2100,9.7407,-0.3807,0.1451,0.1145,-2.88,169.56,128.38,0.3704,1.4802,-9.3398,9.4636
2,2,0,1,1,07.813,7813,-0.2000,1.5000,-9.5100,9.6296,0.1342,0.1451,0.0491,-1.56,168.88,128.56,0.2952,1.4828,-9.3622,9.4835
2,2,0,1,1,07.944,7944,-0.0100,1.5800,-9.4900,9.6206,-0.2640,0.0425,0.0316,-1.06,169.94,128.44,0.2550,1.4956,-9.3791,9.5010
2,2,0,1,1,08.074,8074,-0.7000,1.5900,-9.7800,9.9331,-0.1429,0.1898,0.0949,-0.38,171.44,128.00,0.1291,1.5081,-9.4319,9.5526
2,2,0,1,1,08.205,8205,0.4800,1.1400,-10.1200,10.1953,-0.2454,-0.1385,0.0207,-0.50,173.25,127.63,0.1754,1.4596,-9.5226,9.6354
2,2,0,1,1,08.335,8335,-0.4200,0.8500,-9.1100,9.1592,-0.0327,-0.0305,-0.0131,-1.06,173.88,127.56,0.0969,1.3792,-9.4682,9.5686
2,2,0,1,1,08.466,8466,0.3700,0.6500,-9.4300,9.4596,-0.2673,0.0905,0.0164,-0.69,175.13,127.38,0.1329,1.2831,-9.4632,9.5507
2,2,0,1,1,08.596,8596,-0.5500,0.7700,-9.5800,9.6266,-0.2138,0.0404,-0.1505,-0.06,177.31,127.56,0.0429,1.2155,-9.4786,9.5563
2,2,0,1,1,08.726,8726,0.2000,0.0600,-10.1800,10.1821,-0.2847,-0.0142,0.0055,-0.06,178.81,127.69,0.0636,1.0633,-9.5710,9.6301
2,2,0,1,1,08.899,8899,0.0300,0.1300,-9.5500,9.5509,-0.0894,0.1680,0.0022,0.44,-178.88,128.00,0.0592,0.9403,-9.5682,9.6145
2,2,0,1,1,09.029,9029,-0.1600,-0.7800,-10.1100,10.1413,-0.0633,-0.0251,0.0196,1.00,-179.06,127.88,0.0303,0.7136,-9.6396,9.6660
2,2,0,1,1,09.159,9159,-0.3800,0.4700,-9.4600,9.4793,-0.1854,-0.1996,0.0033,-0.19,-176.38,127.38,-0.0238,0.6815,-9.6160,9.6401
2,2,0,1,1,09.289,9289,-0.3100,-1.2400,-9.0900,9.1794,0.4025,0.3371,-0.0480,0.44,-178.44,127.50,-0.0615,0.4283,-9.5466,9.5564
2,2,0,1,1,09.419,9419,0.1100,-0.7700,-9.3600,9.3923,-0.5323,-0.0425,0.0065,2.19,-177.19,127.63,-0.0389,0.2704,-9.5220,9.5260
2,2,0,1,1,09.549,9549,-0.2800,-0.3000,-10.2600,10.2682,-0.2934,-0.2051,0.0131,0.81,-174.00,127.56,-0.0707,0.1952,-9.6193,9.6215
2,2,0,1,1,09.679,9679,-0.5700,-1.0400,-9.0700,9.1472,0.4963,0.1091,-0.0676,0.31,-175.44,127.69,-0.1365,0.0324,-9.5469,9.5479
2,2,0,1,1,09.810,9810,0.0000,-1.3900,-10.4300,10.5222,-0.5574,0.0840,-0.0164,1.44,-175.81,127.94,-0.1185,-0.1550,-9.6633,9.6652
2,2,0,1,1,09.982,9982,-0.4800,-1.0800,-9.9500,10.0199,0.3447,-0.0273,0.0436,0.81,-174.63,127.69,-0.1661,-0.2769,-9.7011,9.7064
2,2,0,1,1,10.112,10112,-0.0400,-0.4700,-9.9500,9.9612,-0.2007,0.1724,-0.0022,1.56,-174.56,128.00,-0.1495,-0.3023,-9.7339,9.7397
2,2,0,1,1,10.242,10242,-0.1500,-1.4400,-9.7000,9.8075,0.4461,-0.3436,0.1276,0.25,-176.88,127.75,-0.1496,-0.4522,-9.7294,9.7411
2,2,0,1,1,10.372,10372,-0.3000,-0.2900,-9.5400,9.5491,-0.2793,0.1069,0.0884,-0.19,-176.63,127.56,-0.1694,-0.4309,-9.7044,9.7155
2,2,0,1,1,10.502,10502,0.4200,-0.5000,-9.8300,9.8517,0.2520,-0.0196,0.0556,0.25,-176.69,127.31,-0.0917,-0.4400,-9.7210,9.7314
2,2,0,1,1,10.632,10632,0.0800,-0.3900,-10.3200,10.3277,-0.0011,-0.2498,0.0654,-0.81,-177.44,127.06,-0.0691,-0.4334,-9.7999,9.8097
2,2,0,1,1,10.763,10763,0.1100,0.0300,-10.2000,10.2006,0.2171,0.0098,0.0349,-1.88,-178.31,127.00,-0.0455,-0.3723,-9.8526,9.8598
2,2,0,1,1,10.893,10893,0.6900,-0.0200,-8.7500,8.7772,0.3120,-0.2487,0.0153,-2.63,-179.94,127.44,0.0514,-0.3259,-9.7073,9.7129
2,2,0,1,1,11.066,11066,0.5000,0.2700,-9.9500,9.9662,-0.1953,0.0218,-0.0207,-3.69,177.88,127.94,0.1105,-0.2474,-9.7393,9.7431
2,2,0,1,1,11.197,11197,0.0300,-0.2100,-7.7300,7.7329,0.5781,0.1276,0.0076,-3.00,176.31,127.94,0.0999,-0.2425,-9.4745,9.4782
2,2,0,1,1,11.327,11327,1.0400,0.1200,-11.7700,11.8165,-1.0025,0.1276,0.0196,-1.63,178.19,127.81,0.2238,-0.1947,-9.7770,9.7815
2,2,0,1,1,11.458,11458,0.6000,1.4700,-10.5900,10.7084,0.5683,-0.2694,0.0709,-2.38,-179.31,127.56,0.2734,0.0247,-9.8842,9.8880
2,2,0,1,1,11.588,11588,0.8300,-0.3400,-9.8900,9.9306,0.4800,-0.1156,-0.0862,-3.69,175.19,127.94,0.3467,-0.0234,-9.8849,9.8910
2,3,0,1,1,11.721,11721,0.9100,1.0400,-9.1700,9.2735,0.2105,-0.1189,-0.0338,-3.94,173.63,128.81,0.4209,0.1167,-9.7907,9.8005
2,3,0,1,1,11.852,11852,0.1700,0.9500,-10.0700,10.1161,0.1713,0.0131,-0.1145,-4.69,171.88,129.50,0.3879,0.2265,-9.8275,9.8378
2,3,0,1,1,11.986,11986,0.2400,1.5600,-7.7400,7.8993,0.5661,-0.1440,0.0164,-5.38,169.31,129.06,0.3684,0.4023,-9.5524,9.5680
2,3,0,1,1,12.159,12159,1.6100,2.6700,-10.6100,11.0586,-0.4658,0.3065,0.1254,-2.56,169.94,128.88,0.5320,0.7011,-9.6918,9.7317
2,3,0,1,1,12.289,12289,0.2000,2.2700,-8.2800,8.5879,0.7221,-0.3262,-0.1178,-3.75,168.56,129.13,0.4883,0.9078,-9.5058,9.5615
2,3,0,1,1,12.419,12419,0.3800,0.5600,-8.9100,8.9357,-0.0480,0.4145,0.0087,-3.81,164.75,129.13,0.4740,0.8620,-9.4273,9.4784
2,3,0,1,1,12.549,12549,1.1000,3.7100,-8.6600,9.4852,-0.3425,0.0436,-0.0447,-2.44,169.06,128.25,0.5565,1.2373,-9.3261,9.4243
2,3,0,1,1,12.679,12679,0.1500,1.8100,-9.4600,9.6328,0.0960,-0.0938,0.0622,-3.19,168.19,128.31,0.5029,1.3128,-9.3438,9.4489
2,3,0,1,1,12.809,12809,0.6900,2.1800,-9.0100,9.2956,-0.0764,0.1658,0.0131,-2.31,168.69,128.13,0.5276,1.4270,-9.2998,9.4234
2,3,0,1,1,12.939,12939,0.3000,1.5500,-9.0100,9.1473,0.0524,0.0011,-0.0829,-2.13,168.31,128.13,0.4976,1.4432,-9.2616,9.3866
2,3,0,1,1,13.070,13070,0.2000,1.9400,-10.0600,10.2473,-0.3687,0.0873,-0.0665,-1.31,170.19,128.56,0.4584,1.5087,-9.3668,9.4986
2,3,0,1,1,13.243,13243,-0.8400,1.3800,-9.6000,9.7350,0.1571,-0.1494,-0.0011,-2.00,170.88,129.00,0.2873,1.4917,-9.3975,9.5195
2,3,0,1,1,13.376,13376,-0.2900,1.3800,-10.3900,10.4853,-0.3829,0.3185,0.1451,-0.75,171.81,128.56,0.2112,1.4770,-9.5283,9.6444
2,3,0,1,1,13.506,13506,0.2900,1.7000,-8.5700,8.7418,0.2334,0.0098,0.0742,0.88,173.13,127.81,0.2216,1.5064,-9.4020,9.5245
2,3,0,1,1,13.641,13641,-1.0500,-0.1200,-10.5900,10.6426,-0.2902,0.0207,-0.0753,-0.25,171.44,127.88,0.0540,1.2921,-9.5586,9.6457
2,3,0,1,1,13.772,13772,0.1400,1.9500,-9.1300,9.3370,-0.1767,-0.0654,0.0447,0.50,175.63,127.75,0.0654,1.3788,-9.5021,9.6018
2,3,0,1,1,13.903,13903,-0.1900,0.4100,-9.3000,9.3110,0.1713,-0.0556,-0.0764,-0.44,174.38,128.13,0.0317,1.2511,-9.4755,9.5578
2,3,0,1,1,14.033,14033,-0.1200,0.3400,-10.6200,10.6261,-0.5727,0.2989,-0.0185,0.69,175.63,128.44,0.0117,1.1311,-9.6263,9.6925
2,3,0,1,1,14.163,14163,0.1100,1.1000,-9.9400,10.0013,-0.1636,-0.2225,0.0436,0.88,179.31,128.25,0.0247,1.1270,-9.6676,9.7331
2,3,0,1,1,14.336,14336,-0.3900,-0.2200,-9.0700,9.0810,0.2345,0.1364,0.0480,0.00,177.13,128.31,-0.0300,0.9495,-9.5889,9.6358
2,3,0,1,1,14.467,14467,0.2400,-0.3900,-10.3300,10.3401,-0.5312,-0.0196,0.0360,0.94,178.13,128.06,0.0056,0.7730,-9.6865,9.7173
2,3,0,1,1,14.597,14597,-0.5100,0.3100,-9.3400,9.3590,0.0698,-0.1320,-0.0262,0.06,-179.69,128.06,-0.0623,0.7120,-9.6409,9.6673
2,3,0,1,1,14.728,14728,-0.5800,-0.7800,-9.3500,9.4004,-0.2563,0.2193,-0.0240,0.31,-179.81,128.25,-0.1306,0.5154,-9.6025,9.6173
2,3,0,1,1,14.859,14859,-0.2500,-0.6000,-9.5600,9.5821,-0.5312,0.2454,0.0109,3.00,-176.00,128.31,-0.1463,0.3684,-9.5969,9.6051
2,3,0,1,1,14.991,14991,-0.6600,-0.6500,-10.3800,10.4213,-0.3687,0.0087,-0.0109,3.56,-172.75,128.06,-0.2140,0.2342,-9.7001,9.7053
2,3,0,1,1,15.121,15121,-0.7600,-1.3500,-9.6200,9.7439,-0.0142,0.0393,-0.0251,3.50,-172.00,128.19,-0.2859,0.0254,-9.6896,9.6938
2,3,0,1,1,15.254,15254,-0.7000,-1.7300,-9.8300,10.0056,-0.3927,-0.0480,0.0240,3.44,-170.50,128.13,-0.3405,-0.2059,-9.7081,9.7162
2,3,0,1,1,15.427,15427,-0.5000,-2.2000,-9.3100,9.5795,-0.1473,-0.0993,-0.0469,2.69,-168.38,128.25,-0.3615,-0.4687,-9.6556,9.6737
2,3,0,1,1,15.558,15558,-0.2400,-2.0400,-10.3100,10.5126,-0.5443,-0.0971,-0.0622,1.88,-165.56,128.06,-0.3455,-0.6757,-9.7418,9.7714
2,3,0,1,1,15.688,15688,-0.0400,-1.6200,-10.0300,10.1601,0.2127,-0.1036,-0.0960,1.31,-164.75,128.63,-0.3052,-0.8002,-9.7798,9.8172
2,3,0,1,1,15.818,15818,-0.1400,-2.5200,-10.0000,10.3136,0.5040,-0.1702,0.0305,-0.13,-168.56,128.88,-0.2835,-1.0268,-9.8088,9.8665
2,3,0,1,1,15.949,15949,-0.0900,-1.8400,-9.8400,10.0110,0.4538,-0.1124,0.0131,-0.88,-171.56,128.63,-0.2580,-1.1339,-9.8129,9.8816
2,3,0,1,1,16.079,16079,0.4000,-1.1200,-9.1200,9.1972,0.4156,-0.0796,0.0622,-1.75,-174.75,128.50,-0.1713,-1.1321,-9.7216,9.7888
2,3,0,1,1,16.210,16210,0.7700,-0.1800,-9.4900,9.5229,0.1658,0.2694,0.0185,-0.63,-176.25,128.44,-0.0472,-1.0066,-9.6911,9.7434
2,3,0,1,1,16.340,16340,0.8300,0.0300,-9.0000,9.0382,0.3763,-0.4636,-0.0327,-1.25,-178.44,128.25,0.0684,-0.8700,-9.6000,9.6396
2,3,0,1,1,16.513,16513,-0.8500,0.2600,-10.4200,10.4578,0.1167,0.2574,-0.1571,-3.56,179.25,129.44,-0.0527,-0.7211,-9.7081,9.7350
2,3,0,1,1,16.643,16643,0.4200,0.1000,-7.8700,7.8818,0.7439,-0.2738,-0.0425,-2.81,176.00,129.13,0.0096,-0.6129,-9.4659,9.4857
2,3,0,1,1,16.774,16774,1.2100,0.4100,-10.1400,10.2202,-0.7079,-0.0524,0.0535,-3.81,175.38,129.31,0.1678,-0.4781,-9.5547,9.5681
2,3,0,1,1,16.904,16904,0.2600,1.3800,-10.3400,10.4349,0.2116,-0.1124,0.0207,-4.69,178.06,129.88,0.1800,-0.2333,-9.6582,9.6627
2,3,0,1,1,17.035,17035,0.2500,0.5900,-9.0800,9.1026,0.6981,0.1691,0.1014,-4.25,173.38,129.63,0.1892,-0.1248,-9.5820,9.5847
2,3,0,1,1,17.166,17166,0.8500,0.4600,-10.3100,10.3552,-0.0676,-0.1440,-0.0611,-3.88,171.25,129.00,0.2763,-0.0477,-9.6779,9.6820
2,3,0,1,1,17.296,17296,1.0300,2.3700,-9.0800,9.4406,0.2378,-0.2247,-0.0458,-4.88,171.13,129.31,0.3756,0.2709,-9.5991,9.6103
2,3,0,1,1,17.427,17427,0.1600,1.9600,-8.5200,8.7440,0.5127,-0.0316,0.0589,-6.56,168.31,129.69,0.3472,0.4934,-9.4569,9.4762
2,3,0,1,1,17.603,17603,1.9400,1.5400,-9.5500,9.8660,-0.3992,0.4102,0.1418,-2.56,165.88,127.50,0.5571,0.6314,-9.4692,9.5066
2,3,0,1,1,17.734,17734,0.5200,3.2600,-8.5600,9.1745,-0.0938,-0.2411,-0.0971,-2.88,169.25,127.69,0.5522,0.9777,-9.3494,9.4166
2,3,0,1,1,17.865,17865,0.3700,1.1000,-9.8800,9.9479,-0.0524,0.1593,-0.1680,-3.13,168.25,128.88,0.5282,0.9939,-9.4193,9.4863
2,3,0,1,1,17.995,17995,0.5700,2.2100,-9.1200,9.4012,-0.1004,0.0142,0.0393,-2.06,170.13,128.88,0.5337,1.1541,-9.3799,9.4657
2,3,0,1,1,18.125,18125,-0.2900,1.2100,-8.9100,8.9965,0.3469,-0.0807,-0.0076,-2.81,168.44,129.13,0.4251,1.1615,-9.3180,9.3997
2,4,0,1,1,18.271,18271,0.4300,1.2400,-9.5800,9.6695,-0.4483,0.5083,0.0207,-0.56,168.94,128.56,0.4258,1.1718,-9.3525,9.4352
2,4,0,1,1,18.405,18405,0.1300,1.7800,-10.0000,10.1580,-0.5105,-0.0327,0.1178,1.00,172.88,127.94,0.3868,1.2520,-9.4378,9.5283
2,4,0,1,1,18.536,18536,-0.4800,1.3400,-10.0700,10.1701,-0.2531,-0.0458,0.0087,0.31,175.56,127.50,0.2726,1.2636,-9.5211,9.6085
2,4,0,1,1,18.709,18709,-0.4800,0.2500,-9.6100,9.6252,0.0360,0.1549,-0.0338,1.81,175.56,127.00,0.1734,1.1300,-9.5328,9.6011
2,4,0,1,1,18.839,18839,0.0600,0.0900,-9.4400,9.4406,-0.2760,0.0044,0.0785,2.19,176.56,126.94,0.1585,0.9930,-9.5206,9.5735
2,4,0,1,1,18.969,18969,-0.5500,0.4100,-9.7800,9.8040,-0.3774,0.0011,-0.0011,1.88,179.13,126.88,0.0651,0.9161,-9.5548,9.5988
2,4,0,1,1,19.099,19099,-0.9400,0.0400,-9.4700,9.5166,-0.1745,0.3251,0.0065,3.06,-178.94,126.94,-0.0673,0.8007,-9.5436,9.5774
2,4,0,1,1,19.229,19229,-0.3500,-0.6700,-9.6600,9.6895,-0.2520,0.0807,0.0382,4.56,-177.69,126.81,-0.1046,0.6069,-9.5589,9.5788
2,4,0,1,1,19.359,19359,-1.0500,-0.8200,-10.9300,11.0109,-0.4516,0.0044,-0.1134,4.75,-175.00,126.81,-0.2292,0.4189,-9.7396,9.7513
2,4,0,1,1,19.490,19490,-0.7100,-0.4900,-9.4900,9.5291,0.1494,-0.0829,-0.1102,4.44,-173.63,127.31,-0.2925,0.2991,-9.7067,9.7157
2,4,0,1,1,19.620,19620,-0.7000,-1.7500,-9.2100,9.4009,0.0175,-0.0993,-0.0142,3.75,-175.06,127.56,-0.3462,0.0291,-9.6413,9.6475
2,4,0,1,1,19.793,19793,-0.5200,-1.1900,-10.3400,10.4212,-0.3436,0.1713,0.0120,3.94,-172.19,127.50,-0.3691,-0.1316,-9.7333,9.7412
2,4,0,1,1,19.924,19924,-0.5400,-1.0700,-9.5800,9.6547,0.0295,-0.0905,0.0087,4.00,-171.31,127.56,-0.3916,-0.2552,-9.7131,9.7244
2,4,0,1,1,20.054,20054,-0.0900,-1.1500,-9.8300,9.8974,0.0753,-0.1593,-0.0753,3.56,-171.44,128.25,-0.3519,-0.3731,-9.7285,9.7420
2,4,0,1,1,20.185,20185,-0.5700,-1.6900,-9.4200,9.5874,0.3022,-0.2116,0.0458,1.69,-173.25,128.50,-0.3806,-0.5467,-9.6879,9.7108
2,4,0,1,1,20.316,20316,-0.7000,-0.9400,-10.2200,10.2870,-0.0262,-0.0611,-0.0273,0.63,-173.88,128.44,-0.4227,-0.5985,-9.7580,9.7855
2,4,0,1,1,20.446,20446,0.1700,-0.5500,-9.6900,9.7071,0.2051,-0.0829,0.0665,0.38,-174.69,128.19,-0.3446,-0.5921,-9.7490,9.7731
2,4,0,1,1,20.576,20576,-0.0700,-0.8800,-9.9200,9.9592,0.2454,-0.0556,0.0469,-0.06,-176.69,127.88,-0.3084,-0.6300,-9.7716,9.7967
2,4,0,1,1,20.706,20706,0.4200,0.1300,-9.4400,9.4502,0.3709,-0.0273,0.0567,-0.31,-178.31,127.31,-0.2124,-0.5299,-9.7279,9.7446
2,4,0,1,1,20.879,20879,0.3600,0.7400,-9.7200,9.7548,0.0840,-0.0262,-0.0873,-0.06,178.69,127.44,-0.1370,-0.3625,-9.7268,9.7346
2,4,0,1,1,21.013,21013,-0.2100,-0.2000,-9.3100,9.3145,0.4036,-0.2574,-0.0622,-1.63,176.50,128.00,-0.1466,-0.3411,-9.6719,9.6790
2,4,0,1,1,21.145,21145,-0.0200,0.2600,-9.0900,9.0937,0.1636,0.5792,0.1113,-0.56,173.81,127.63,-0.1299,-0.2619,-9.5952,9.5997
2,4,0,1,1,21.275,21275,0.8800,1.0600,-10.7300,10.8181,-0.3556,-0.4352,-0.1189,0.00,175.25,127.06,0.0031,-0.0877,-9.7448,9.7452
2,4,0,1,1,21.405,21405,-0.6800,1.7300,-10.3500,10.5156,0.3949,-0.2509,-0.0873,-3.00,175.44,128.31,-0.0869,0.1518,-9.8245,9.8261
2,4,0,1,1,21.536,21536,-0.0400,0.3600,-8.2200,8.2280,0.5225,0.0938,0.0873,-2.88,170.75,128.25,-0.0807,0.1792,-9.6131,9.6151
2,4,0,1,1,21.666,21666,0.4000,1.7000,-10.1200,10.2696,-0.3327,0.1309,0.0000,-2.13,170.44,127.69,-0.0174,0.3796,-9.6799,9.6873
2,4,0,1,1,21.797,21797,0.5500,2.1100,-8.8200,9.0855,0.4342,-0.1287,-0.0349,-2.50,170.06,127.75,0.0574,0.6077,-9.5666,9.5860
2,4,0,1,1,21.970,21970,0.7300,1.9700,-8.9800,9.2225,-0.3982,0.3076,0.1167,-2.38,168.56,127.00,0.1460,0.7872,-9.4893,9.5230
2,4,0,1,1,22.103,22103,0.7100,2.0200,-8.7300,8.9887,0.2302,-0.0360,-0.0305,-1.44,169.50,126.44,0.2204,0.9496,-9.3892,9.4397
2,4,0,1,1,22.234,22234,0.0300,0.9200,-9.2800,9.3255,-0.4701,0.1974,-0.0436,-1.38,169.31,126.75,0.1953,0.9457,-9.3748,9.4244
2,4,0,1,1,22.368,22368,-0.2300,2.2400,-9.4100,9.6757,-0.3120,0.1713,0.0905,0.63,173.69,126.50,0.1392,1.1163,-9.3795,9.4467
2,4,0,1,1,22.499,22499,0.0000,0.2200,-9.8400,9.8425,0.1767,0.0087,-0.0065,0.75,172.00,125.69,0.1209,0.9982,-9.4402,9.4935
2,4,0,1,1,22.630,22630,-0.1400,1.0400,-9.8700,9.9256,-0.3567,0.1298,-0.0458,1.94,173.94,126.06,0.0865,1.0037,-9.4968,9.5501
2,4,0,1,1,22.760,22760,-0.5300,0.5100,-9.2800,9.3091,-0.0065,-0.1953,-0.0295,1.13,174.75,125.94,0.0053,0.9386,-9.4682,9.5146
2,4,0,1,1,22.890,22890,-0.2400,0.5900,-9.9300,9.9504,-0.3556,0.1658,0.0447,0.94,176.19,125.88,-0.0271,0.8927,-9.5291,9.5708
2,4,0,1,1,23.063,23063,-0.2800,-0.0800,-10.0800,10.0842,-0.0513,0.1080,0.0327,2.88,177.88,125.69,-0.0604,0.7645,-9.6017,9.6323
2,4,0,1,1,23.194,23194,-0.5900,-0.0500,-9.6100,9.6282,-0.3251,-0.0076,-0.0862,3.00,179.50,126.19,-0.1302,0.6572,-9.6028,9.6261
2,4,0,1,1,23.324,23324,-0.4700,0.0000,-10.1400,10.1509,-0.2498,0.0229,0.0000,3.38,-178.06,126.38,-0.1750,0.5706,-9.6736,9.6920
2,4,0,1,1,23.455,23455,-1.2600,-0.3300,-9.5100,9.5988,0.1647,0.0360,-0.0327,3.19,-178.19,126.50,-0.3179,0.4519,-9.6520,9.6678
2,4,0,1,1,23.586,23586,-0.1300,-0.9600,-9.8500,9.8975,-0.2127,0.0404,0.0076,3.75,-178.13,126.56,-0.2932,0.2659,-9.6781,9.6862
2,4,0,1,1,23.716,23716,-0.7100,-0.4800,-9.9100,9.9470,-0.3403,0.0120,0.0556,3.75,-175.63,126.25,-0.3481,0.1676,-9.7087,9.7163
2,4,0,1,1,23.847,23847,-0.5100,-0.6600,-9.7900,9.8255,-0.1178,0.0349,0.0240,4.06,-174.19,126.38,-0.3694,0.0585,-9.7194,9.7266
2,4,0,1,1,23.979,23979,-0.5700,-1.2800,-10.1700,10.2661,-0.0960,-0.0600,0.0425,3.88,-173.56,126.13,-0.3959,-0.1179,-9.7788,9.7875
2,4,0,1,1,24.153,24153,-0.5400,-0.6300,-9.6200,9.6557,0.1680,-0.0316,-0.0425,3.25,-173.56,126.31,-0.4149,-0.1854,-9.7578,9.7684
2,4,0,1,1,24.285,24285,-0.3500,-1.1600,-9.6900,9.7655,0.0545,-0.0764,-0.0393,3.06,-174.63,126.56,-0.4063,-0.3138,-9.7489,9.7624
2,4,0,1,1,24.415,24415,-0.3400,-1.0500,-9.8200,9.8818,-0.0393,-0.1025,0.0000,2.31,-174.38,126.69,-0.3976,-0.4108,-9.7583,9.7750
2,4,0,1,1,24.545,24545,-0.4500,-0.6300,-10.0300,10.0598,0.1004,-0.0665,-0.0349,1.81,-174.63,127.00,-0.4045,-0.4397,-9.7941,9.8123
2,4,0,1,1,24.676,24676,0.0700,-0.5200,-10.1900,10.2035,0.2923,-0.1691,0.0196,0.88,-176.13,126.94,-0.3420,-0.4503,-9.8462,9.8625
2,4,0,1,1,24.806,24806,-0.4200,-0.1800,-9.7200,9.7307,0.4756,-0.2073,0.0065,-1.00,-178.81,126.56,-0.3522,-0.4147,-9.8296,9.8447
2,4,0,1,1,24.937,24937,0.0600,-0.3600,-9.6000,9.6069,0.3022,0.0207,0.0415,-0.94,178.00,126.44,-0.2979,-0.4075,-9.7994,9.8123
2,4,0,1,1,25.067,25067,0.5000,0.1700,-9.5700,9.5846,-0.0284,-0.1309,0.0971,-0.88,178.25,125.63,-0.1928,-0.3314,-9.7691,9.7767
2,4,0,1,1,25.240,25240,0.2500,0.5700,-9.6500,9.6701,0.1898,-0.0273,-0.1407,-2.31,177.00,126.06,-0.1344,-0.2126,-9.7534,9.7567
2,4,0,1,1,25.370,25370,0.7600,1.0400,-9.5300,9.6167,0.1800,0.0316,-0.0818,-2.00,175.69,126.88,-0.0166,-0.0475,-9.7240,9.7241
2,4,0,1,1,25.501,25501,0.1400,1.0500,-9.7000,9.7577,0.2716,-0.0567,-0.0600,-2.50,173.88,127.44,0.0041,0.0971,-9.7208,9.7213
2,4,0,1,1,25.631,25631,0.8400,1.0300,-9.5400,9.6321,0.0578,-0.0742,-0.0196,-2.81,172.75,127.69,0.1142,0.2200,-9.6970,9.7002
2,4,0,1,1,25.762,25762,0.2000,1.5900,-9.1800,9.3188,-0.1036,0.0578,0.0076,-3.31,172.63,128.13,0.1255,0.4006,-9.6289,9.6380
2,4,0,1,1,25.893,25893,1.2200,1.5000,-9.0100,9.2151,0.4581,0.1756,-0.0382,-2.56,171.06,128.44,0.2697,0.5454,-9.5473,9.5667
2,4,0,1,1,26.023,26023,1.3800,2.2900,-8.6000,9.0060,0.0676,-0.1276,0.2749,-1.56,169.38,128.13,0.4161,0.7753,-9.4225,9.4635
2,4,0,1,1,26.154,26154,0.2100,1.7400,-10.2500,10.3988,0.0251,-0.2029,-0.2662,-4.31,168.63,128.75,0.3889,0.9024,-9.5315,9.5821
2,4,0,1,1,26.330,26330,0.3500,2.5000,-7.1500,7.5825,0.5552,-0.0567,0.0785,-3.94,167.38,129.06,0.3838,1.1130,-9.2177,9.2926
2,5,0,1,1,26.461,26461,0.5400,1.2400,-10.1400,10.2298,-0.4691,0.4352,0.0600,-2.75,165.81,128.25,0.4044,1.1297,-9.3392,9.4160
2,5,0,1,1,26.592,26592,0.7500,3.0800,-8.8400,9.3912,-0.0098,-0.1124,0.0611,-1.38,169.63,127.56,0.4499,1.3867,-9.2735,9.3873
2,5,0,1,1,26.722,26722,-0.2800,1.0800,-9.0500,9.1185,0.2225,0.0524,-0.0589,-2.44,167.56,127.44,0.3537,1.3463,-9.2440,9.3482
2,5,0,1,1,26.852,26852,0.0600,2.2400,-9.3100,9.5759,-0.5421,0.3971,0.0796,-0.06,169.69,126.94,0.3150,1.4641,-9.2527,9.3731
2,5,0,1,1,26.983,26983,0.1900,1.5500,-9.4400,9.5683,-0.0873,-0.1407,0.0229,0.19,171.63,126.81,0.2985,1.4754,-9.2774,9.3987
2,5,0,1,1,27.113,27113,-0.2300,1.2700,-9.9900,10.0730,-0.3054,0.1505,0.0469,0.00,173.13,126.19,0.2289,1.4483,-9.3713,9.4853
2,5,0,1,1,27.244,27244,0.1000,1.1500,-9.8700,9.9373,-0.0382,0.0742,0.0665,1.06,174.50,125.63,0.2119,1.4090,-9.4370,9.5440
2,5,0,1,1,27.417,27417,-0.0200,0.3200,-9.5200,9.5254,-0.2814,0.0709,-0.0840,1.88,174.88,125.56,0.1814,1.2655,-9.4479,9.5340
2,5,0,1,1,27.548,27548,-0.0500,0.2200,-9.7600,9.7626,-0.4963,-0.0382,0.0164,2.13,177.81,125.88,0.1509,1.1277,-9.4891,9.5570
2,5,0,1,1,27.678,27678,-0.4700,0.5800,-9.9600,9.9879,-0.1222,-0.0033,-0.0295,1.75,-179.50,126.06,0.0691,1.0556,-9.5511,9.6095
2,5,0,1,1,27.809,27809,-0.1800,0.1700,-9.6200,9.6232,0.1582,-0.1745,-0.1178,1.06,179.75,126.50,0.0362,0.9389,-9.5602,9.6063
2,5,0,1,1,27.939,27939,-0.2900,-0.3100,-9.6400,9.6493,-0.0240,-0.0338,-0.0207,0.31,179.25,127.38,-0.0068,0.7743,-9.5707,9.6020
2,5,0,1,1,28.070,28070,-0.4500,-0.1600,-9.7100,9.7217,-0.1516,-0.0044,-0.0273,0.31,-179.69,127.56,-0.0652,0.6512,-9.5891,9.6114
2,5,0,1,1,28.201,28201,0.2900,0.1500,-10.1500,10.1552,-0.2563,0.0654,0.0622,0.94,-177.81,127.38,-0.0184,0.5851,-9.6630,9.6807
2,5,0,1,1,28.336,28336,-0.2200,-0.4100,-9.2200,9.2317,0.2825,-0.1527,-0.0273,0.25,-178.25,127.19,-0.0449,0.4540,-9.6046,9.6154
2,5,0,1,1,28.509,28509,-0.2300,0.0100,-9.5700,9.5728,-0.3283,0.1811,-0.0371,0.69,-176.56,127.69,-0.0693,0.3955,-9.6001,9.6084
2,5,0,1,1,28.639,28639,0.3700,-0.3900,-9.2600,9.2756,0.1418,-0.1854,0.0774,0.69,-176.50,127.38,-0.0114,0.2920,-9.5552,9.5597
2,5,0,1,1,28.769,28769,-0.5600,-0.6600,-10.2300,10.2666,-0.1996,0.0076,-0.0731,-0.44,-176.50,127.19,-0.0837,0.1665,-9.6442,9.6460
2,5,0,1,1,28.899,28899,0.7100,-0.3400,-10.1900,10.2204,0.1276,-0.0458,0.0131,0.00,-175.81,127.56,0.0209,0.0998,-9.7161,9.7166
2,5,0,1,1,29.029,29029,-0.0800,-0.3400,-10.2800,10.2859,0.1058,-0.1756,-0.0556,-1.44,-176.75,127.44,0.0076,0.0418,-9.7904,9.7905
2,5,0,1,1,29.159,29159,-0.4300,-0.3400,-10.2500,10.2646,0.2214,0.0949,-0.0774,-2.06,-177.69,127.81,-0.0501,-0.0085,-9.8510,9.8511
2,5,0,1,1,29.290,29290,0.2300,-0.9800,-8.9800,9.0362,0.3523,-0.1364,0.0251,-1.63,179.25,127.75,-0.0132,-0.1365,-9.7362,9.7372
2,5,0,1,1,29.420,29420,0.6200,0.8300,-9.6100,9.6657,-0.3643,0.0196,0.0022,-2.19,-179.75,127.69,0.0703,-0.0091,-9.7196,9.7198
2,5,0,1,1,29.593,29593,0.0500,0.4200,-8.7800,8.7902,0.6043,-0.0207,-0.0087,-3.25,177.19,127.50,0.0676,0.0474,-9.5957,9.5961
2,5,0,1,1,29.724,29724,0.4300,-0.1400,-9.7400,9.7505,-0.0284,0.1724,0.0240,-2.44,175.00,127.75,0.1153,0.0227,-9.6148,9.6155
2,5,0,1,1,29.855,29855,0.1600,1.9900,-8.4700,8.7021,0.0644,-0.1614,-0.0535,-2.25,176.06,128.00,0.1212,0.2820,-9.4639,9.4689
2,5,0,1,1,29.985,29985,1.1400,-0.2200,-10.8500,10.9119,0.2323,-0.0262,-0.0393,-3.13,172.75,128.19,0.2555,0.2158,-9.6466,9.6524
2,5,0,1,1,30.116,30116,-0.2300,2.3200,-8.7900,9.0939,0.0513,-0.0502,-0.0545,-3.94,173.56,129.00,0.1915,0.4931,-9.5337,9.5484
2,5,0,1,1,30.248,30248,0.3000,1.5900,-8.4100,8.5642,0.8388,-0.0120,-0.3545,-3.81,169.81,129.75,0.2058,0.6376,-9.3856,9.4095
2,5,0,1,1,30.382,30382,0.9000,1.8600,-8.4500,8.6990,-0.2585,-0.2607,0.2367,-4.44,166.38,129.38,0.2973,0.7987,-9.2623,9.3014
2,5,0,1,1,30.512,30512,0.2300,3.0000,-7.5100,8.0903,0.0327,-0.3327,-0.4811,-6.94,168.50,130.06,0.2884,1.0888,-9.0314,9.1014
2,6,0,1,1,30.685,30685,1.1500,2.0000,-9.2600,9.5431,-0.0916,0.7483,0.0262,-3.06,166.31,129.50,0.4019,1.2089,-9.0615,9.1506
2,6,0,1,1,30.815,30815,0.9300,2.7500,-9.2900,9.7330,-0.1953,0.0284,0.0862,-0.63,168.25,128.19,0.4715,1.4119,-9.0916,9.2127
2,6,0,1,1,30.945,30945,0.1600,1.6500,-9.1000,9.2498,-0.0633,-0.1025,0.0425,-1.19,168.63,128.25,0.4305,1.4433,-9.0927,9.2166
2,6,0,1,1,31.075,31075,-0.7200,1.5300,-9.2400,9.3934,-0.4385,0.3371,0.3458,-0.63,170.63,127.00,0.2789,1.4547,-9.1121,9.2318
2,6,0,1,1,31.206,31206,0.4600,1.4800,-9.6800,9.8033,-0.3251,0.2716,-0.0415,1.69,173.63,125.94,0.3027,1.4581,-9.1870,9.3069
2,6,0,1,1,31.336,31336,-0.4400,0.9400,-10.2100,10.2626,-0.0055,-0.0567,0.0240,2.63,174.75,126.06,0.2049,1.3898,-9.3218,9.4270
2,6,0,1,1,31.466,31466,-0.4700,0.3400,-9.9600,9.9769,-0.0873,-0.1920,0.0491,1.13,174.94,125.69,0.1159,1.2515,-9.4059,9.4895
2,6,0,1,1,31.597,31597,-0.5500,0.4100,-9.6900,9.7143,-0.2105,0.0153,-0.0905,0.69,176.56,125.94,0.0282,1.1406,-9.4433,9.5120
2,6,0,1,1,31.769,31769,-0.3400,0.0500,-9.8600,9.8660,-0.2694,0.0327,0.1222,1.31,178.31,125.63,-0.0203,0.9969,-9.4982,9.5504
2,6,0,1,1,31.899,31899,-0.2400,0.6500,-9.8900,9.9142,-0.2574,-0.1484,0.0305,0.94,-178.81,125.56,-0.0493,0.9512,-9.5499,9.5972
2,6,0,1,1,32.029,32029,-0.2200,-0.4200,-9.4100,9.4219,0.2094,0.0415,-0.1538,0.44,-179.25,126.31,-0.0718,0.7705,-9.5314,9.5628
2,6,0,1,1,32.159,32159,-0.2100,-0.4800,-9.1500,9.1650,-0.2487,-0.0295,-0.1680,0.75,-179.06,127.06,-0.0900,0.6057,-9.4812,9.5009
2,6,0,1,1,32.289,32289,0.2000,-0.3800,-10.2900,10.2990,-0.4440,-0.0916,0.0545,-0.06,-176.25,127.31,-0.0518,0.4758,-9.5877,9.5997
2,6,0,1,1,32.419,32419,-0.4200,-0.4100,-10.5500,10.5663,-0.0425,0.0840,-0.0251,0.00,-174.50,127.44,-0.1003,0.3591,-9.7145,9.7217
2,6,0,1,1,32.549,32549,0.5100,-0.8800,-10.3400,10.3899,0.1429,-0.3447,-0.0589,-1.06,-175.38,127.63,-0.0199,0.1958,-9.7970,9.7989
2,6,0,1,1,32.680,32680,0.2100,-0.3100,-10.0300,10.0370,0.0153,-0.0513,0.0305,-2.81,-175.81,127.38,0.0104,0.1291,-9.8277,9.8285
2,6,0,1,1,32.853,32853,0.7100,-0.5700,-9.0500,9.0957,0.3752,-0.3054,-0.0207,-3.50,-178.56,127.69,0.1026,0.0370,-9.7252,9.7258
2,6,0,1,1,32.986,32986,0.4100,-0.0300,-9.2800,9.2891,-0.1036,-0.0654,0.0513,-5.13,-179.19,127.19,0.1431,0.0282,-9.6665,9.6676
2,6,0,1,1,33.116,33116,0.8400,-0.1400,-9.7700,9.8070,0.1778,-0.0164,0.0120,-4.81,-179.50,127.13,0.2349,0.0060,-9.6802,9.6830
2,6,0,1,1,33.251,33251,1.4200,0.2600,-10.3900,10.4898,-0.0862,-0.1876,-0.0338,-5.50,-179.63,127.44,0.3911,0.0395,-9.7737,9.7816
2,6,0,1,1,33.381,33381,0.8600,0.5700,-9.5700,9.6255,0.3262,-0.0545,0.0185,-6.63,179.44,127.69,0.4529,0.1094,-9.7469,9.7580
2,6,0,1,1,33.513,33513,1.4200,0.0800,-9.3500,9.4576,0.2487,0.0480,-0.0502,-6.13,176.88,127.63,0.5803,0.1055,-9.6946,9.7125
2,6,0,1,1,33.643,33643,1.0700,0.6800,-9.7600,9.8420,-0.0764,-0.0535,-0.0982,-6.50,176.56,128.13,0.6449,0.1812,-9.7032,9.7263
2,6,0,1,1,33.773,33773,0.5700,1.0800,-8.9100,8.9933,0.3414,0.0524,-0.1996,-6.75,176.06,129.25,0.6350,0.2997,-9.5987,9.6243
2,6,0,1,1,33.946,33946,1.4000,1.3300,-9.6700,9.8609,-0.0960,-0.0349,-0.2574,-5.50,176.13,129.94,0.7358,0.4354,-9.6081,9.6460
2,6,0,1,1,34.077,34077,0.8300,0.9300,-9.7000,9.7798,0.3054,-0.4712,-0.0185,-7.19,174.25,130.56,0.7482,0.5006,-9.6202,9.6622
2,6,0,1,1,34.207,34207,0.7900,1.5900,-9.6800,9.8415,0.2618,0.1789,-0.2116,-8.94,172.06,131.63,0.7537,0.6442,-9.6281,9.6790
2,6,0,1,1,34.341,34341,1.7200,1.8700,-7.9200,8.3176,0.3174,-0.1473,0.2171,-8.13,169.00,130.88,0.8811,0.8057,-9.4030,9.4785
2,6,0,1,1,34.472,34472,-0.5300,2.0900,-7.4100,7.7173,0.1756,-0.1963,-0.4985,-10.06,167.31,132.25,0.6951,0.9749,-9.1404,9.2185
2,6,0,1,1,34.605,34605,1.3900,2.2600,-8.8400,9.2296,-0.2760,0.8716,0.2225,-6.31,167.63,131.69,0.7867,1.1443,-9.1008,9.2061
2,7,0,1,1,34.736,34736,1.5500,3.0400,-9.1900,9.8031,-0.3502,0.0894,0.1669,-3.00,170.94,129.88,0.8873,1.3941,-9.1125,9.2612
2,7,0,1,1,34.866,34866,0.0600,1.4800,-9.3200,9.4370,0.1822,-0.0284,-0.0731,-3.56,170.69,130.13,0.7783,1.4054,-9.1399,9.2800
2,7,0,1,1,35.039,35039,0.3300,1.2700,-9.0800,9.1743,-0.3872,0.3316,0.1265,-1.50,172.19,128.94,0.7192,1.3876,-9.1320,9.2648
2,7,0,1,1,35.169,35169,-0.0300,0.7200,-9.9900,10.0160,-0.2913,0.0556,0.1822,-0.63,174.56,128.00,0.6205,1.2996,-9.2450,9.3565
2,7,0,1,1,35.299,35299,-0.3200,1.1500,-10.0600,10.1306,-0.1298,0.1876,0.0316,0.25,176.56,127.44,0.4965,1.2799,-9.3524,9.4527
2,7,0,1,1,35.429,35429,-0.1700,0.3100,-9.5900,9.5965,0.1484,0.1462,0.0513,1.56,175.81,127.13,0.4087,1.1521,-9.3837,9.4630
2,7,0,1,1,35.559,35559,-0.3600,0.4800,-10.1300,10.1478,-0.3360,-0.0687,-0.0458,1.75,177.06,126.94,0.3074,1.0635,-9.4821,9.5465
2,7,0,1,1,35.689,35689,-0.3200,0.5400,-9.7000,9.7203,-0.1713,-0.0971,-0.0633,0.69,179.06,127.13,0.2247,0.9945,-9.5108,9.5653
2,7,0,1,1,35.819,35819,-0.5900,0.1700,-9.6400,9.6595,-0.1549,0.3447,-0.0676,1.94,-179.88,127.56,0.1174,0.8859,-9.5278,9.5696
2,7,0,1,1,35.949,35949,0.1200,-0.2600,-9.6100,9.6143,-0.1124,-0.1963,0.0731,2.69,-178.94,127.31,0.1177,0.7349,-9.5387,9.5676
2,7,0,1,1,36.122,36122,-0.2100,-0.2400,-9.8800,9.8851,-0.1145,-0.0098,-0.0785,0.94,-177.81,127.31,0.0745,0.6064,-9.5836,9.6031
2,7,0,1,1,36.252,36252,-0.3100,-0.8000,-9.5300,9.5685,-0.0535,0.0545,-0.0284,1.38,-177.38,127.50,0.0239,0.4211,-9.5766,9.5858
2,7,0,1,1,36.383,36383,0.0200,-0.5200,-9.2800,9.2946,-0.2280,-0.2651,-0.1145,0.63,-175.88,127.88,0.0234,0.2971,-9.5375,9.5421
2,7,0,1,1,36.513,36513,-0.5300,-0.6200,-10.0000,10.0332,-0.0513,-0.0491,-0.0993,-1.19,-175.06,128.38,-0.0496,0.1762,-9.5984,9.6002
2,7,0,1,1,36.646,36646,0.4800,-0.4300,-9.9900,10.0108,-0.0731,0.0447,0.0567,-0.50,-174.50,128.44,0.0202,0.0963,-9.6500,9.6505
2,7,0,1,1,36.776,36776,0.0100,-0.5500,-10.5400,10.5543,-0.0415,-0.0905,0.0011,-0.75,-174.00,128.06,0.0189,0.0112,-9.7673,9.7673
2,7,0,1,1,36.911,36911,0.2300,-0.6700,-9.7800,9.8056,0.3676,-0.1702,-0.0447,-1.88,-175.50,128.25,0.0467,-0.0786,-9.7690,9.7694
2,7,0,1,1,37.042,37042,0.3600,-0.6600,-9.5500,9.5795,0.1178,-0.1364,0.1396,-2.94,-177.50,127.69,0.0880,-0.1552,-9.7401,9.7418
2,7,0,1,1,37.215,37215,0.3300,-0.0800,-9.5400,9.5460,0.2018,-0.1996,-0.0535,-4.13,-178.31,127.44,0.1199,-0.1453,-9.7138,9.7156
2,7,0,1,1,37.347,37347,0.4800,-0.0600,-9.9900,10.0017,0.1833,0.0567,0.0535,-4.69,-179.75,127.50,0.1673,-0.1341,-9.7502,9.7525
2,7,0,1,1,37.478,37478,0.7900,-0.4400,-9.3900,9.4334,0.3458,0.0164,-0.0415,-3.75,177.94,127.56,0.2494,-0.1744,-9.7027,9.7075
2,7,0,1,1,37.613,37613,0.8600,0.7500,-10.0800,10.1444,-0.3632,-0.1713,-0.1178,-4.25,178.75,127.88,0.3298,-0.0526,-9.7524,9.7581
2,7,0,1,1,37.744,37744,0.2000,0.5900,-8.9700,8.9916,0.1004,-0.0327,-0.1713,-5.19,179.63,129.56,0.3127,0.0321,-9.6493,9.6544
2,7,0,1,1,37.875,37875,0.8300,0.3000,-10.4600,10.4972,-0.1407,0.0251,-0.2269,-4.56,179.81,130.81,0.3809,0.0674,-9.7561,9.7638
2,7,0,1,1,38.005,38005,0.4600,0.0400,-8.4300,8.4426,0.3600,-0.3054,-0.4451,-6.25,178.44,132.69,0.3913,0.0638,-9.5814,9.5896
2,7,0,1,1,38.135,38135,0.8500,-0.0200,-9.1200,9.1595,-0.3632,0.0393,-0.4331,-6.38,178.44,135.00,0.4518,0.0528,-9.5206,9.5314
2,7,0,1,1,38.308,38308,1.1300,0.5900,-10.1700,10.2496,0.3872,-0.3731,-0.3949,-8.00,179.94,137.06,0.5411,0.1236,-9.6062,9.6222
2,7,0,1,1,38.439,38439,0.4000,-0.2800,-8.7800,8.7936,0.2803,0.0535,0.1222,-9.00,176.19,138.00,0.5225,0.0704,-9.4973,9.5119
2,7,0,1,1,38.569,38569,1.9800,1.0400,-9.4400,9.7013,-0.3109,0.3763,-0.0960,-7.38,177.56,137.69,0.7146,0.1981,-9.4897,9.5187
2,7,0,1,1,38.701,38701,1.9700,0.7200,-10.1300,10.3449,0.2323,-0.0698,0.1320,-6.13,178.13,137.31,0.8800,0.2669,-9.5741,9.6182
2,7,0,1,1,38.832,38832,1.7200,0.5200,-10.1400,10.2980,0.1953,-0.3098,-0.1833,-8.13,176.19,138.13,0.9907,0.3003,-9.6487,9.7041
2,7,0,1,1,38.967,38967,1.0300,1.8200,-8.9600,9.2008,0.3916,-0.0273,0.2269,-9.25,174.63,138.06,0.9959,0.5005,-9.5579,9.6227
2,7,0,1,1,39.098,39098,0.9300,1.6200,-7.7300,7.9525,0.6000,0.2520,0.0142,-7.56,170.69,137.19,0.9872,0.6480,-9.3171,9.3916
2,7,0,1,1,39.229,39229,1.8400,1.0700,-9.5000,9.7355,-0.5498,0.1734,-0.0491,-6.19,170.25,135.81,1.0996,0.7036,-9.3412,9.4319
2,7,0,1,1,39.401,39401,0.4300,1.8400,-8.9700,9.1669,0.2607,0.1058,0.1767,-6.88,173.38,136.63,1.0113,0.8534,-9.2923,9.3860
2,7,0,1,1,39.532,39532,0.7800,1.3000,-8.5000,8.6341,0.0338,0.2160,0.1549,-5.56,171.94,135.94,0.9809,0.9122,-9.1879,9.2850
2,7,0,1,1,39.662,39662,0.5900,1.6200,-9.4600,9.6158,0.0458,0.2891,0.0305,-3.88,172.44,134.25,0.9294,1.0055,-9.2237,9.3248
2,7,0,1,1,39.793,39793,1.1800,0.8300,-10.1900,10.2916,0.0600,0.1342,-0.1582,-2.25,171.94,133.75,0.9624,0.9824,-9.3510,9.4516
2,7,0,1,1,39.923,39923,0.3500,0.9600,-9.5600,9.6145,-0.2214,-0.1473,-0.0207,-2.75,172.56,135.00,0.8817,0.9794,-9.3786,9.4707
2,7,0,1,1,40.055,40055,0.3200,0.8400,-10.0000,10.0403,-0.1331,0.0142,-0.1833,-3.06,174.00,136.19,0.8077,0.9611,-9.4605,9.5434
2,7,0,1,1,40.186,40186,0.9300,1.0400,-9.1600,9.2656,-0.1702,0.0556,-0.0524,-2.19,175.31,136.69,0.8238,0.9715,-9.4209,9.5066
2,7,0,1,1,40.321,40321,-0.3000,0.5200,-10.1600,10.1777,-0.3360,-0.1582,0.1254,-3.19,177.25,136.81,0.6757,0.9120,-9.5183,9.5857
2,7,0,1,1,40.493,40493,0.6300,0.8700,-9.5700,9.6301,-0.1200,0.1516,0.0764,-1.19,-179.38,136.06,0.6697,0.9064,-9.5251,9.5915
2,7,0,1,1,40.623,40623,-0.3500,-0.7700,-9.8600,9.8962,-0.1047,-0.0360,-0.0654,-1.56,-179.75,136.06,0.5353,0.6855,-9.5692,9.6087
2,7,0,1,1,40.753,40753,0.8500,0.0300,-9.7400,9.7771,-0.3480,-0.1996,0.0556,-1.56,-177.31,136.19,0.5768,0.5991,-9.5917,9.6277
2,7,0,1,1,40.883,40883,0.0900,-0.4700,-9.6100,9.6219,-0.0207,0.1058,-0.0415,-2.69,-176.44,136.50,0.5126,0.4583,-9.5941,9.6187
2,7,0,1,1,41.013,41013,0.2300,-1.0600,-9.9200,9.9791,-0.2313,0.0131,0.0262,-1.50,-175.75,136.81,0.4754,0.2582,-9.6371,9.6522
2,7,0,1,1,41.144,41144,0.4000,-0.0200,-10.1500,10.1579,-0.1385,-0.1374,-0.0415,-2.44,-173.94,136.50,0.4655,0.2215,-9.7047,9.7183
2,7,0,1,1,41.274,41274,0.4400,-0.3000,-10.2200,10.2339,0.2563,-0.0349,-0.0491,-2.94,-175.13,137.25,0.4621,0.1528,-9.7726,9.7847
2,7,0,1,1,41.405,41405,-0.3600,-0.6400,-9.9900,10.0170,0.3556,0.0153,-0.0098,-3.94,-177.81,137.19,0.3538,0.0483,-9.8012,9.8077
2,8,0,1,1,41.577,41577,1.1600,-0.2800,-9.1000,9.1779,0.1909,-0.2029,0.0851,-3.81,179.38,136.88,0.4600,0.0051,-9.7088,9.7197
2,8,0,1,1,41.707,41707,0.2800,0.3300,-9.7000,9.7096,0.1604,-0.3545,0.0556,-5.94,178.69,136.94,0.4363,0.0479,-9.7077,9.7176
2,8,0,1,1,41.837,41837,1.1400,0.4700,-9.6800,9.7582,0.1167,0.1767,0.0164,-6.94,177.31,136.69,0.5290,0.1035,-9.7040,9.7190
2,8,0,1,1,41.967,41967,1.2500,0.8700,-9.5900,9.7102,0.3207,-0.2487,0.0033,-6.88,176.13,136.38,0.6240,0.2045,-9.6890,9.7112
2,8,0,1,1,42.097,42097,2.0600,1.3100,-9.3700,9.6828,0.3272,0.2280,0.0633,-6.63,174.19,136.50,0.8133,0.3502,-9.6470,9.6875
2,8,0,1,1,42.227,42227,0.3800,0.3100,-8.5200,8.5341,0.2891,0.0109,-0.0011,-6.25,171.06,136.44,0.7562,0.3449,-9.4985,9.5347
2,8,0,1,1,42.357,42357,1.3900,2.0100,-9.7600,10.0613,-0.3371,-0.0698,-0.0196,-6.13,172.63,136.44,0.8397,0.5643,-9.5329,9.5864
2,8,0,1,1,42.488,42488,0.6800,1.7700,-9.6000,9.7855,0.4211,-0.1200,-0.2934,-7.13,171.56,137.88,0.8186,0.7232,-9.5418,9.6041
2,8,0,1,1,42.661,42661,0.9300,1.4200,-9.4400,9.5914,-0.4331,0.1800,-0.0393,-5.56,171.75,137.81,0.8333,0.8150,-9.5283,9.5994
2,8,0,1,1,42.792,42792,1.1800,2.0800,-10.3100,10.5837,-0.0513,0.2040,0.2989,-4.75,173.75,136.88,0.8790,0.9817,-9.6313,9.7211
2,8,0,1,1,42.922,42922,0.5800,0.6200,-9.8300,9.8666,0.5138,-0.2465,-0.1069,-5.31,170.69,136.31,0.8396,0.9340,-9.6575,9.7388
2,8,0,1,1,43.053,43053,0.9100,1.8200,-8.9000,9.1296,0.0316,0.0185,0.1767,-6.19,169.44,135.31,0.8489,1.0508,-9.5577,9.6527
2,8,0,1,1,43.186,43186,0.8500,2.3300,-8.8900,9.2295,0.0578,-0.0142,0.0960,-6.13,169.31,134.75,0.8490,1.2194,-9.4697,9.5856
2,8,0,1,1,43.319,43319,1.1800,2.1000,-7.4200,7.8012,0.2018,0.1865,0.0916,-5.44,168.06,133.44,0.8926,1.3354,-9.1996,9.3388
2,8,0,1,1,43.450,43450,0.9100,2.3400,-9.3700,9.7005,-0.3905,0.1538,-0.0524,-4.13,169.56,133.50,0.8949,1.4678,-9.2221,9.3809
2,8,0,1,1,43.581,43581,0.2700,1.7000,-9.2900,9.4481,0.2073,-0.0884,0.0469,-4.25,170.38,133.50,0.8126,1.4984,-9.2310,9.3871
2,8,0,1,1,43.753,43753,0.2700,1.1300,-8.9900,9.0648,0.0993,0.5225,0.1833,-2.69,167.44,130.25,0.7411,1.4498,-9.1993,9.3422
2,8,0,1,1,43.883,43883,1.2200,1.7200,-10.1300,10.3472,-0.6610,0.3229,0.1124,0.38,170.06,128.31,0.8042,1.4854,-9.3219,9.4737
2,8,0,1,1,44.013,44013,0.8800,2.1000,-10.2400,10.4901,-0.1953,-0.4854,-0.1462,-0.63,174.00,128.63,0.8142,1.5664,-9.4429,9.6065
2,8,0,1,1,44.143,44143,-0.0900,0.8300,-10.0700,10.1045,0.0491,-0.1789,-0.1189,-3.31,173.38,129.94,0.6950,1.4694,-9.5255,9.6632
2,8,0,1,1,44.273,44273,0.2500,1.2200,-8.9300,9.0164,0.0938,-0.1669,-0.2040,-4.06,173.06,131.56,0.6364,1.4365,-9.4471,9.5768
2,8,0,1,1,44.403,44403,0.0700,0.7700,-10.0700,10.0996,-0.1145,0.0185,0.0785,-4.56,172.69,132.06,0.5618,1.3487,-9.5291,9.6405
2,8,0,1,1,44.533,44533,0.9600,1.5700,-9.1800,9.3626,-0.0349,0.0545,0.0698,-3.94,173.50,131.44,0.6142,1.3779,-9.4831,9.6024
2,8,0,1,1,44.664,44664,0.3400,0.8100,-9.8700,9.9090,-0.1025,-0.0251,0.0633,-4.38,173.63,131.06,0.5781,1.3030,-9.5341,9.6401
2,8,0,1,1,44.836,44836,0.4000,0.7500,-9.2800,9.3188,-0.1200,-0.0055,-0.0284,-4.44,175.00,131.38,0.5546,1.2301,-9.5006,9.5960
2,8,0,1,1,44.966,44966,0.6100,0.1700,-9.5100,9.5311,-0.3742,0.0774,0.0589,-4.13,176.94,131.38,0.5619,1.0904,-9.5019,9.5807
2,8,0,1,1,45.096,45096,0.8200,0.2300,-10.2900,10.3252,-0.3240,0.0665,-0.0382,-3.38,179.75,131.44,0.5959,0.9771,-9.6057,9.6737
2,8,0,1,1,45.226,45226,0.8400,0.0000,-10.1600,10.1947,-0.0578,-0.1582,-0.0654,-3.94,-179.06,131.75,0.6281,0.8483,-9.6788,9.7361
2,8,0,1,1,45.356,45356,0.3900,-0.0400,-9.9400,9.9477,0.0393,-0.0316,0.0251,-4.81,-179.00,132.00,0.5967,0.7313,-9.7132,9.7589
2,8,0,1,1,45.486,45486,1.1300,-0.0500,-10.0200,10.0836,0.1811,-0.0044,-0.0447,-4.75,-179.94,132.38,0.6670,0.6283,-9.7536,9.7966
2,8,0,1,1,45.616,45616,0.8400,0.4300,-9.8900,9.9349,0.0687,-0.0927,0.0578,-5.06,179.06,132.38,0.6898,0.6022,-9.7716,9.8144
2,8,0,1,1,45.747,45747,0.8000,0.3100,-9.7000,9.7379,0.1942,0.0055,0.0153,-5.19,177.88,132.38,0.7043,0.5637,-9.7622,9.8037
2,8,0,1,1,45.920,45920,0.8700,0.4200,-9.7600,9.8077,-0.0164,0.0065,-0.0273,-5.19,177.06,132.69,0.7261,0.5447,-9.7619,9.8040
2,8,0,1,1,46.051,46051,1.4800,0.9100,-9.3900,9.5494,0.2727,-0.2040,0.0000,-5.25,176.44,133.06,0.8255,0.5929,-9.7129,9.7659
2,8,0,1,1,46.181,46181,0.7100,0.4900,-9.1400,9.1806,0.1789,-0.2596,0.0251,-6.75,174.44,133.19,0.8103,0.5793,-9.6374,9.6887
2,8,0,1,1,46.312,46312,0.8100,1.1700,-8.9800,9.0921,0.1331,0.0993,0.0142,-6.63,174.19,132.88,0.8102,0.6572,-9.5508,9.6076
2,8,0,1,1,46.444,46444,1.4100,1.4200,-9.4900,9.6987,0.1767,-0.0098,0.0360,-5.94,173.00,132.88,0.8893,0.7577,-9.5427,9.6140
2,8,0,1,1,46.578,46578,0.8000,1.2300,-9.5100,9.6225,0.1429,0.0807,0.0927,-6.06,171.13,132.88,0.8775,0.8199,-9.5384,9.6137
2,8,0,1,1,46.708,46708,1.6100,2.6500,-8.7100,9.2455,0.0164,0.1702,-0.2291,-5.75,172.38,132.75,0.9740,1.0611,-9.4293,9.5386
2,8,0,1,1,46.840,46840,0.8500,1.8600,-8.5800,8.8203,0.5858,-0.2073,0.0676,-6.13,168.38,132.56,0.9577,1.1664,-9.3174,9.4388
2,8,0,1,1,47.013,47013,0.9300,2.4000,-10.1600,10.4810,-0.1025,0.2367,-0.0556,-6.63,167.06,132.50,0.9540,1.3289,-9.4284,9.5693
2,8,0,1,1,47.143,47143,0.9200,2.4000,-8.3200,8.7080,0.2509,-0.1396,-0.1309,-7.19,166.81,132.94,0.9496,1.4701,-9.2823,9.4459
2,8,0,1,1,47.274,47274,0.7100,1.8200,-8.5100,8.7314,-0.2913,0.2923,0.0480,-6.75,166.63,132.75,0.9180,1.5162,-9.1806,9.3501
2,9,0,1,1,47.405,47405,1.5500,2.5600,-9.2400,9.7126,-0.2323,0.0065,0.0229,-5.44,169.31,132.00,1.0013,1.6537,-9.1884,9.3896
2,9,0,1,1,47.535,47535,0.4100,1.7100,-9.5600,9.7204,-0.0142,0.0338,0.0196,-5.94,169.88,131.88,0.9234,1.6611,-9.2374,9.4308
2,9,0,1,1,47.666,47666,1.1200,1.6500,-9.4300,9.6386,-0.1374,0.1767,0.0927,-4.81,170.81,131.63,0.9493,1.6597,-9.2627,9.4580
2,9,0,1,1,47.799,47799,0.4300,1.3100,-9.2700,9.3720,-0.0916,0.0709,0.0000,-4.13,171.50,131.13,0.8808,1.6136,-9.2637,9.4443
2,9,0,1,1,47.932,47932,0.4400,1.0900,-9.5100,9.5824,-0.4167,-0.0251,0.1374,-3.94,173.81,131.06,0.8227,1.5446,-9.2962,9.4595
2,9,0,1,1,48.105,48105,0.5000,0.7300,-9.5200,9.5610,0.0065,0.1200,0.0796,-3.13,175.63,130.38,0.7802,1.4373,-9.3257,9.4680
2,9,0,1,1,48.235,48235,0.1200,0.3000,-9.6600,9.6654,-0.2334,0.0349,-0.1876,-2.69,176.06,130.31,0.6932,1.2874,-9.3697,9.4831
2,9,0,1,1,48.365,48365,0.5100,0.0400,-10.0400,10.0530,-0.5465,-0.0458,0.0338,-3.25,179.00,130.75,0.6691,1.1230,-9.4580,9.5479
2,9,0,1,1,48.495,48495,0.5300,0.1700,-10.3500,10.3650,-0.2880,0.0480,-0.0502,-3.25,-177.94,131.06,0.6507,0.9974,-9.5756,9.6494
2,9,0,1,1,48.625,48625,0.8900,-0.4400,-10.6500,10.6962,0.0633,-0.1014,-0.0273,-3.13,-177.13,131.19,0.6823,0.8080,-9.7172,9.7745
2,9,0,1,1,48.756,48756,0.5700,-0.5700,-9.3100,9.3448,0.1876,-0.3491,0.0676,-5.19,-178.56,131.25,0.6675,0.6264,-9.6635,9.7068
2,9,0,1,1,48.887,48887,1.1000,-0.2300,-9.9900,10.0530,-0.0065,0.0774,0.0502,-5.88,-178.50,130.81,0.7245,0.5136,-9.7065,9.7471
2,9,0,1,1,49.017,49017,1.3400,0.0500,-10.4100,10.4960,-0.0862,0.0971,0.0916,-5.00,-178.31,130.69,0.8056,0.4525,-9.7992,9.8427
2,9,0,1,1,49.191,49191,0.5800,-0.4200,-9.7500,9.7763,0.2116,-0.0796,-0.1429,-5.81,-179.81,130.81,0.7759,0.3375,-9.7927,9.8292
2,9,0,1,1,49.322,49322,1.2500,0.2400,-9.5500,9.6344,0.1909,-0.0371,-0.0884,-5.63,179.38,131.38,0.8383,0.3247,-9.7608,9.8021
2,9,0,1,1,49.457,49457,1.0700,0.2400,-10.0600,10.1196,0.1331,-0.0273,-0.0545,-5.88,177.63,131.56,0.8689,0.3135,-9.8002,9.8436
2,9,0,1,1,49.588,49588,1.0500,0.8500,-9.4800,9.5758,0.3120,-0.1244,0.0458,-6.25,176.06,132.00,0.8927,0.3842,-9.7580,9.8063
2,9,0,1,1,49.718,49718,1.0500,1.3100,-10.2500,10.3866,0.0840,-0.0360,-0.1876,-6.69,175.00,132.13,0.9135,0.5062,-9.8228,9.8782
2,9,0,1,1,49.849,49849,0.6500,1.0900,-10.0400,10.1199,0.2683,0.0218,-0.0273,-7.00,173.38,132.19,0.8787,0.5831,-9.8514,9.9077
2,9,0,1,1,49.979,49979,2.1200,1.4300,-9.4400,9.7802,0.1625,0.0993,0.0644,-6.56,171.94,132.25,1.0423,0.6947,-9.7972,9.8770
2,9,0,1,1,50.110,50110,1.1600,2.0700,-7.0700,7.4576,0.7483,-0.4189,-0.1833,-8.00,168.88,132.50,1.0578,0.8760,-9.4378,9.5373
2,9,0,1,1,50.282,50282,1.7900,1.9000,-8.2400,8.6436,-0.3120,0.2553,0.0960,-7.88,165.56,132.44,1.1543,1.0109,-9.2800,9.4060
2,9,0,1,1,50.413,50413,2.1600,2.9400,-10.5200,11.1346,-0.2640,-0.0098,-0.0011,-7.56,168.56,132.44,1.2868,1.2651,-9.4434,9.6143
2,9,0,1,1,50.543,50543,1.0500,2.5500,-8.1600,8.6134,0.3087,-0.1396,0.1298,-8.00,168.25,132.13,1.2556,1.4344,-9.2743,9.4682
2,9,0,1,1,50.674,50674,0.9100,1.1800,-8.6700,8.7971,-0.0305,0.2825,0.0240,-7.75,166.19,132.19,1.2101,1.4009,-9.1947,9.3791
2,9,0,1,1,50.804,50804,1.5400,2.7200,-9.0900,9.6124,-0.2607,0.1342,0.0447,-5.63,168.56,131.69,1.2535,1.5747,-9.1809,9.3989
2,9,0,1,1,50.936,50936,1.1900,1.7900,-9.0100,9.2628,-0.0044,-0.1353,-0.0273,-6.38,168.44,131.38,1.2452,1.6031,-9.1583,9.3806
2,9,0,1,1,51.066,51066,0.5400,1.9200,-8.8700,9.0915,-0.4047,0.2465,0.1102,-5.50,170.44,131.19,1.1523,1.6448,-9.1204,9.3388
2,10,0,1,1,51.198,51198,0.9300,1.3800,-9.4200,9.5659,0.0578,-0.0404,0.1931,-5.06,171.75,130.44,1.1230,1.6099,-9.1598,9.3678
2,10,0,1,1,51.371,51371,0.8400,0.7900,-9.3300,9.4010,-0.2618,0.1865,0.1265,-4.75,172.25,129.69,1.0857,1.5019,-9.1823,9.3674
2,10,0,1,1,51.503,51503,0.3900,0.5300,-10.7400,10.7601,-0.5334,0.0447,0.0022,-4.06,175.81,129.38,0.9940,1.3738,-9.3875,9.5395
2,10,0,1,1,51.634,51634,0.1600,1.2300,-10.3400,10.4141,-0.2509,0.1418,-0.0436,-2.94,178.88,129.56,0.8841,1.3549,-9.5130,9.6496
2,10,0,1,1,51.764,51764,0.9600,-0.4500,-9.8700,9.9268,-0.1549,-0.3294,0.0524,-4.19,179.13,129.50,0.8941,1.1170,-9.5601,9.6666
2,10,0,1,1,51.895,51895,-0.1600,0.1800,-9.6400,9.6430,0.0284,0.1614,-0.1636,-5.06,-179.69,130.13,0.7552,0.9936,-9.5706,9.6516
2,10,0,1,1,52.025,52025,1.2500,-0.3800,-9.7200,9.8074,-0.0273,0.0382,0.0327,-2.69,-179.88,130.25,0.8204,0.8126,-9.5903,9.6596
2,10,0,1,1,52.155,52155,-0.0200,0.0900,-10.1200,10.1204,-0.2007,-0.0753,0.2389,-4.38,-178.81,129.06,0.7097,0.7173,-9.6601,9.7127
2,10,0,1,1,52.286,52286,0.7800,-0.3000,-10.4500,10.4834,0.1560,0.0415,0.0644,-4.00,-179.25,129.06,0.7189,0.5833,-9.7642,9.8080
2,10,0,1,1,52.459,52459,0.6700,0.3000,-9.9200,9.9471,0.2771,-0.0905,0.0207,-4.13,179.19,128.25,0.7125,0.5460,-9.7847,9.8258
2,10,0,1,1,52.590,52590,0.5000,0.5500,-9.2400,9.2698,0.2182,0.0709,-0.2051,-4.00,177.56,128.69,0.6845,0.5465,-9.7129,9.7524
2,10,0,1,1,52.721,52721,0.2200,0.3100,-9.9600,9.9673,-0.0687,-0.1800,0.0524,-5.25,176.63,128.75,0.6233,0.5153,-9.7455,9.7790
2,10,0,1,1,52.854,52854,0.7700,0.3500,-10.1000,10.1354,0.1211,-0.0458,-0.0884,-5.94,176.75,129.00,0.6426,0.4935,-9.7922,9.8257
2,10,0,1,1,52.985,52985,1.4600,0.5600,-9.6200,9.7463,0.0076,0.2847,-0.0764,-4.69,176.19,129.50,0.7503,0.5023,-9.7695,9.8112
2,10,0,1,1,53.118,53118,0.1800,0.7100,-11.0700,11.0942,-0.0218,0.0676,-0.1494,-4.00,175.88,130.75,0.6752,0.5297,-9.9409,9.9779
2,10,0,1,1,53.248,53248,0.7200,0.5500,-9.5700,9.6128,0.1156,-0.5618,-0.2760,-5.19,175.00,131.81,0.6811,0.5323,-9.8920,9.9297
2,10,0,1,1,53.379,53379,0.3700,1.1700,-9.3000,9.3806,0.0142,0.0916,-0.0665,-8.19,174.69,133.19,0.6401,0.6164,-9.8140,9.8541
2,10,0,1,1,53.552,53552,2.7800,1.8600,-9.6400,10.2038,0.7265,0.1080,-0.1833,-3.69,171.44,133.31,0.9221,0.7803,-9.7911,9.8653
2,10,0,1,1,53.683,53683,-0.6300,1.4700,-9.6000,9.7323,0.3360,-0.4767,-0.1429,-6.75,166.75,134.13,0.7175,0.8711,-9.7659,9.8309
2,10,0,1,1,53.813,53813,1.6100,2.5000,-8.6800,9.1752,0.2454,0.3305,0.1920,-6.19,164.56,134.44,0.8351,1.0858,-9.6228,9.7198
2,10,0,1,1,53.947,53947,1.1100,3.1200,-7.6300,8.3177,0.2782,-0.1484,0.0764,-6.31,163.13,132.94,0.8714,1.3538,-9.3602,9.4977
2,10,0,1,1,54.077,54077,0.6400,2.6500,-9.0300,9.4325,-0.3349,0.0589,-0.1309,-6.50,162.31,133.31,0.8409,1.5246,-9.3167,9.4780
2,10,0,1,1,54.211,54211,1.4600,3.5600,-8.7800,9.5861,-0.2498,-0.0905,0.3567,-6.00,165.44,132.81,0.9225,1.7929,-9.2460,9.4633
2,10,0,1,1,54.342,54342,0.3000,2.1600,-9.3200,9.5717,0.0447,0.1320,0.0731,-6.44,165.31,132.25,0.8404,1.8412,-9.2557,9.4744
2,10,0,1,1,54.472,54472,1.4200,1.9900,-8.8500,9.1814,-0.2454,0.4636,0.2705,-4.06,166.19,131.00,0.9168,1.8608,-9.2023,9.4332
2,10,0,1,1,54.645,54645,1.0600,1.8700,-8.9100,9.1656,-0.3436,-0.0862,0.2465,-3.19,169.00,129.44,0.9357,1.8620,-9.1637,9.3977
2,10,0,1,1,54.776,54776,0.2100,1.4800,-10.5200,10.6257,-0.3611,-0.0676,0.0185,-3.88,171.75,128.94,0.8401,1.8117,-9.3425,9.5535
2,10,0,1,1,54.906,54906,0.4100,1.0400,-9.6800,9.7443,-0.0894,0.0327,-0.0436,-4.00,173.50,128.25,0.7834,1.7100,-9.3869,9.5735
2,10,0,1,1,55.037,55037,-0.4200,0.0900,-9.3300,9.3399,-0.1713,0.1974,-0.0764,-3.63,173.94,128.06,0.6248,1.4965,-9.3794,9.5186
2,10,0,1,1,55.167,55167,1.1300,-0.2000,-10.3000,10.3637,-0.8934,0.4003,0.0676,-0.38,178.25,127.44,0.6914,1.2730,-9.5007,9.6105
2,10,0,1,1,55.301,55301,-0.2800,-0.0500,-10.3000,10.3039,-0.3698,-0.1985,-0.0349,-0.31,-176.94,127.94,0.5634,1.0986,-9.6061,9.6851
2,10,0,1,1,55.431,55431,0.5600,-0.4900,-10.7400,10.7657,-0.2618,-0.2738,0.1614,-1.31,-174.63,127.25,0.5629,0.8893,-9.7555,9.8121
2,10,0,1,1,55.565,55565,-0.6000,-0.5000,-10.0300,10.0604,0.7723,-0.3840,0.5814,-3.88,-176.56,124.19,0.4097,0.7062,-9.7917,9.8256
2,10,0,1,1,55.738,55738,0.5200,1.0900,-10.5700,10.6388,0.9359,-0.2018,0.2607,-6.94,175.94,118.38,0.4242,0.7568,-9.8942,9.9322
2,10,0,1,1,55.868,55868,-0.4600,2.1300,-9.6600,9.9027,1.7399,-0.3905,0.2793,-9.50,165.81,116.81,0.3077,0.9377,-9.8634,9.9126
2,10,0,1,1,55.998,55998,1.3500,2.0700,-9.2600,9.5841,1.3494,-0.0545,0.2367,-11.00,154.75,113.56,0.4451,1.0870,-9.7839,9.8541
2,10,0,1,1,56.128,56128,2.1000,5.5000,-7.8100,9.7804,1.5272,-0.7003,0.4167,-14.81,145.56,110.19,0.6631,1.6685,-9.5238,9.6915
2,10,0,1,1,56.258,56258,2.7800,4.6400,-5.3600,7.6150,2.1348,-0.7396,0.1189,-20.69,130.06,339.81,0.9421,2.0600,-8.9751,9.2565
2,10,0,1,1,56.388,56388,4.0500,8.0200,-3.4300,9.6171,1.4759,-0.2182,0.6196,-25.50,117.63,339.00,1.3516,2.8454,-8.2444,8.8257
2,10,0,1,1,56.518,56518,4.6800,8.2600,-2.3100,9.7707,2.0813,-0.7243,0.5116,-29.44,104.13,336.88,1.7902,3.5589,-7.4624,8.4592
2,10,0,1,1,56.649,56649,4.1400,7.5400,-0.2800,8.6064,2.1249,-0.8519,0.3251,-32.44,85.00,336.44,2.0999,4.0835,-6.5159,7.9713
2,10,0,1,1,56.821,56821,5.4900,5.6600,4.1200,8.8966,1.2435,-0.5814,0.8421,-37.25,62.56,340.00,2.5466,4.2913,-5.1144,7.1454
2,10,0,1,1,56.951,56951,5.8800,6.2600,5.7300,10.3245,0.6905,-0.1876,-0.3600,-36.50,54.50,339.06,2.9859,4.5507,-3.6854,6.5731
2,10,0,1,1,57.081,57081,5.9400,7.2000,5.6600,10.9160,1.6297,-0.3971,0.4178,-35.31,45.75,336.94,3.3751,4.8998,-2.4539,6.4359
