participant,rep,equipment_code,exercise_code,quality_code,timestamp,timestamp_ms,accelX,accelY,accelZ,accelMag,gyroX,gyroY,gyroZ,roll,pitch,yaw,filteredX,filteredY,filteredZ,filteredMag
2,1,0,1,1,00.000,0,0.6600,0.3600,-9.3800,9.4101,0.0251,-0.1091,-0.0284,-4.13,178.69,150.13,0.6940,0.1188,-9.4650,9.4912
2,1,0,1,1,00.130,130,0.5400,0.0900,-9.5600,9.5757,-0.0295,0.0393,-0.0218,-4.31,178.31,150.19,0.6737,0.1150,-9.4775,9.5021
2,1,0,1,1,00.260,260,0.8100,0.3700,-9.4300,9.4720,-0.0480,0.0589,0.0262,-3.75,178.81,150.25,0.6917,0.1486,-9.4713,9.4976
2,1,0,1,1,00.391,391,0.7100,0.0200,-9.4200,9.4467,0.0207,-0.0185,-0.0131,-3.81,178.88,150.19,0.6941,0.1317,-9.4645,9.4908
2,1,0,1,1,00.564,564,0.6000,0.2200,-9.5600,9.5813,-0.0480,0.0284,0.0207,-3.94,179.38,150.31,0.6817,0.1433,-9.4771,9.5027
2,1,0,1,1,00.694,694,0.7400,0.0200,-9.8200,9.8479,-0.0404,-0.0273,-0.0120,-3.81,179.56,150.19,0.6894,0.1271,-9.5223,9.5480
2,1,0,1,1,00.825,825,0.4500,0.1700,-9.5600,9.5721,0.0371,-0.0469,-0.0044,-4.00,179.63,150.31,0.6578,0.1327,-9.5272,9.5509
2,1,0,1,1,00.955,955,0.8400,-0.1600,-10.1400,10.1760,-0.1658,0.2509,0.0087,-2.88,-179.88,150.19,0.6818,0.0941,-9.6080,9.6326
2,1,0,1,1,01.085,1085,0.7400,0.2300,-10.0800,10.1097,0.0207,-0.2105,0.0589,-3.00,-179.00,149.75,0.6895,0.1120,-9.6702,9.6954
2,1,0,1,1,01.215,1215,1.5500,0.2100,-10.5700,10.6851,0.1014,-0.0273,0.0044,-3.06,179.50,149.88,0.8029,0.1250,-9.7888,9.8224
2,1,0,1,1,01.345,1345,0.6300,-0.5000,-9.4600,9.4941,0.4451,-0.2138,-0.0415,-4.31,177.38,149.88,0.7801,0.0426,-9.7454,9.7767
2,1,0,1,1,01.475,1475,0.6500,0.8700,-9.9700,10.0290,0.0207,0.1909,0.0142,-4.63,175.94,149.94,0.7630,0.1516,-9.7750,9.8059
2,1,0,1,1,01.663,1663,1.6400,-0.0700,-10.5700,10.6967,0.0971,0.1156,0.0316,-4.13,174.19,149.63,0.8785,0.1224,-9.8798,9.9195
2,1,0,1,1,01.795,1795,0.4000,1.4800,-9.1000,9.2282,0.6654,0.3720,-0.1058,-3.25,171.63,149.69,0.8155,0.3013,-9.7770,9.8156
2,1,0,1,1,01.925,1925,0.0000,1.6500,-8.4700,8.6292,-0.1953,-0.3698,0.0284,-3.38,171.00,149.38,0.7080,0.4790,-9.6048,9.6428
2,1,0,1,1,02.071,2071,-0.8300,2.0500,-9.3400,9.5983,0.1756,0.4243,0.0567,-0.88,170.81,150.00,0.5053,0.6861,-9.5699,9.6078
2,1,0,1,1,02.206,2206,1.2100,1.7300,-7.8800,8.1579,0.5018,-0.3207,-0.2967,-1.38,168.19,149.38,0.5982,0.8236,-9.3472,9.4025
2,1,0,1,1,02.337,2337,-1.2400,2.3000,-7.6500,8.0839,0.0207,-0.1145,0.2400,-2.75,166.75,149.94,0.3560,1.0182,-9.1236,9.1871
2,1,0,1,1,02.467,2467,0.2900,2.0100,-8.1800,8.4283,0.3742,-0.0818,-0.0109,-1.69,164.56,150.81,0.3473,1.1489,-8.9992,9.0789
2,1,0,1,1,02.598,2598,1.2300,2.5600,-9.4500,9.8676,-0.0840,-0.2203,-0.4178,-2.81,164.63,151.75,0.4636,1.3348,-9.0586,9.1682
2,1,0,1,1,02.770,2770,0.7800,2.0100,-8.1600,8.4400,-0.0600,0.0425,0.1800,-3.13,164.75,152.88,0.5053,1.4238,-8.9402,9.0670
2,1,0,1,1,02.900,2900,-0.0500,2.8400,-8.8800,9.3232,-0.0153,-0.0567,-0.0251,-4.00,165.88,153.31,0.4321,1.6104,-8.9323,9.0866
2,1,0,1,1,03.030,3030,0.3000,2.2400,-9.2600,9.5318,-0.0022,0.0709,0.0971,-3.94,165.81,153.19,0.4147,1.6934,-8.9755,9.1432
2,1,0,1,1,03.160,3160,2.2100,1.6600,-10.1300,10.5003,0.0011,0.2258,0.1756,-2.81,165.50,151.44,0.6513,1.6890,-9.1276,9.3054
2,1,0,1,1,03.290,3290,-0.2900,2.4500,-7.4800,7.8764,0.0229,-0.0273,0.0469,-3.25,166.38,151.50,0.5272,1.7893,-8.9105,9.1036
2,1,0,1,1,03.420,3420,0.5600,1.5800,-8.9100,9.0663,-0.3218,0.2334,0.1560,-2.00,167.00,150.94,0.5316,1.7617,-8.9104,9.0984
2,2,0,1,1,03.550,3550,1.1900,1.6400,-9.6700,9.8800,-0.6185,-0.3109,0.0665,-1.81,170.56,150.69,0.6183,1.7456,-9.0105,9.1989
2,2,0,1,1,03.700,3700,-0.5200,2.0700,-9.7400,9.9711,0.1713,0.0469,0.2553,-3.06,171.88,150.13,0.4683,1.7884,-9.1066,9.2924
2,2,0,1,1,03.873,3873,0.0200,1.5100,-9.1600,9.2836,-0.0535,0.2836,-0.0262,-1.13,171.25,149.56,0.4092,1.7517,-9.1137,9.2895
2,2,0,1,1,04.003,4003,1.1500,0.6900,-9.9800,10.0697,-0.3251,-0.2520,0.0382,-1.38,172.38,149.38,0.5069,1.6118,-9.2278,9.3812
2,2,0,1,1,04.133,4133,0.4700,1.0900,-10.1900,10.2589,-0.3043,0.1211,-0.1200,-1.88,174.94,150.13,0.5020,1.5430,-9.3546,9.4943
2,2,0,1,1,04.263,4263,0.1800,0.5200,-9.7600,9.7755,-0.2073,0.0229,-0.0076,-1.25,176.69,150.50,0.4596,1.4082,-9.4080,9.5239
2,2,0,1,1,04.393,4393,0.9900,1.0100,-9.5700,9.6739,-0.2225,-0.4603,0.2116,-4.44,179.44,150.38,0.5295,1.3558,-9.4294,9.5411
2,2,0,1,1,04.523,4523,-0.3000,-0.1800,-8.1600,8.1675,0.5149,0.5596,-0.0011,-3.88,177.19,150.13,0.4202,1.1534,-9.2621,9.3431
2,2,0,1,1,04.654,4654,2.2000,-0.2600,-11.1300,11.3483,-0.8388,-0.2978,0.0873,-1.88,178.69,149.75,0.6547,0.9671,-9.5083,9.5797
2,2,0,1,1,04.784,4784,-0.2300,1.2900,-9.7900,9.8773,0.1276,-0.2989,-0.0709,-5.56,-177.31,150.13,0.5381,1.0097,-9.5454,9.6137
2,2,0,1,1,04.957,4957,1.5700,-0.8300,-10.0800,10.2352,0.1789,0.1887,0.0415,-4.13,177.56,150.13,0.6741,0.7673,-9.6158,9.6699
2,2,0,1,1,05.088,5088,0.4700,0.8200,-9.0400,9.0893,-0.0840,-0.0753,-0.1287,-4.44,178.81,150.50,0.6472,0.7742,-9.5399,9.5932
2,2,0,1,1,05.219,5219,1.0800,0.1600,-10.3300,10.3875,0.3611,-0.0262,-0.0862,-4.31,176.94,151.06,0.7042,0.6933,-9.6441,9.6946
2,2,0,1,1,05.349,5349,0.3100,0.6200,-9.1200,9.1463,0.2127,0.1211,0.0284,-4.94,175.13,151.69,0.6523,0.6836,-9.5750,9.6215
2,2,0,1,1,05.480,5480,0.3600,0.9100,-9.1500,9.2022,-0.0993,-0.1385,0.0164,-4.94,175.13,151.19,0.6138,0.7134,-9.5190,9.5654
2,2,0,1,1,05.612,5612,0.4000,1.1300,-9.5700,9.6448,0.0665,0.2062,0.0589,-4.63,175.31,150.75,0.5856,0.7683,-9.5257,9.5746
2,2,0,1,1,05.746,5746,0.6500,0.8300,-10.0300,10.0853,0.1854,0.0567,0.0709,-3.44,173.81,150.25,0.5941,0.7765,-9.5922,9.6419
2,2,0,1,1,05.877,5877,0.6900,0.6500,-9.8100,9.8557,0.1953,-0.0218,0.0185,-3.63,172.56,149.94,0.6067,0.7598,-9.6209,9.6699
2,2,0,1,1,06.050,6050,0.7900,1.3400,-9.5400,9.6660,0.0229,0.1124,-0.2116,-2.50,171.56,150.56,0.6309,0.8363,-9.6102,9.6671
2,2,0,1,1,06.181,6181,-0.0700,1.5600,-9.7300,9.8545,0.0829,-0.1058,-0.0338,-2.44,171.19,151.50,0.5385,0.9316,-9.6260,9.6860
2,2,0,1,1,06.311,6311,1.4100,1.9700,-8.7900,9.1177,0.3818,0.0578,-0.1091,-2.19,169.06,152.13,0.6534,1.0685,-9.5158,9.5979
2,2,0,1,1,06.442,6442,-0.2300,2.0000,-8.6500,8.8812,0.3283,-0.1145,0.0436,-2.81,166.06,153.06,0.5370,1.1912,-9.4017,9.4921
2,2,0,1,1,06.573,6573,-0.2700,3.0800,-8.0600,8.6327,0.1244,-0.3491,-0.6120,-3.63,165.44,153.75,0.4306,1.4401,-9.2249,9.3466
2,2,0,1,1,06.703,6703,0.9100,3.0400,-6.4600,7.1973,0.2618,-0.2760,-0.4189,-3.75,162.63,156.56,0.4938,1.6509,-8.8606,9.0266
2,3,0,1,1,06.834,6834,-1.2600,2.7600,-9.5700,10.0394,-0.3523,-0.2498,-0.6501,-3.88,162.00,162.63,0.2627,1.7971,-8.9541,9.1364
2,3,0,1,1,06.965,6965,1.3000,4.0200,-8.8100,9.7707,0.0567,0.0327,0.7145,-5.44,164.75,160.50,0.3994,2.0900,-8.9351,9.1850
2,3,0,1,1,07.138,7138,1.5000,1.6400,-9.5000,9.7565,-0.0589,0.5814,0.4854,-3.56,161.63,156.63,0.5444,2.0307,-9.0095,9.2516
2,3,0,1,1,07.271,7271,1.7000,3.5500,-8.8900,9.7224,-0.1254,0.2356,0.0295,-0.81,164.13,154.31,0.6967,2.2309,-8.9938,9.2925
2,3,0,1,1,07.402,7402,0.5500,2.1800,-9.0100,9.2863,0.1124,-0.0709,0.1724,-0.94,162.56,154.25,0.6774,2.2242,-8.9959,9.2915
2,3,0,1,1,07.532,7532,1.0400,3.5100,-9.0600,9.7717,-0.1494,-0.0447,-0.3338,-0.81,163.56,155.06,0.7251,2.3936,-9.0044,9.3453
2,3,0,1,1,07.663,7663,-0.7200,2.3100,-8.7100,9.0398,0.1244,0.1244,0.2214,-0.94,162.50,156.25,0.5347,2.3826,-8.9656,9.2922
2,3,0,1,1,07.793,7793,0.7200,2.8400,-9.5100,9.9511,-0.4167,-0.0567,0.0862,-0.94,164.44,154.75,0.5591,2.4429,-9.0373,9.3783
2,3,0,1,1,07.924,7924,0.1000,2.4000,-9.1000,9.4117,0.0196,0.0960,0.3065,-1.06,165.38,153.38,0.4986,2.4372,-9.0456,9.3814
2,3,0,1,1,08.054,8054,-0.0100,1.7500,-8.9700,9.1391,-0.0807,0.2171,0.2509,-0.44,165.69,151.13,0.4316,2.3467,-9.0356,9.3453
2,3,0,1,1,08.227,8227,0.0500,2.0800,-10.4400,10.6453,-0.3163,0.1134,0.1451,1.19,167.25,150.38,0.3813,2.3115,-9.2207,9.5136
2,3,0,1,1,08.357,8357,0.1100,1.5600,-9.6700,9.7956,-0.4636,-0.0894,-0.0175,0.44,170.19,149.50,0.3456,2.2125,-9.2799,9.5462
2,3,0,1,1,08.487,8487,1.3700,1.1500,-12.8900,13.0135,-0.6294,-0.0611,-0.0785,0.56,173.63,150.38,0.4806,2.0725,-9.7556,9.9849
2,3,0,1,1,08.617,8617,-0.5500,1.3500,-7.6000,7.7385,0.3578,-0.2989,-0.1462,-2.13,175.19,150.63,0.3448,1.9773,-9.4716,9.6819
2,3,0,1,1,08.747,8747,0.2500,0.0300,-9.4200,9.4234,-0.1854,0.1265,-0.0589,-1.69,173.50,150.94,0.3323,1.7207,-9.4648,9.6256
2,3,0,1,1,08.877,8877,0.8400,1.3000,-9.1800,9.3096,-0.5116,-0.0840,-0.0055,-0.88,178.00,150.94,0.3992,1.6652,-9.4272,9.5815
2,3,0,1,1,09.007,9007,-0.4400,0.7300,-12.4500,12.4791,0.0109,-0.0480,0.0415,-2.13,179.25,150.38,0.2886,1.5420,-9.8256,9.9500
2,3,0,1,1,09.137,9137,1.2400,0.3200,-7.3000,7.4115,0.5127,0.0502,-0.0393,-1.06,176.81,150.63,0.4140,1.3810,-9.4928,9.6016
2,3,0,1,1,09.310,9310,0.3100,1.6200,-10.1000,10.2338,0.0164,-0.4058,-0.1909,-4.69,177.88,150.75,0.4003,1.4125,-9.5728,9.6847
2,3,0,1,1,09.440,9440,0.2900,0.8900,-9.0900,9.1381,0.7396,0.4832,0.0480,-4.00,173.94,151.44,0.3857,1.3436,-9.5092,9.6114
2,3,0,1,1,09.570,9570,2.8100,0.7600,-9.1500,9.6019,0.3163,-0.0185,0.1538,-2.00,169.69,150.94,0.7052,1.2667,-9.4618,9.5723
2,3,0,1,1,09.700,9700,1.0600,1.8900,-8.9300,9.1892,-0.0142,-0.3218,0.0371,-4.44,169.50,151.75,0.7519,1.3489,-9.3917,9.5179
2,3,0,1,1,09.830,9830,-0.3100,2.3000,-8.9700,9.2654,-0.0175,0.2705,0.0327,-4.38,169.69,152.06,0.6120,1.4742,-9.3362,9.4716
2,3,0,1,1,09.960,9960,1.1400,1.9100,-9.5100,9.7667,0.3229,0.0284,-0.1745,-3.81,168.81,151.19,0.6816,1.5316,-9.3591,9.5080
2,3,0,1,1,10.091,10091,1.2700,1.5200,-9.2100,9.4206,0.0327,0.0818,0.1451,-3.00,166.38,151.19,0.7591,1.5301,-9.3394,9.4943
2,3,0,1,1,10.221,10221,0.5400,2.4900,-9.7200,10.0484,-0.0665,0.1353,-0.1178,-3.19,167.56,151.25,0.7302,1.6566,-9.3896,9.5625
2,3,0,1,1,10.394,10394,-0.3200,2.7300,-7.5100,7.9972,0.4342,-0.0349,-0.4036,-3.25,166.50,151.56,0.5919,1.7980,-9.1419,9.3358
2,3,0,1,1,10.524,10524,1.9600,1.9900,-10.2400,10.6141,0.0971,-0.2913,-0.0807,-3.44,163.69,152.19,0.7721,1.8233,-9.2866,9.4954
2,3,0,1,1,10.655,10655,-0.4000,2.9300,-7.8000,8.3418,0.2858,0.1134,0.2356,-5.63,162.94,152.69,0.6177,1.9692,-9.0907,9.3220
2,4,0,1,1,10.786,10786,1.4200,2.9600,-9.6800,10.2216,-0.1331,0.3392,-0.1036,-2.06,162.31,152.19,0.7234,2.0997,-9.1684,9.4335
2,4,0,1,1,10.916,10916,-0.0200,3.2500,-8.2700,8.8857,0.2847,-0.3262,-0.1658,-3.81,161.88,151.81,0.6254,2.2513,-9.0500,9.3467
2,4,0,1,1,11.047,11047,0.6700,3.3000,-11.1400,11.6378,-0.2171,0.1396,-0.1080,-3.69,161.50,151.94,0.6313,2.3895,-9.3254,9.6473
2,4,0,1,1,11.177,11177,0.5600,2.6800,-7.9500,8.4082,0.4036,0.4832,0.1724,-2.00,160.75,151.31,0.6219,2.4278,-9.1441,9.4814
2,4,0,1,1,11.312,11312,1.0300,3.0100,-9.2000,9.7345,-0.3862,-0.0807,0.0447,-0.44,161.25,150.13,0.6757,2.5045,-9.1515,9.5121
2,4,0,1,1,11.485,11485,0.2100,2.7700,-9.5800,9.9746,-0.0938,-0.0229,-0.0251,-3.13,163.25,149.94,0.6143,2.5395,-9.2080,9.5715
2,4,0,1,1,11.615,11615,0.3900,2.7700,-8.9100,9.3388,-0.1167,0.3862,0.1451,-1.25,164.06,149.44,0.5848,2.5699,-9.1687,9.5400
2,4,0,1,1,11.746,11746,0.3900,2.1900,-9.0000,9.2708,-0.1560,0.0807,-0.0993,0.25,164.94,148.81,0.5591,2.5198,-9.1465,9.5037
2,4,0,1,1,11.876,11876,0.4400,2.0200,-9.1100,9.3416,-0.0753,-0.0207,-0.0087,0.00,165.63,149.06,0.5434,2.4539,-9.1417,9.4809
2,4,0,1,1,12.006,12006,-0.5500,2.4200,-9.7500,10.0609,-0.3283,0.0142,-0.0404,0.00,167.63,148.88,0.3993,2.4495,-9.2218,9.5500
2,4,0,1,1,12.137,12137,0.2400,1.4900,-9.7400,9.8562,-0.0731,0.1527,-0.0884,1.31,168.56,149.13,0.3783,2.3230,-9.2901,9.5836
2,4,0,1,1,12.267,12267,-0.5200,1.0600,-9.5300,9.6029,-0.4058,-0.0251,-0.0415,1.75,170.19,149.31,0.2600,2.1566,-9.3217,9.5715
2,4,0,1,1,12.398,12398,0.4200,1.7700,-10.3600,10.5185,-0.5443,-0.0742,0.0022,1.06,174.06,149.31,0.2810,2.1057,-9.4585,9.6942
2,4,0,1,1,12.571,12571,0.9800,0.7300,-10.3700,10.4418,0.0360,-0.0327,-0.0502,1.56,175.81,149.38,0.3731,1.9244,-9.5786,9.7772
2,4,0,1,1,12.702,12702,-0.4600,0.8200,-9.5300,9.5763,0.0273,-0.2378,-0.0404,0.25,175.75,150.00,0.2634,1.7789,-9.5722,9.7397
2,4,0,1,1,12.832,12832,0.4100,1.1800,-9.3800,9.4628,0.0098,-0.1353,0.0185,-1.06,176.19,149.50,0.2827,1.6999,-9.5469,9.7012
2,4,0,1,1,12.966,12966,-0.1400,0.5400,-9.7900,9.8059,0.2618,0.0295,0.1331,-1.75,174.50,149.00,0.2270,1.5471,-9.5789,9.7057
2,4,0,1,1,13.097,13097,0.8200,0.7900,-9.7100,9.7765,0.0393,0.1669,0.2585,-0.56,173.81,147.13,0.3051,1.4473,-9.5962,9.7095
2,4,0,1,1,13.230,13230,0.7700,1.4300,-9.5400,9.6773,0.0556,-0.0447,0.0960,-0.50,173.81,145.94,0.3664,1.4450,-9.5888,9.7040
2,4,0,1,1,13.360,13360,0.8400,0.9500,-9.2800,9.3662,0.0338,-0.1102,-0.1396,-1.38,172.88,146.06,0.4288,1.3798,-9.5481,9.6568
2,4,0,1,1,13.491,13491,0.5700,1.5000,-10.5900,10.7109,-0.0033,-0.1396,-0.1844,-1.94,173.44,147.56,0.4474,1.3956,-9.6854,9.7957
2,4,0,1,1,13.664,13664,0.5700,0.6400,-9.6000,9.6382,0.0742,-0.0491,-0.1811,-2.88,172.19,149.63,0.4636,1.2961,-9.6742,9.7716
2,4,0,1,1,13.794,13794,0.6100,1.9400,-9.2600,9.4807,0.0578,-0.0425,-0.2313,-2.81,172.31,151.38,0.4829,1.3809,-9.6196,9.7302
2,4,0,1,1,13.924,13924,0.3700,1.5100,-9.0200,9.1530,0.3087,0.3392,0.0469,-1.81,170.13,152.19,0.4680,1.3979,-9.5406,9.6538
2,4,0,1,1,14.054,14054,0.8200,2.2900,-9.5100,9.8161,0.1145,-0.3687,-0.0884,-1.94,168.88,152.75,0.5144,1.5155,-9.5365,9.6699
2,4,0,1,1,14.184,14184,0.6700,2.1100,-9.3700,9.6280,0.1102,0.4145,0.1385,-2.19,167.63,152.69,0.5349,1.5938,-9.5146,9.6620
2,4,0,1,1,14.314,14314,-0.7000,2.5400,-9.4300,9.7911,0.1004,0.0076,-0.3033,-0.69,166.63,153.50,0.3722,1.7185,-9.5034,9.6647
2,4,0,1,1,14.444,14444,0.1200,2.7500,-7.5000,7.9892,0.6872,-0.3545,-0.3022,-2.94,164.50,153.75,0.3389,1.8544,-9.2394,9.4298
2,4,0,1,1,14.574,14574,0.7600,2.6400,-8.3200,8.7618,-0.0196,-0.0600,-0.0415,-2.94,161.19,154.81,0.3944,1.9579,-9.1183,9.3345
2,5,0,1,1,14.747,14747,1.0800,3.5600,-10.2400,10.8948,0.3316,-0.2847,-0.3752,-4.94,159.63,156.69,0.4848,2.1691,-9.2661,9.5289
2,5,0,1,1,14.877,14877,0.1500,3.3200,-7.8100,8.4877,0.1473,0.2760,0.2847,-5.25,157.88,157.50,0.4406,2.3207,-9.0742,9.3766
2,5,0,1,1,15.007,15007,0.9300,3.5900,-8.4700,9.2463,-0.0207,0.4898,0.1331,-2.50,157.56,155.56,0.5051,2.4880,-8.9946,9.3460
2,5,0,1,1,15.137,15137,0.5000,4.0000,-8.6700,9.5613,-0.0196,0.0360,0.3153,-1.56,158.44,153.81,0.5045,2.6872,-8.9518,9.3601
2,5,0,1,1,15.267,15267,0.4900,3.2500,-8.4000,9.0201,0.0829,0.3534,0.1734,-1.06,157.38,151.88,0.5025,2.7614,-8.8791,9.3122
2,5,0,1,1,15.397,15397,1.3100,3.4900,-8.4800,9.2632,-0.3807,0.1560,0.0175,0.69,158.94,151.56,0.6089,2.8574,-8.8265,9.2975
2,5,0,1,1,15.527,15527,-1.4600,3.1100,-9.5800,10.1774,-0.1276,-0.2476,-0.1734,0.00,160.69,151.88,0.3363,2.8907,-8.9258,9.3882
2,5,0,1,1,15.657,15657,-1.1100,3.1100,-8.8500,9.4460,-0.2509,0.4723,0.2869,0.63,161.88,151.06,0.1457,2.9196,-8.9158,9.3828
2,5,0,1,1,15.830,15830,0.0000,2.7200,-9.0400,9.4403,-0.3774,-0.2880,-0.2716,2.19,164.81,151.00,0.1265,2.8933,-8.9322,9.3899
2,5,0,1,1,15.960,15960,1.2500,2.3400,-12.8700,13.1406,-0.5563,-0.2356,-0.2814,0.75,167.81,153.19,0.2746,2.8204,-9.4511,9.8668
2,5,0,1,1,16.090,16090,0.0200,2.6100,-7.2100,7.6679,0.7058,0.2040,0.0175,0.94,167.88,153.13,0.2410,2.7927,-9.1558,9.5752
2,5,0,1,1,16.220,16220,0.1700,0.7300,-8.7600,8.7920,-0.1233,-0.2029,-0.1047,1.50,164.19,153.75,0.2317,2.5208,-9.1036,9.4490
2,5,0,1,1,16.350,16350,0.3800,2.4700,-9.2500,9.5816,-0.7952,-0.3338,-0.0098,-0.88,169.31,153.94,0.2512,2.5141,-9.1229,9.4663
2,5,0,1,1,16.480,16480,0.7700,1.0500,-10.9800,11.0569,-0.3742,-0.1244,0.0316,-1.94,172.75,153.94,0.3196,2.3212,-9.3676,9.6562
2,5,0,1,1,16.610,16610,0.2600,1.6200,-9.8600,9.9956,-0.2673,0.0382,0.0753,-2.69,175.69,153.56,0.3117,2.2288,-9.4325,9.6973
2,5,0,1,1,16.741,16741,0.9200,0.4700,-10.4300,10.4810,0.0949,0.1233,-0.0654,-1.44,175.38,153.06,0.3919,1.9970,-9.5639,9.7781
2,5,0,1,1,16.913,16913,0.5200,0.5500,-10.6200,10.6469,0.0022,-0.2029,0.2258,-2.38,175.38,152.63,0.4088,1.8064,-9.7031,9.8783
2,5,0,1,1,17.043,17043,0.2100,1.7600,-7.4600,7.6677,0.3262,0.1036,0.1102,-2.75,175.56,151.75,0.3826,1.8003,-9.4075,9.5859
2,5,0,1,1,17.173,17173,1.0600,0.1600,-10.8800,10.9327,-0.0295,-0.2629,0.0458,-2.94,172.56,151.50,0.4718,1.5841,-9.6016,9.7428
2,5,0,1,1,17.303,17303,0.4700,1.8500,-8.8300,9.0340,-0.0502,-0.3774,-0.0087,-5.56,174.25,151.31,0.4716,1.6191,-9.4999,9.6484
2,5,0,1,1,17.433,17433,0.4900,1.4300,-8.7400,8.8698,0.4112,0.2247,-0.1560,-5.94,172.56,151.56,0.4740,1.5942,-9.3998,9.5458
2,5,0,1,1,17.563,17563,2.0400,0.5700,-9.3600,9.5967,-0.0709,0.0131,-0.0731,-4.31,170.56,151.94,0.6804,1.4593,-9.3945,9.5315
2,5,0,1,1,17.694,17694,0.6900,1.5300,-9.7000,9.8441,-0.1254,-0.0884,0.0905,-5.44,171.75,151.69,0.6816,1.4686,-9.4348,9.5727
2,5,0,1,1,17.824,17824,1.2200,1.9000,-10.3000,10.5446,0.0436,0.0764,-0.0971,-4.69,172.38,151.38,0.7526,1.5254,-9.5488,9.6991
2,5,0,1,1,17.997,17997,1.3200,1.4900,-9.0300,9.2468,0.4178,-0.3043,-0.2716,-4.81,169.31,152.88,0.8274,1.5208,-9.4804,9.6372
2,5,0,1,1,18.128,18128,0.2900,0.6200,-10.7300,10.7518,-0.0316,0.1669,0.1047,-5.75,165.38,153.69,0.7565,1.4021,-9.6451,9.7758
2,5,0,1,1,18.259,18259,1.0800,4.1300,-8.9200,9.8889,0.0338,0.1625,0.0578,-4.13,168.69,153.31,0.7992,1.7615,-9.5495,9.7435
2,5,0,1,1,18.389,18389,1.3300,1.5300,-9.3000,9.5184,0.7429,-0.0829,-0.0491,-3.63,163.13,153.31,0.8691,1.7310,-9.5167,9.7118
2,5,0,1,1,18.520,18520,0.6900,3.1800,-9.4100,9.9567,-0.1560,-0.1658,-0.0175,-4.75,162.25,154.50,0.8455,1.9220,-9.5026,9.7318
2,5,0,1,1,18.651,18651,0.7500,3.4000,-7.6400,8.3960,0.8945,0.3251,-0.0807,-3.75,159.50,154.63,0.8329,2.1167,-9.2572,9.5325
2,5,0,1,1,18.786,18786,0.5400,3.3800,-10.6000,11.1389,-0.2531,-0.0404,-0.0894,-3.31,156.25,154.81,0.7943,2.2832,-9.4341,9.7389
2,5,0,1,1,18.917,18917,0.6800,3.9300,-7.8100,8.7695,0.1494,-0.1189,0.4385,-3.88,157.94,154.00,0.7793,2.5002,-9.2201,9.5848
2,5,0,1,1,19.090,19090,1.3700,3.8500,-8.5800,9.5035,0.0142,0.2029,0.1058,-3.19,156.38,152.69,0.8571,2.6781,-9.1357,9.5587
2,5,0,1,1,19.220,19220,0.8500,4.3700,-8.9900,10.0319,-0.0545,-0.0316,-0.0360,-3.50,157.25,152.25,0.8562,2.9010,-9.1165,9.6052
2,5,0,1,1,19.350,19350,0.2700,3.3300,-8.8200,9.4316,0.1516,0.3163,-0.0349,-2.44,156.13,152.88,0.7789,2.9576,-9.0775,9.5788
2,5,0,1,1,19.480,19480,0.6600,3.8800,-7.6000,8.5586,-0.0578,-0.0055,-0.0218,-1.81,156.19,152.00,0.7633,3.0791,-8.8828,9.4322
2,5,0,1,1,19.610,19610,0.4600,4.1300,-8.7400,9.6776,-0.2465,0.0829,0.0949,-1.44,157.44,151.56,0.7233,3.2176,-8.8640,9.4576
2,5,0,1,1,19.740,19740,0.3100,3.6200,-8.1500,8.9232,-0.0327,-0.0153,-0.0567,-1.25,158.50,151.63,0.6688,3.2706,-8.7699,9.3838
2,5,0,1,1,19.871,19871,-0.3800,3.1500,-9.9800,10.4722,-0.3033,0.3174,-0.0185,0.06,159.38,151.75,0.5306,3.2547,-8.9293,9.5188
2,5,0,1,1,20.001,20001,-0.1100,3.7100,-8.4800,9.2567,-0.0698,-0.0753,-0.0022,0.81,162.00,152.13,0.4462,3.3147,-8.8701,9.4797
2,5,0,1,1,20.174,20174,-0.4100,2.1500,-8.4900,8.7676,-0.1691,0.1080,-0.1462,0.81,161.00,152.25,0.3334,3.1612,-8.8200,9.3754
2,5,0,1,1,20.304,20304,0.0600,3.4200,-9.0200,9.6468,-0.4821,-0.0240,0.0829,1.31,164.38,151.94,0.2974,3.1953,-8.8464,9.4105
2,5,0,1,1,20.435,20435,-0.4200,2.6500,-9.6500,10.0161,0.0251,0.0033,-0.0589,1.06,165.63,151.44,0.2028,3.1235,-8.9523,9.4837
2,5,0,1,1,20.566,20566,-0.0900,1.5900,-8.6700,8.8150,-0.0415,0.2869,-0.0251,2.38,165.19,151.38,0.1642,2.9214,-8.9151,9.3830
2,5,0,1,1,20.696,20696,0.2200,1.5300,-9.3100,9.4374,-0.6501,-0.0927,0.1331,3.00,168.06,151.19,0.1716,2.7380,-8.9671,9.3774
2,5,0,1,1,20.827,20827,-0.4400,1.6000,-10.2500,10.3835,-0.4189,-0.0960,0.0098,1.56,172.19,150.31,0.0910,2.5881,-9.1362,9.4961
2,5,0,1,1,20.957,20957,-0.0700,0.7600,-11.0400,11.0663,-0.2683,0.2062,-0.1451,2.38,173.88,150.69,0.0698,2.3472,-9.3871,9.6763
2,5,0,1,1,21.089,21089,-0.6900,1.2300,-8.3600,8.4781,0.0862,0.0229,-0.1331,3.00,175.19,151.19,-0.0303,2.2000,-9.2517,9.5097
2,5,0,1,1,21.265,21265,-0.1400,0.7400,-9.2900,9.3205,-0.2542,-0.3229,-0.0229,1.56,175.81,150.50,-0.0448,2.0076,-9.2568,9.4721
2,5,0,1,1,21.395,21395,-0.1000,0.8600,-9.8500,9.8880,-0.0818,-0.0305,0.0164,0.69,177.06,150.69,-0.0521,1.8564,-9.3349,9.5179
2,5,0,1,1,21.526,21526,-0.0100,0.2900,-10.1300,10.1342,0.2302,0.1691,0.0698,1.19,176.06,150.56,-0.0465,1.6500,-9.4397,9.5829
2,5,0,1,1,21.656,21656,0.3600,1.0600,-9.5000,9.5657,-0.1702,-0.2476,-0.0393,0.69,176.75,150.00,0.0070,1.5722,-9.4476,9.5776
2,5,0,1,1,21.786,21786,0.2300,0.3500,-9.6300,9.6391,0.2018,0.0415,-0.0807,-0.06,175.94,150.38,0.0364,1.4112,-9.4717,9.5763
2,5,0,1,1,21.932,21932,0.1200,1.1800,-8.8200,8.8994,-0.0644,-0.2640,-0.1156,-1.19,176.63,150.50,0.0474,1.3807,-9.3858,9.4869
2,5,0,1,1,22.067,22067,0.7000,0.1900,-10.3000,10.3255,0.1407,-0.0218,-0.0087,-1.81,175.44,151.19,0.1334,1.2238,-9.5063,9.5856
2,5,0,1,1,22.198,22198,0.6800,1.0500,-10.5400,10.6140,-0.1647,-0.2160,-0.1560,-2.94,176.38,151.94,0.2055,1.2009,-9.6425,9.7192
2,5,0,1,1,22.370,22370,0.5700,0.4000,-9.9800,10.0043,0.0982,0.2203,0.0774,-3.06,176.13,152.38,0.2535,1.0954,-9.6870,9.7520
2,5,0,1,1,22.500,22500,0.2900,0.9600,-9.7000,9.7517,0.2203,0.1462,0.0098,-1.94,175.06,151.94,0.2583,1.0775,-9.6887,9.7518
2,5,0,1,1,22.630,22630,0.5500,0.9500,-9.6900,9.7520,0.3632,0.1494,0.0044,-0.25,173.00,151.94,0.2967,1.0607,-9.6889,9.7513
2,5,0,1,1,22.760,22760,0.2000,0.8000,-8.9900,9.0277,-0.0011,-0.0196,-0.0327,0.13,171.25,152.00,0.2840,1.0264,-9.5968,9.6557
2,5,0,1,1,22.890,22890,0.8900,1.7600,-10.0000,10.1926,-0.1440,-0.2585,-0.0316,-0.88,172.63,152.38,0.3638,1.1230,-9.6499,9.7218
2,5,0,1,1,23.020,23020,-1.3100,1.2800,-8.5000,8.6951,0.3109,0.2269,0.1287,-1.50,171.50,152.44,0.1433,1.1437,-9.4984,9.5681
2,5,0,1,1,23.151,23151,1.3100,2.3500,-8.5400,8.9538,0.2302,0.3229,0.2182,2.06,170.25,151.19,0.2970,1.3027,-9.3721,9.4668
2,5,0,1,1,23.281,23281,-0.1100,1.3700,-8.7200,8.8277,0.1571,-0.1353,-0.0884,1.56,168.06,151.06,0.2434,1.3115,-9.2862,9.3815
2,5,0,1,1,23.454,23454,0.8700,2.9200,-9.2800,9.7674,-0.2214,0.0589,0.1560,0.75,168.56,150.19,0.3260,1.5235,-9.2853,9.4151
2,5,0,1,1,23.585,23585,1.1500,2.5100,-9.7500,10.1334,0.2705,0.1178,0.1974,0.38,167.44,149.56,0.4345,1.6535,-9.3466,9.5016
2,5,0,1,1,23.715,23715,1.0900,1.9400,-7.6200,7.9383,0.3731,-0.2607,-0.0774,-0.56,164.44,150.25,0.5209,1.6912,-9.1191,9.2892
2,5,0,1,1,23.848,23848,1.5800,3.6600,-6.6400,7.7448,0.0916,0.3087,0.0807,-0.25,164.31,150.69,0.6605,1.9507,-8.7924,9.0304
2,5,0,1,1,23.979,23979,1.6100,3.2000,-9.3600,10.0221,-0.0949,0.2673,0.0393,0.81,163.50,150.50,0.7856,2.1153,-8.8672,9.1498
2,5,0,1,1,24.113,24113,0.6300,3.1600,-6.5300,7.2817,0.2563,-0.3371,0.0240,-0.56,162.88,151.38,0.7651,2.2530,-8.5592,8.8838
2,6,0,1,1,24.244,24244,-0.2500,2.1800,-8.7500,9.0209,-0.5858,0.0240,-0.0273,-2.19,163.44,151.88,0.6313,2.2434,-8.5843,8.8951
2,6,0,1,1,24.374,24374,0.6400,3.4700,-8.8600,9.5368,-0.0185,0.1516,-0.0196,-0.88,166.56,152.13,0.6325,2.4050,-8.6207,8.9722
2,6,0,1,1,24.547,24547,0.4400,1.7500,-8.6500,8.8362,-0.0862,-0.0185,-0.0175,0.13,165.25,152.44,0.6071,2.3187,-8.6245,8.9514
2,6,0,1,1,24.678,24678,-1.1000,2.3100,-10.2500,10.5645,-0.2683,0.1778,0.1865,0.63,167.00,151.44,0.3822,2.3175,-8.8387,9.1455
2,6,0,1,1,24.808,24808,0.5900,2.0100,-9.6100,9.8357,-0.0327,0.3818,0.1571,2.44,168.00,149.56,0.4095,2.2770,-8.9404,9.2349
2,6,0,1,1,24.939,24939,0.3700,1.8400,-8.7700,8.9686,-0.0513,-0.3469,-0.0851,2.56,168.13,149.19,0.4043,2.2194,-8.9179,9.1988
2,6,0,1,1,25.069,25069,-0.4700,1.8300,-9.3200,9.5096,-0.2683,-0.0840,-0.0578,0.69,169.44,150.13,0.2891,2.1681,-8.9709,9.2337
2,6,0,1,1,25.202,25202,-0.5000,1.4500,-9.3200,9.4454,-0.1560,0.3600,-0.0044,1.88,170.75,149.81,0.1851,2.0735,-9.0169,9.2541
2,6,0,1,1,25.333,25333,0.7100,1.1600,-9.7500,9.8444,-0.3305,0.0229,0.0218,3.56,172.50,149.44,0.2543,1.9531,-9.1135,9.3239
2,6,0,1,1,25.467,25467,-0.4700,1.4800,-9.9500,10.0704,-0.1254,-0.2563,-0.1004,2.06,174.50,149.88,0.1589,1.8908,-9.2237,9.4169
2,6,0,1,1,25.639,25639,-0.0700,0.5600,-9.1800,9.1973,-0.0240,0.1113,-0.1516,1.75,174.25,150.69,0.1287,1.7154,-9.2180,9.3771
2,6,0,1,1,25.769,25769,0.1800,0.4300,-10.4000,10.4104,-0.4003,-0.1876,-0.1353,1.44,175.94,151.44,0.1355,1.5460,-9.3737,9.5013
2,6,0,1,1,25.899,25899,-0.0200,0.7900,-9.0700,9.1044,0.0425,-0.2825,-0.0458,-0.56,177.50,151.81,0.1150,1.4464,-9.3337,9.4458
2,6,0,1,1,26.029,26029,0.2100,-0.1700,-9.6100,9.6138,-0.1516,0.1364,0.0000,-1.06,177.25,152.13,0.1275,1.2334,-9.3701,9.4518
2,6,0,1,1,26.159,26159,0.7900,0.3400,-9.7900,9.8277,-0.2956,0.0262,-0.0065,-0.50,179.25,152.06,0.2148,1.1157,-9.4254,9.4937
2,6,0,1,1,26.290,26290,0.3400,-0.0900,-10.5500,10.5559,-0.1145,-0.1778,0.0044,-2.19,-179.81,152.19,0.2313,0.9568,-9.5736,9.6241
2,6,0,1,1,26.420,26420,0.5600,-0.1700,-8.9000,8.9192,0.1036,0.0742,-0.0382,-2.56,-179.63,152.38,0.2746,0.8083,-9.4849,9.5232
2,6,0,1,1,26.551,26551,0.6300,-0.7500,-10.8700,10.9140,-0.2934,0.0469,-0.0415,-2.00,-179.69,152.75,0.3214,0.6030,-9.6674,9.6915
2,6,0,1,1,26.723,26723,0.6000,0.0900,-10.2700,10.2879,0.1342,-0.1418,-0.2160,-2.75,-178.81,153.25,0.3581,0.5354,-9.7468,9.7681
2,6,0,1,1,26.853,26853,1.4800,0.1300,-7.4000,7.5477,0.5760,-0.1058,-0.2160,-2.06,-179.81,152.75,0.5060,0.4820,-9.4376,9.4634
2,6,0,1,1,26.983,26983,-0.1000,0.2800,-9.0100,9.0149,-0.2793,-0.4102,0.0393,-5.13,179.19,153.38,0.4261,0.4553,-9.3812,9.4019
2,6,0,1,1,27.113,27113,0.4200,0.7400,-10.4400,10.4746,0.3862,0.6850,0.0894,-3.38,178.25,153.25,0.4253,0.4929,-9.5207,9.5430
2,6,0,1,1,27.243,27243,0.2200,0.7700,-7.4600,7.5029,0.4931,-0.0022,0.1702,-1.00,175.75,151.69,0.3983,0.5294,-9.2492,9.2729
2,6,0,1,1,27.373,27373,-0.0500,1.3400,-8.0000,8.1116,-0.0218,-0.0687,0.1887,-1.69,174.56,151.50,0.3392,0.6362,-9.0846,9.1131
2,7,0,1,1,27.503,27503,0.4600,0.9900,-10.6000,10.6561,-0.1887,-0.2902,0.0589,-2.44,173.75,150.69,0.3551,0.6828,-9.2843,9.3161
2,7,0,1,1,27.634,27634,-0.5900,1.1700,-8.8600,8.9564,0.4800,0.2345,0.0218,-2.94,171.94,150.56,0.2306,0.7470,-9.2284,9.2614
2,7,0,1,1,27.807,27807,0.4000,1.7000,-9.3000,9.4626,0.6447,-0.1178,-0.0971,-1.44,170.00,149.69,0.2529,0.8726,-9.2378,9.2824
2,7,0,1,1,27.938,27938,-0.6000,0.9200,-8.3800,8.4517,0.2214,0.1647,-0.2476,-2.44,166.75,150.81,0.1405,0.8788,-9.1248,9.1681
2,7,0,1,1,28.068,28068,1.4600,2.2200,-9.1100,9.4896,-0.0349,0.1211,0.2542,-0.94,165.75,149.63,0.3144,1.0556,-9.1228,9.1891
2,7,0,1,1,28.199,28199,-0.6300,3.1500,-7.2700,7.9481,0.4222,-0.4276,-0.6414,-3.56,166.00,151.19,0.1899,1.3316,-8.8787,8.9800
2,7,0,1,1,28.329,28329,0.0800,3.2200,-9.2200,9.7664,-0.0382,0.4385,0.0087,-1.50,163.69,153.19,0.1755,1.5804,-8.9236,9.0642
2,7,0,1,1,28.463,28463,1.7100,2.0900,-8.5800,8.9949,0.0491,-0.4222,-0.0273,-1.00,162.69,152.56,0.3777,1.6476,-8.8784,9.0378
2,7,0,1,1,28.594,28594,-0.6900,2.7900,-8.1900,8.6796,0.2662,0.0807,-0.0938,-3.25,161.75,153.56,0.2370,1.7981,-8.7877,8.9729
2,7,0,1,1,28.727,28727,1.7700,4.1400,-11.1700,12.0433,-0.1625,-0.1124,0.0742,-1.13,162.13,153.69,0.4390,2.1067,-9.1016,9.3525
2,7,0,1,1,28.899,28899,0.4200,1.4100,-8.1800,8.3113,0.1505,0.2891,-0.1342,-2.63,158.06,154.25,0.4365,2.0149,-8.9801,9.2138
2,7,0,1,1,29.029,29029,0.7800,4.0300,-8.1400,9.1164,-0.5629,0.1625,0.1298,-1.06,161.94,153.94,0.4818,2.2804,-8.8694,9.1706
2,7,0,1,1,29.159,29159,0.3500,2.4800,-9.6700,9.9891,-0.0862,-0.2247,0.1745,-0.75,163.25,153.31,0.4644,2.3067,-8.9749,9.2783
2,7,0,1,1,29.289,29289,0.2400,2.7800,-8.7500,9.1841,-0.2225,-0.1625,0.1734,-3.44,164.81,153.44,0.4348,2.3691,-8.9453,9.2639
2,7,0,1,1,29.419,29419,-0.1000,2.5500,-9.3500,9.6920,0.0098,0.6774,0.0393,-0.81,165.31,152.56,0.3643,2.3929,-8.9986,9.3185
2,7,0,1,1,29.549,29549,1.8200,1.8300,-10.2000,10.5215,-0.2236,-0.0873,0.1353,1.50,165.44,151.13,0.5562,2.3188,-9.1569,9.4623
2,7,0,1,1,29.680,29680,-0.6900,2.4400,-9.5200,9.8519,-0.1963,-0.2313,-0.0589,-1.00,167.13,151.38,0.3920,2.3347,-9.2048,9.5043
2,7,0,1,1,29.810,29810,0.1600,1.7300,-9.5100,9.6674,0.0273,0.2465,-0.0185,-0.44,167.50,151.69,0.3614,2.2550,-9.2450,9.5229
2,7,0,1,1,29.983,29983,0.2600,1.2500,-9.5300,9.6151,-0.1833,-0.0415,-0.1462,0.00,169.00,151.75,0.3480,2.1226,-9.2826,9.5285
2,7,0,1,1,30.113,30113,-0.1500,1.5500,-9.1800,9.3111,-0.4211,-0.1004,-0.1102,-0.75,172.00,152.44,0.2824,2.0472,-9.2690,9.4966
2,7,0,1,1,30.243,30243,0.1500,1.0700,-10.6900,10.7445,-0.2323,0.0240,0.0589,-1.06,174.06,152.50,0.2650,1.9184,-9.4563,9.6525
2,7,0,1,1,30.373,30373,-0.0600,1.2800,-8.9500,9.0413,0.0960,0.0731,-0.0829,-0.94,174.94,152.38,0.2221,1.8343,-9.3896,9.5696
2,7,0,1,1,30.503,30503,0.9900,0.0600,-11.0700,11.1143,-0.0218,-0.1298,-0.0360,-0.50,173.25,152.81,0.3233,1.6005,-9.6110,9.7487
2,7,0,1,1,30.633,30633,-0.1300,1.8300,-8.2200,8.4222,0.0742,-0.3567,-0.1298,-3.31,174.94,153.19,0.2636,1.6307,-9.4277,9.5713
2,7,0,1,1,30.763,30763,0.7700,0.0500,-9.0800,9.1127,-0.0567,0.1865,0.0709,-3.13,173.38,153.56,0.3303,1.4224,-9.3819,9.4949
2,7,0,1,1,30.894,30894,1.3000,1.5300,-11.1000,11.2801,-0.4560,-0.2356,0.0796,-3.38,177.00,153.06,0.4581,1.4366,-9.6083,9.7259
2,7,0,1,1,31.067,31067,0.4600,-0.1500,-10.1400,10.1515,0.3872,0.4374,0.0469,-3.81,174.44,153.00,0.4583,1.2275,-9.6784,9.7667
2,7,0,1,1,31.198,31198,0.9700,1.3300,-9.3500,9.4938,-0.2149,-0.1822,0.0360,-3.19,175.44,152.63,0.5258,1.2410,-9.6351,9.7289
2,7,0,1,1,31.328,31328,0.9700,0.7200,-9.3600,9.4376,0.2705,-0.0327,-0.0513,-3.56,174.56,152.38,0.5843,1.1724,-9.5988,9.6878
2,7,0,1,1,31.459,31459,0.5200,0.7400,-10.3100,10.3496,-0.1287,0.0545,-0.0796,-3.13,173.56,152.56,0.5758,1.1154,-9.6926,9.7735
2,7,0,1,1,31.589,31589,-0.7900,1.8300,-6.8300,7.1149,0.5138,0.1418,0.0971,-3.06,172.94,152.56,0.3959,1.2096,-9.3153,9.4019
2,7,0,1,1,31.722,31722,2.0000,0.2900,-12.1800,12.3465,-0.3414,0.2880,0.1276,-0.69,171.00,151.13,0.6072,1.0884,-9.6928,9.7726
2,7,0,1,1,31.853,31853,-0.0500,2.0700,-8.5100,8.7583,0.3251,-0.0065,-0.0305,-1.38,172.19,150.06,0.5206,1.2177,-9.5370,9.6285
2,7,0,1,1,31.987,31987,0.0900,1.5500,-8.7100,8.8473,0.2291,0.1516,0.1538,0.44,169.50,149.69,0.4639,1.2615,-9.4280,9.5233
2,7,0,1,1,32.159,32159,0.4400,2.2100,-11.3200,11.5421,-0.4821,-0.1833,0.1996,-0.44,169.69,148.56,0.4607,1.3865,-9.6773,9.7870
2,7,0,1,1,32.289,32289,-0.9700,1.4500,-10.0700,10.2200,0.5291,0.2323,-0.1364,-0.81,168.69,148.31,0.2722,1.3949,-9.7291,9.8323
2,8,0,1,1,32.419,32419,1.0100,2.2700,-8.6900,9.0382,0.1320,-0.0535,-0.0622,1.50,167.25,148.50,0.3694,1.5102,-9.5921,9.7173
2,8,0,1,1,32.549,32549,0.5400,1.5500,-9.5300,9.6703,-0.0458,-0.1920,0.1342,-0.50,166.31,149.06,0.3919,1.5154,-9.5839,9.7109
2,8,0,1,1,32.679,32679,0.2300,2.5600,-8.5700,8.9471,0.2214,-0.0196,-0.0349,-1.38,166.44,149.00,0.3706,1.6531,-9.4503,9.6010
2,8,0,1,1,32.809,32809,0.6700,1.9500,-9.1600,9.3892,0.0524,0.0785,-0.1680,-0.63,164.94,149.88,0.4100,1.6922,-9.4121,9.5718
2,8,0,1,1,32.940,32940,-0.0300,2.8700,-9.2100,9.6469,-0.2913,-0.1963,0.0480,-2.00,166.63,150.38,0.3520,1.8474,-9.3854,9.5720
2,8,0,1,1,33.070,33070,0.1500,1.4100,-10.1600,10.2585,0.0524,0.1113,-0.0774,-2.00,166.88,150.38,0.3254,1.7898,-9.4875,9.6603
2,8,0,1,1,33.243,33243,0.8900,2.5800,-9.0000,9.4047,0.2520,-0.0578,0.1233,-1.81,166.44,149.63,0.3998,1.8939,-9.4233,9.6200
2,8,0,1,1,33.374,33374,-0.0500,2.6800,-8.6800,9.0845,0.0654,0.1047,-0.2247,-2.25,164.56,150.06,0.3405,1.9975,-9.3253,9.5429
2,8,0,1,1,33.505,33505,0.5300,2.6800,-7.7400,8.2080,0.3065,-0.0829,-0.1167,-1.38,163.38,151.06,0.3655,2.0874,-9.1164,9.3595
2,8,0,1,1,33.635,33635,0.5000,2.9700,-9.8200,10.2715,-0.2422,0.0240,0.0011,-1.75,163.50,151.00,0.3832,2.2037,-9.2091,9.4769
2,8,0,1,1,33.766,33766,0.3300,2.5500,-8.4900,8.8708,0.3185,0.0633,0.0011,-1.81,163.06,150.81,0.3762,2.2494,-9.1144,9.3954
2,8,0,1,1,33.896,33896,0.8300,2.6500,-8.4600,8.9041,-0.2629,-0.0011,0.0742,-1.50,162.69,150.69,0.4360,2.3022,-9.0281,9.3272
2,8,0,1,1,34.031,34031,0.0000,2.9500,-9.3300,9.7853,-0.1058,0.2978,-0.0305,-0.44,164.69,150.63,0.3786,2.3875,-9.0679,9.3846
2,8,0,1,1,34.161,34161,0.0000,2.8500,-9.3600,9.7843,0.1145,0.0796,0.1865,0.81,164.56,150.25,0.3287,2.4485,-9.1064,9.4356
2,8,0,1,1,34.334,34334,0.0300,2.6000,-9.3100,9.6663,-0.0218,0.0927,0.1113,0.88,163.56,148.69,0.2893,2.4684,-9.1332,9.4654
2,8,0,1,1,34.464,34464,0.3900,2.5600,-9.5000,9.8466,-0.0109,-0.1058,-0.0360,0.69,163.81,148.63,0.3026,2.4805,-9.1816,9.5155
2,8,0,1,1,34.595,34595,-0.0300,2.2200,-8.4800,8.7658,-0.0851,-0.2465,-0.1167,-0.81,164.00,149.50,0.2588,2.4462,-9.0891,9.4161
2,8,0,1,1,34.725,34725,-0.2700,2.5800,-9.4500,9.7996,-0.3283,0.1287,-0.0240,-0.88,165.94,150.06,0.1891,2.4638,-9.1367,9.4649
2,8,0,1,1,34.856,34856,0.5100,2.4400,-9.5900,9.9087,-0.0851,0.2127,-0.0578,0.56,167.44,150.06,0.2314,2.4607,-9.1964,9.5227
2,8,0,1,1,34.986,34986,0.3200,1.7300,-8.8400,9.0134,-0.0393,-0.2040,-0.0022,0.50,167.31,150.13,0.2430,2.3644,-9.1494,9.4531
2,8,0,1,1,35.117,35117,-0.4400,1.5900,-10.1200,10.2536,-0.4112,0.1276,-0.0949,0.13,169.38,150.81,0.1530,2.2623,-9.2773,9.5504
2,8,0,1,1,35.247,35247,0.5500,1.6900,-8.9700,9.1444,-0.1047,0.0764,-0.0196,1.63,171.25,151.13,0.2053,2.1869,-9.2368,9.4944
2,8,0,1,1,35.420,35420,-0.3000,1.5900,-10.2000,10.3275,-0.3502,-0.1549,0.0404,-0.13,172.50,151.50,0.1388,2.1083,-9.3638,9.5992
2,8,0,1,1,35.550,35550,0.1600,1.3100,-8.4400,8.5426,0.2923,0.0513,0.0447,-0.50,172.81,151.38,0.1416,2.0031,-9.2420,9.4577
2,8,0,1,1,35.681,35681,0.3400,0.5700,-9.6400,9.6628,-0.3360,0.1124,-0.0185,0.31,172.44,151.56,0.1677,1.8142,-9.2945,9.4714
2,8,0,1,1,35.812,35812,0.3200,1.4800,-10.2100,10.3217,-0.3011,-0.0502,0.0229,0.19,175.56,151.38,0.1878,1.7702,-9.4151,9.5819
2,8,0,1,1,35.942,35942,0.2500,0.9400,-9.4200,9.4701,0.3185,0.0207,0.0131,-0.19,174.88,151.13,0.1960,1.6608,-9.4158,9.5631
2,8,0,1,1,36.073,36073,0.1000,0.6500,-9.6500,9.6724,-0.0644,0.1156,0.0458,0.38,173.88,151.19,0.1833,1.5276,-9.4466,9.5711
2,8,0,1,1,36.204,36204,0.2200,1.1900,-9.0300,9.1107,-0.0851,-0.1582,0.0218,0.25,174.63,150.94,0.1882,1.4831,-9.3917,9.5100
2,8,0,1,1,36.339,36339,-0.2900,0.4400,-10.6200,10.6331,-0.0764,0.0371,0.0000,-0.56,175.25,151.06,0.1252,1.3457,-9.5536,9.6487
2,8,0,1,1,36.512,36512,0.1600,0.7000,-10.5200,10.5445,0.1189,-0.0338,-0.1789,0.31,175.56,151.00,0.1297,1.2606,-9.6809,9.7635
2,9,0,1,1,36.642,36642,-1.2100,0.9900,-7.3900,7.5536,0.4614,-0.3272,-0.2138,-1.56,173.69,151.81,-0.0468,1.2249,-9.3790,9.4588
2,9,0,1,1,36.772,36772,1.1600,0.6200,-10.9500,11.0287,-0.4778,0.3087,0.3316,-0.94,173.63,151.75,0.1122,1.1452,-9.5861,9.6549
2,9,0,1,1,36.902,36902,0.2800,1.2700,-10.2300,10.3123,0.3316,-0.1178,0.0611,-0.69,174.31,150.25,0.1343,1.1616,-9.6709,9.7414
2,9,0,1,1,37.032,37032,0.2900,1.1600,-9.1700,9.2476,0.3251,-0.0873,0.0709,-1.31,172.06,149.88,0.1548,1.1614,-9.6049,9.6761
2,9,0,1,1,37.163,37163,-0.3300,0.7500,-10.8200,10.8510,-0.0022,0.6600,0.0480,0.75,169.94,150.25,0.0910,1.1072,-9.7650,9.8280
2,9,0,1,1,37.293,37293,1.2800,1.3500,-9.0200,9.2098,0.2007,-0.6370,0.0480,0.88,169.44,148.75,0.2476,1.1392,-9.6668,9.7369
2,9,0,1,1,37.423,37423,-0.2800,1.7100,-9.4700,9.6272,-0.1702,-0.2356,-0.1287,-2.81,169.94,150.38,0.1781,1.2144,-9.6409,9.7187
2,9,0,1,1,37.596,37596,0.2400,1.9300,-9.1600,9.3642,0.2651,0.1069,0.0316,-1.31,168.81,150.25,0.1863,1.3087,-9.5775,9.6683
2,9,0,1,1,37.727,37727,0.2700,2.4400,-9.8700,10.1707,0.2520,0.2618,0.2193,0.31,167.19,149.56,0.1973,1.4578,-9.6161,9.7279
2,9,0,1,1,37.857,37857,0.6100,2.5900,-8.8000,9.1935,0.3251,-0.3938,0.0731,-1.13,164.63,149.50,0.2517,1.6070,-9.5085,9.6467
2,9,0,1,1,37.988,37988,0.3200,1.8700,-8.1400,8.3582,0.2629,0.0589,-0.0774,-2.88,162.00,150.06,0.2607,1.6416,-9.3282,9.4751
2,9,0,1,1,38.119,38119,0.8200,3.8600,-9.2500,10.0566,-0.0993,0.0840,0.1462,-1.13,163.19,150.06,0.3344,1.9340,-9.3179,9.5224
2,9,0,1,1,38.251,38251,0.1900,2.6500,-8.6500,9.0488,0.4036,-0.3796,-0.0513,-2.63,160.81,150.31,0.3154,2.0283,-9.2299,9.4554
2,9,0,1,1,38.382,38382,0.4400,3.3400,-9.2100,9.8068,-0.0894,0.2127,0.1527,-2.75,160.38,150.25,0.3318,2.2012,-9.2273,9.4920
2,9,0,1,1,38.516,38516,1.3400,3.3200,-7.5900,8.3920,0.4232,-0.1374,0.0938,-2.13,159.44,149.00,0.4646,2.3486,-9.0115,9.3241
2,9,0,1,1,38.689,38689,0.3700,3.8400,-8.2500,9.1074,-0.3174,0.1451,0.0840,-2.13,159.56,149.69,0.4522,2.5451,-8.9112,9.2785
2,9,0,1,1,38.819,38819,1.0100,3.2400,-8.6600,9.3013,-0.1822,0.0240,-0.1047,-1.31,160.75,149.56,0.5257,2.6367,-8.8781,9.2762
2,9,0,1,1,38.949,38949,-0.3200,3.0900,-9.6200,10.1091,-0.2291,-0.0305,0.0065,-1.81,162.56,149.88,0.4142,2.6964,-8.9758,9.3813
2,9,0,1,1,39.079,39079,0.0500,2.5800,-9.8100,10.1437,-0.0491,0.3916,0.0731,-0.19,163.63,149.19,0.3662,2.6811,-9.0858,9.4802
2,9,0,1,1,39.209,39209,0.6700,2.2500,-8.6500,8.9629,-0.0207,-0.0055,0.1047,0.56,163.63,148.00,0.4063,2.6243,-9.0283,9.4108
2,9,0,1,1,39.339,39339,-0.3800,2.3700,-9.3500,9.6532,-0.3622,0.1636,0.0207,0.81,165.31,147.63,0.3027,2.5908,-9.0707,9.4383
2,9,0,1,1,39.470,39470,0.9500,2.2200,-9.1200,9.4343,-0.1342,-0.1254,-0.0654,1.31,167.25,147.44,0.3880,2.5419,-9.0772,9.4344
2,9,0,1,1,39.600,39600,-0.4100,1.6200,-9.5300,9.6754,-0.2542,-0.1636,-0.1156,-0.19,168.25,148.31,0.2828,2.4204,-9.1369,9.4563
2,9,0,1,1,39.773,39773,-0.6600,1.2400,-10.4300,10.5242,-0.1658,0.3163,-0.0894,0.63,170.31,149.19,0.1586,2.2649,-9.3073,9.5802
2,9,0,1,1,39.903,39903,1.0100,1.7300,-9.1300,9.3472,-0.0949,0.0622,-0.0316,3.06,171.75,148.50,0.2708,2.1944,-9.2839,9.5436
2,9,0,1,1,40.034,40034,-0.0600,0.8000,-9.4100,9.4441,-0.0676,-0.3087,-0.2182,1.63,171.88,149.38,0.2272,2.0107,-9.3005,9.5181
2,9,0,1,1,40.164,40164,-0.1400,0.9800,-10.0700,10.1185,-0.2182,-0.2422,-0.0829,0.00,173.50,150.44,0.1788,1.8748,-9.4019,9.5887
2,9,0,1,1,40.295,40295,0.3100,0.9200,-9.7700,9.8181,-0.1647,0.0774,-0.0502,-0.44,174.63,150.56,0.1961,1.7490,-9.4504,9.6129
2,9,0,1,1,40.425,40425,0.5300,1.4400,-9.4800,9.6034,-0.1014,0.0360,0.0676,0.31,176.06,150.81,0.2401,1.7083,-9.4543,9.6104
2,9,0,1,1,40.555,40555,0.0200,-0.0600,-9.4500,9.4502,0.1953,-0.1789,-0.0436,-1.19,174.25,150.56,0.2111,1.4753,-9.4538,9.5705
2,9,0,1,1,40.686,40686,0.3300,1.1200,-10.4300,10.4952,-0.3425,0.3371,-0.0196,0.06,175.75,150.56,0.2268,1.4285,-9.5824,9.6909
2,9,0,1,1,40.863,40863,0.2200,0.9900,-9.4300,9.4844,0.5192,-0.1440,-0.0513,0.75,174.00,150.63,0.2259,1.3707,-9.5623,9.6627
2,9,0,1,1,40.994,40994,-0.1500,0.3700,-9.2300,9.2386,0.2214,-0.1593,0.1396,-0.81,171.19,150.69,0.1763,1.2388,-9.5185,9.6004
2,9,0,1,1,41.125,41125,0.3500,1.7200,-10.4300,10.5767,-0.1374,0.2760,0.1342,-0.06,171.44,149.63,0.1992,1.3022,-9.6386,9.7282
2,10,0,1,1,41.255,41255,-0.9900,1.3900,-6.3500,6.5753,0.3872,0.0425,0.0338,0.19,170.63,149.44,0.0425,1.3138,-9.2053,9.2987
2,10,0,1,1,41.385,41385,-0.1600,1.4800,-10.8700,10.9715,-0.5760,0.1200,0.1669,0.00,171.06,149.88,0.0158,1.3357,-9.4246,9.5188
2,10,0,1,1,41.516,41516,0.1300,2.3000,-10.0700,10.3301,0.4581,-0.2214,0.0142,-0.44,171.94,149.38,0.0309,1.4628,-9.5097,9.6216
2,10,0,1,1,41.646,41646,-0.3300,0.7000,-9.2600,9.2923,0.1374,-0.0087,0.0556,-0.81,168.63,149.81,-0.0167,1.3623,-9.4768,9.5742
2,10,0,1,1,41.777,41777,0.6800,1.7000,-9.5900,9.7632,-0.2345,0.2073,0.0349,-0.06,169.94,149.44,0.0751,1.4068,-9.4917,9.5957
2,10,0,1,1,41.949,41949,0.7600,1.5900,-9.8600,10.0163,0.4603,-0.1276,-0.1134,-0.50,167.69,149.63,0.1654,1.4309,-9.5402,9.6484
2,10,0,1,1,42.079,42079,-0.0100,2.4500,-8.0300,8.3954,0.3785,-0.1680,-0.0720,-1.88,165.19,150.63,0.1423,1.5652,-9.3412,9.4725
2,10,0,1,1,42.209,42209,0.4600,1.8500,-10.6700,10.8390,-0.1985,0.2040,-0.0316,-1.00,164.06,151.00,0.1841,1.6027,-9.5163,9.6521
2,10,0,1,1,42.339,42339,0.3600,3.0000,-8.3000,8.8329,0.6349,-0.4789,-0.0415,-2.50,163.44,151.13,0.2073,1.7869,-9.3560,9.5274
2,10,0,1,1,42.469,42469,0.5700,2.8200,-8.3200,8.8034,-0.1156,0.3327,-0.0087,-2.94,160.94,151.31,0.2551,1.9230,-9.2195,9.4214
2,10,0,1,1,42.599,42599,1.1400,3.0300,-8.8900,9.4611,-0.0240,-0.0033,-0.0589,-2.00,161.25,150.56,0.3717,2.0689,-9.1761,9.4138
2,10,0,1,1,42.730,42730,0.6500,3.4200,-9.2800,9.9115,0.0807,-0.1145,-0.0284,-2.31,161.63,151.38,0.4084,2.2469,-9.1898,9.4693
2,10,0,1,1,42.860,42860,0.5500,2.7300,-8.1100,8.5748,0.1385,0.1113,-0.0382,-2.38,160.25,151.63,0.4270,2.3106,-9.0475,9.3476
2,10,0,1,1,43.033,43033,0.1200,3.5200,-7.9000,8.6496,-0.2869,0.1920,0.0284,-0.56,162.25,151.38,0.3866,2.4699,-8.8963,9.2409
2,10,0,1,1,43.163,43163,0.4100,2.7000,-9.3400,9.7311,-0.0382,0.0687,0.0491,0.63,162.75,150.75,0.3897,2.5003,-8.9548,9.3054
2,10,0,1,1,43.294,43294,0.1000,2.6400,-9.2300,9.6007,-0.2411,-0.1702,-0.0458,0.00,164.00,151.00,0.3515,2.5187,-8.9910,9.3438
2,10,0,1,1,43.424,43424,-0.4700,2.3900,-9.9400,10.2341,0.0873,0.1342,-0.0218,-0.19,164.56,151.06,0.2432,2.5017,-9.1161,9.4562
2,10,0,1,1,43.555,43555,0.7900,2.2000,-8.1000,8.4305,0.0229,0.1614,0.0982,1.31,163.81,150.81,0.3153,2.4620,-8.9822,9.3188
2,10,0,1,1,43.686,43686,-0.2700,1.9200,-9.2100,9.4119,-0.5301,0.0240,-0.0469,1.50,165.63,150.69,0.2382,2.3905,-9.0122,9.3269
2,10,0,1,1,43.816,43816,0.7000,1.8500,-9.5500,9.7527,-0.4156,-0.0415,-0.0316,1.88,169.69,150.69,0.2990,2.3193,-9.0831,9.3793
2,10,0,1,1,43.947,43947,-0.3500,0.8300,-9.6800,9.7218,-0.3054,-0.0327,-0.0905,1.38,171.56,151.19,0.2135,2.1231,-9.1617,9.4069
2,10,0,1,1,44.123,44123,0.1700,0.8800,-9.1000,9.1440,-0.4200,0.1549,-0.0633,2.81,176.56,151.75,0.2078,1.9593,-9.1536,9.3632
2,10,0,1,1,44.254,44254,-0.2800,-0.2900,-11.0700,11.0773,-0.3403,-0.0960,-0.0120,3.06,178.81,151.94,0.1435,1.6629,-9.4061,9.5531
2,10,0,1,1,44.385,44385,-0.2100,0.6400,-9.3400,9.3643,-0.1200,-0.1254,0.0131,2.31,-178.63,151.44,0.0969,1.5281,-9.3974,9.5213
2,10,0,1,1,44.515,44515,-0.6900,-0.2700,-10.7100,10.7356,0.1036,0.2269,0.0480,2.69,-179.31,151.25,-0.0068,1.2911,-9.5704,9.6571
2,10,0,1,1,44.645,44645,-0.0800,-0.1000,-8.8300,8.8309,0.3883,-0.0764,0.0818,3.56,178.81,151.31,-0.0164,1.1078,-9.4728,9.5374
2,10,0,1,1,44.776,44776,0.1000,0.3100,-9.6100,9.6155,-0.0305,-0.1440,-0.0338,2.44,178.13,150.75,-0.0011,1.0027,-9.4909,9.5437
2,10,0,1,1,44.906,44906,-0.2700,0.2400,-10.5300,10.5362,0.1134,-0.0142,-0.1756,2.00,177.50,151.00,-0.0365,0.9022,-9.6278,9.6701
2,10,0,1,1,45.037,45037,-0.1700,0.3700,-10.0600,10.0682,0.2934,-0.0982,0.0731,1.50,176.31,151.25,-0.0541,0.8321,-9.6848,9.7206
2,11,0,1,1,45.210,45210,-0.6300,0.1700,-9.3300,9.3528,0.0447,0.2705,0.0447,1.31,173.75,150.81,-0.1300,0.7448,-9.6380,9.6676
2,11,0,1,1,45.341,45341,0.0900,1.0500,-9.3900,9.4490,0.0611,-0.0033,0.1069,1.69,173.75,150.44,-0.1010,0.7850,-9.6053,9.6379
2,11,0,1,1,45.471,45471,0.2500,1.3600,-9.8100,9.9070,0.1069,-0.0360,0.0633,1.50,173.31,149.75,-0.0548,0.8608,-9.6323,9.6708
2,11,0,1,1,45.602,45602,-0.1400,1.2900,-9.3900,9.4792,0.2847,-0.1963,0.0578,0.56,171.94,149.44,-0.0660,0.9174,-9.6004,9.6443
2,11,0,1,1,45.732,45732,-0.2500,1.2400,-9.3300,9.4154,0.2607,0.2083,0.0338,0.81,170.00,149.31,-0.0902,0.9599,-9.5647,9.6132
2,11,0,1,1,45.867,45867,1.0900,2.0700,-9.3000,9.5897,0.0229,0.2073,0.0840,2.25,168.94,148.75,0.0653,1.1062,-9.5299,9.5941
2,11,0,1,1,45.997,45997,0.6100,2.1200,-8.9400,9.2082,0.3098,-0.3698,0.0993,1.00,167.88,148.75,0.1371,1.2398,-9.4521,9.5341
2,11,0,1,1,46.130,46130,-1.2300,1.9500,-10.1000,10.3598,0.1440,0.3763,-0.0971,0.19,165.38,149.19,-0.0431,1.3333,-9.5375,9.6304
2,11,0,1,1,46.302,46302,0.2900,2.4500,-9.5500,9.8635,0.4374,-0.3600,-0.0349,0.81,162.69,148.75,0.0008,1.4805,-9.5392,9.6534
2,11,0,1,1,46.432,46432,0.0600,3.2800,-8.6800,9.2792,0.2214,0.1560,0.0327,-0.38,160.38,149.31,0.0086,1.7176,-9.4259,9.5812
2,11,0,1,1,46.562,46562,0.0200,2.9500,-7.2900,7.8643,0.2771,-0.2105,0.0327,-1.19,157.69,148.63,0.0101,1.8800,-9.1445,9.3357
2,11,0,1,1,46.692,46692,0.6400,4.0400,-9.3900,10.2422,-0.1713,0.1451,0.1287,-1.06,157.88,148.19,0.0931,2.1646,-9.1768,9.4291
2,11,0,1,1,46.822,46822,0.8500,4.0400,-8.0400,9.0380,0.3000,-0.1440,-0.0098,-1.38,157.50,147.50,0.1929,2.4118,-9.0270,9.3456
2,11,0,1,1,46.952,46952,0.6200,3.4300,-8.0000,8.7264,-0.0687,0.0196,-0.0513,-2.00,156.25,147.88,0.2491,2.5459,-8.8917,9.2524
2,11,0,1,1,47.083,47083,0.5600,4.1600,-8.6700,9.6327,-0.1996,0.0273,-0.0818,-1.63,157.94,148.38,0.2901,2.7586,-8.8625,9.2864
2,11,0,1,1,47.213,47213,0.8900,3.6000,-8.5200,9.2921,0.1276,-0.1189,0.0316,-1.88,157.50,148.81,0.3692,2.8695,-8.8173,9.2799
2,11,0,1,1,47.386,47386,0.4900,3.3500,-8.9400,9.5596,-0.1887,0.1887,0.0076,-2.69,157.19,148.63,0.3851,2.9328,-8.8335,9.3156
2,11,0,1,1,47.516,47516,0.8800,3.5200,-8.7400,9.4632,-0.0698,0.2454,0.0633,-0.94,158.44,148.06,0.4503,3.0102,-8.8212,9.3315
2,11,0,1,1,47.646,47646,0.1300,2.5400,-8.7700,9.1313,-0.2182,0.0916,-0.0622,0.00,159.06,148.06,0.4081,2.9482,-8.8144,9.3034
2,11,0,1,1,47.776,47776,-0.4700,2.3000,-9.3100,9.6014,-0.6992,0.1309,-0.1309,0.63,162.69,148.81,0.2924,2.8628,-8.8797,9.3344
2,11,0,1,1,47.906,47906,-0.3700,2.3000,-10.1700,10.4334,-0.5454,0.3272,-0.0633,2.63,167.50,148.50,0.2051,2.7887,-9.0498,9.4719
2,11,0,1,1,48.036,48036,0.5600,1.2900,-9.1100,9.2179,-0.0665,-0.2160,-0.1353,3.56,169.19,148.69,0.2519,2.5912,-9.0577,9.4244
2,11,0,1,1,48.166,48166,-1.0800,0.0200,-10.4800,10.5355,-0.7679,-0.1822,-0.0164,1.19,171.69,149.81,0.0764,2.2524,-9.2451,9.5158
2,11,0,1,1,48.297,48297,0.4100,1.1800,-10.7100,10.7826,-0.7385,0.1167,0.0644,1.75,178.38,149.75,0.1203,2.1110,-9.4382,9.6721
2,11,0,1,1,48.470,48470,-0.1800,-0.1300,-10.1300,10.1324,0.2574,-0.0807,-0.0436,1.19,178.25,150.00,0.0807,1.8157,-9.5293,9.7011
2,11,0,1,1,48.601,48601,0.2000,0.4200,-9.0200,9.0320,0.1124,-0.1156,-0.0425,0.88,177.44,150.00,0.0965,1.6318,-9.4622,9.6024
2,11,0,1,1,48.731,48731,0.7900,0.4000,-11.0900,11.1253,0.0109,-0.1767,-0.0076,-0.13,176.56,149.94,0.1879,1.4695,-9.6767,9.7895
2,12,0,1,1,48.862,48862,-0.1200,1.0900,-9.5300,9.5929,0.3153,-0.1702,-0.0589,-1.75,176.06,150.06,0.1473,1.4195,-9.6574,9.7623
2,12,0,1,1,48.993,48993,-0.1600,0.0500,-9.6400,9.6415,0.3262,0.3578,0.1854,-0.63,172.81,149.50,0.1068,1.2390,-9.6551,9.7349
2,12,0,1,1,49.128,49128,1.1700,1.0700,-9.4600,9.5919,-0.0927,0.0142,0.1276,0.81,172.31,147.63,0.2469,1.2167,-9.6294,9.7091
2,12,0,1,1,49.259,49259,0.5300,1.4600,-9.6500,9.7742,0.1571,-0.2258,0.0065,-0.69,172.13,147.50,0.2842,1.2488,-9.6321,9.7169
2,12,0,1,1,49.390,49390,0.1600,1.1800,-9.6400,9.7133,0.1713,0.0862,-0.0022,-1.38,170.69,148.19,0.2678,1.2397,-9.6331,9.7163
2,12,0,1,1,49.563,49563,0.2500,1.4500,-9.2100,9.3268,0.0774,-0.0873,0.0971,-1.88,169.63,147.44,0.2655,1.2674,-9.5774,9.6645
2,12,0,1,1,49.693,49693,-0.1800,1.6300,-10.3000,10.4297,0.0513,0.2062,0.0818,-1.63,169.25,146.75,0.2068,1.3152,-9.6726,9.7638
2,12,0,1,1,49.824,49824,0.8100,2.1600,-9.3900,9.6692,0.3447,0.0120,0.0513,-0.75,168.06,145.69,0.2863,1.4265,-9.6354,9.7446
2,12,0,1,1,49.955,49955,0.1900,1.7600,-9.2900,9.4572,0.2160,-0.0949,-0.0349,-1.50,165.44,145.88,0.2736,1.4705,-9.5899,9.7058
2,12,0,1,1,50.085,50085,0.5800,2.6500,-9.7300,10.1011,0.3043,-0.1244,-0.0764,-1.19,164.44,145.88,0.3140,1.6259,-9.6083,9.7500
2,12,0,1,1,50.216,50216,0.5000,2.3700,-7.9800,8.3395,0.4778,-0.0720,-0.0087,-2.13,161.31,146.19,0.3385,1.7240,-9.3937,9.5566
2,12,0,1,1,50.346,50346,0.6500,3.1800,-8.1200,8.7447,-0.0687,0.0687,0.0796,-1.81,159.94,146.13,0.3795,1.9158,-9.2259,9.4304
2,12,0,1,1,50.480,50480,1.2700,4.2900,-8.6000,9.6942,0.3851,-0.0993,0.1156,-1.94,159.63,145.56,0.4969,2.2287,-9.1434,9.4242
2,12,0,1,1,50.654,50654,0.7700,3.7200,-8.2400,9.0735,-0.2291,0.2116,0.0382,-2.25,156.88,146.19,0.5329,2.4252,-9.0244,9.3597
2,12,0,1,1,50.784,50784,0.7600,4.3900,-8.6700,9.7477,0.0764,-0.0742,-0.0382,-2.06,157.69,145.75,0.5628,2.6841,-8.9777,9.3872
2,12,0,1,1,50.934,50934,0.4000,3.6000,-8.5200,9.2580,0.0676,0.0164,0.0044,-2.13,156.25,146.38,0.5413,2.8048,-8.9174,9.3637
2,12,0,1,1,51.064,51064,0.4000,3.5900,-8.0500,8.8233,-0.0753,0.1244,0.1527,-1.56,156.63,145.75,0.5227,2.9083,-8.8031,9.2858
2,12,0,1,1,51.195,51195,0.5000,3.2300,-9.2600,9.8199,-0.2476,0.2629,0.0404,-0.25,157.56,145.00,0.5197,2.9507,-8.8633,9.3560
2,12,0,1,1,51.326,51326,0.7400,3.9700,-9.0800,9.9375,-0.0229,-0.2793,-0.0196,-0.19,159.19,144.81,0.5487,3.0850,-8.8918,9.4278
2,12,0,1,1,51.457,51457,-0.2500,2.9600,-8.7400,9.2310,0.0644,0.0513,-0.0774,-1.25,158.31,145.75,0.4435,3.0685,-8.8718,9.3980
2,12,0,1,1,51.587,51587,0.4700,3.2600,-9.2800,9.8472,-0.2847,0.1833,-0.0295,0.31,159.75,145.69,0.4470,3.0938,-8.9256,9.4572
2,12,0,1,1,51.760,51760,0.1200,2.9300,-9.0600,9.5228,-0.0873,-0.0218,-0.0153,0.44,161.50,145.81,0.4039,3.0722,-8.9433,9.4649
2,12,0,1,1,51.890,51890,0.9200,2.7400,-9.1900,9.6338,-0.2553,-0.0142,0.0851,0.50,163.00,145.44,0.4719,3.0284,-8.9758,9.4847
2,12,0,1,1,52.021,52021,-0.0500,2.2400,-9.6900,9.9457,-0.3512,-0.1102,-0.1484,0.19,165.06,146.06,0.4031,2.9245,-9.0699,9.5383
2,12,0,1,1,52.151,52151,0.5000,1.9700,-9.2800,9.5000,-0.3502,-0.0556,-0.0862,-0.31,167.69,146.81,0.4159,2.7987,-9.0976,9.5275
2,12,0,1,1,52.282,52282,-0.2000,1.3700,-10.3400,10.4323,-0.4211,0.1800,-0.1036,0.19,170.38,147.56,0.3347,2.6105,-9.2613,9.6280
2,12,0,1,1,52.413,52413,0.6800,1.2500,-9.4600,9.5664,-0.2967,-0.0175,0.0109,0.94,173.19,147.88,0.3802,2.4312,-9.2875,9.6080
2,12,0,1,1,52.543,52543,0.2300,0.8900,-9.5900,9.6340,-0.2411,-0.1811,-0.1080,-0.19,174.94,148.19,0.3604,2.2281,-9.3274,9.5966
2,12,0,1,1,52.674,52674,0.0900,0.6800,-9.7000,9.7242,-0.2487,0.0513,0.0196,-0.81,176.75,148.44,0.3248,2.0241,-9.3765,9.5980
2,12,0,1,1,52.850,52850,0.2400,0.1500,-9.7500,9.7541,-0.1178,0.0633,-0.0240,0.38,178.25,148.00,0.3136,1.7771,-9.4257,9.5969
2,12,0,1,1,52.980,52980,0.2000,0.4500,-10.3200,10.3317,-0.1473,-0.0665,-0.0196,0.13,179.25,147.75,0.2987,1.6023,-9.5435,9.6817
2,12,0,1,1,53.112,53112,-0.0300,0.1400,-9.5600,9.5611,0.1833,0.0458,-0.0567,-0.06,178.88,147.88,0.2553,1.4096,-9.5457,9.6526
2,12,0,1,1,53.242,53242,0.5600,0.1000,-8.8000,8.8184,0.0611,0.2782,-0.0524,1.75,178.19,148.13,0.2955,1.2370,-9.4474,9.5327
2,12,0,1,1,53.372,53372,1.1700,0.6600,-11.2500,11.3299,-0.2083,-0.4516,-0.0065,1.25,178.69,147.63,0.4107,1.1610,-9.6850,9.7630
2,13,0,1,1,53.502,53502,-0.4100,0.8100,-9.4500,9.4935,0.5618,-0.1887,-0.1429,-1.75,177.25,148.19,0.3026,1.1147,-9.6540,9.7229
2,13,0,1,1,53.633,53633,-0.0700,0.2300,-9.7600,9.7630,0.4047,0.1909,-0.0502,-1.19,173.19,148.56,0.2535,0.9981,-9.6680,9.7227
2,13,0,1,1,53.764,53764,0.4600,0.8200,-8.9800,9.0291,0.2062,-0.2280,0.0807,-1.25,171.38,148.25,0.2807,0.9747,-9.5773,9.6309
2,13,0,1,1,53.936,53936,0.8500,1.6200,-9.7400,9.9103,-0.1505,0.1429,0.1778,-1.56,171.88,147.19,0.3557,1.0597,-9.5988,9.6636
2,13,0,1,1,54.067,54067,0.8900,1.5000,-10.0000,10.1510,0.3447,-0.0545,-0.0938,-1.38,170.75,146.75,0.4261,1.1177,-9.6516,9.7255
2,13,0,1,1,54.197,54197,0.6600,1.5100,-9.6900,9.8291,0.1931,-0.1745,-0.0960,-2.25,168.63,147.81,0.4569,1.1694,-9.6567,9.7380
2,13,0,1,1,54.328,54328,-0.5900,1.5800,-11.2500,11.3757,-0.0513,-0.0284,-0.1254,-3.25,167.94,148.75,0.3190,1.2235,-9.8666,9.9473
2,13,0,1,1,54.458,54458,0.8100,2.0900,-8.1800,8.4815,0.6283,-0.1614,0.0371,-2.56,166.06,148.81,0.3837,1.3377,-9.6444,9.7443
2,13,0,1,1,54.592,54592,-0.1700,2.5400,-9.6600,9.9898,0.0185,0.1331,0.1429,-3.38,163.50,148.63,0.3107,1.4961,-9.6464,9.7667
2,13,0,1,1,54.722,54722,0.4300,3.1400,-8.3300,8.9125,0.5291,0.0480,0.0785,-2.75,161.31,146.75,0.3264,1.7128,-9.4730,9.6321
2,13,0,1,1,54.856,54856,0.2600,3.0100,-8.4500,8.9739,0.1985,-0.0284,0.0491,-2.38,158.81,146.06,0.3177,1.8837,-9.3382,9.5316
2,13,0,1,1,55.028,55028,0.7500,3.9300,-8.3700,9.2771,0.0665,-0.0753,-0.0513,-1.94,158.50,146.00,0.3747,2.1533,-9.2106,9.4664
2,13,0,1,1,55.158,55158,0.4200,3.6600,-8.5500,9.3099,0.1069,-0.1494,-0.0545,-2.56,157.63,146.56,0.3806,2.3519,-9.1235,9.4295
2,13,0,1,1,55.288,55288,0.4900,3.4800,-8.0000,8.7379,-0.0415,-0.0469,-0.0349,-3.00,157.31,147.00,0.3950,2.5005,-8.9755,9.3257
2,13,0,1,1,55.418,55418,0.8900,3.3000,-8.7800,9.4218,-0.3120,0.1691,-0.0567,-2.44,158.69,146.88,0.4603,2.6059,-8.9497,9.3327
2,13,0,1,1,55.548,55548,0.3400,3.9000,-9.1600,9.9615,-0.0774,-0.0131,0.0567,-2.19,160.13,146.88,0.4444,2.7764,-8.9774,9.4075
2,13,0,1,1,55.678,55678,0.3200,3.2200,-8.5800,9.1699,0.3567,-0.1582,0.0938,-2.69,158.38,146.81,0.4280,2.8349,-8.9251,9.3742
2,13,0,1,1,55.809,55809,0.2800,2.7300,-8.6300,9.0558,-0.2323,0.0273,-0.1484,-3.31,157.81,146.94,0.4085,2.8211,-8.8862,9.3322
2,13,0,1,1,55.939,55939,0.7400,3.6300,-8.9900,9.7234,-0.2847,0.1124,0.0175,-2.19,160.31,147.00,0.4522,2.9277,-8.8999,9.3799
2,13,0,1,1,56.112,56112,0.3300,2.4200,-9.2500,9.5670,-0.3392,-0.1407,0.0164,-3.31,162.81,147.38,0.4361,2.8608,-8.9460,9.4024
2,13,0,1,1,56.243,56243,1.0600,2.4100,-9.8700,10.2151,-0.3316,0.1527,0.0338,-2.94,165.63,147.13,0.5183,2.8014,-9.0678,9.5048
2,13,0,1,1,56.374,56374,0.3600,1.6000,-9.6800,9.8179,-0.3087,0.1516,-0.0535,-1.81,167.50,147.38,0.4974,2.6430,-9.1484,9.5356
2,13,0,1,1,56.504,56504,0.4700,1.7300,-9.6500,9.8151,-0.4505,0.0491,-0.0240,-0.88,170.69,147.94,0.4938,2.5227,-9.2145,9.5664
2,13,0,1,1,56.635,56635,0.3400,0.9400,-9.6600,9.7116,-0.2574,-0.0774,-0.0720,-1.25,173.00,148.50,0.4736,2.3142,-9.2732,9.5694
2,13,0,1,1,56.765,56765,0.4300,0.4900,-9.4400,9.4625,-0.3305,0.0840,-0.0185,-1.13,175.25,149.06,0.4678,2.0738,-9.2952,9.5352
2,13,0,1,1,56.896,56896,0.4000,0.4500,-9.9200,9.9383,-0.3851,0.0589,-0.0164,-0.56,178.25,149.31,0.4589,1.8598,-9.3775,9.5712
2,13,0,1,1,57.026,57026,0.3000,0.2100,-9.8900,9.8968,0.0175,-0.0535,0.0338,-0.88,179.19,149.25,0.4379,1.6424,-9.4451,9.5968
2,13,0,1,1,57.203,57203,0.6200,0.4300,-10.0100,10.0384,0.0982,0.0109,0.0567,-0.94,178.81,148.94,0.4619,1.4826,-9.5195,9.6453
2,13,0,1,1,57.333,57333,0.5000,0.3500,-9.8300,9.8489,0.2902,-0.1113,-0.0120,-1.63,177.19,148.75,0.4670,1.3334,-9.5604,9.6643
2,13,0,1,1,57.464,57464,0.3000,0.7100,-9.7000,9.7306,0.2334,-0.1069,0.1473,-2.94,175.06,148.69,0.4450,1.2512,-9.5788,9.6704
2,13,0,1,1,57.594,57594,0.6900,1.0600,-10.0500,10.1293,0.1549,0.0229,0.0513,-3.00,173.81,148.13,0.4772,1.2260,-9.6409,9.7303
2,13,0,1,1,57.725,57725,0.6300,1.6200,-9.9500,10.1007,0.3262,-0.0665,-0.0382,-3.19,172.19,147.75,0.4974,1.2780,-9.6816,9.7783
2,14,0,1,1,57.855,57855,0.3300,1.1100,-8.9700,9.0444,0.3829,-0.0589,-0.0807,-3.63,169.13,148.19,0.4753,1.2558,-9.5879,9.6814
2,14,0,1,1,57.986,57986,0.4900,1.6600,-9.5600,9.7154,0.1298,0.0480,0.0044,-3.69,167.31,148.44,0.4773,1.3091,-9.5842,9.6849
2,14,0,1,1,58.116,58116,0.9700,2.2900,-9.8300,10.1397,0.2062,-0.0338,-0.1331,-3.13,166.38,148.56,0.5422,1.4383,-9.6166,9.7387
2,14,0,1,1,58.289,58289,0.5600,1.8800,-8.7400,8.9574,0.1047,-0.1734,-0.1724,-4.38,164.44,149.69,0.5445,1.4965,-9.5011,9.6336
2,14,0,1,1,58.419,58419,0.5400,2.8700,-9.2900,9.7382,0.0502,0.0447,0.0185,-4.56,164.44,150.38,0.5439,1.6775,-9.4733,9.6360
2,14,0,1,1,58.549,58549,1.0600,3.1900,-9.0300,9.6354,0.4560,0.2323,0.1254,-3.44,162.56,149.38,0.6119,1.8768,-9.4148,9.6196
2,14,0,1,1,58.679,58679,0.9500,3.0700,-7.0000,7.7024,0.3796,-0.2225,0.2825,-3.31,159.31,147.94,0.6565,2.0341,-9.0966,9.3444
2,14,0,1,1,58.809,58809,0.6600,3.1400,-9.4000,9.9325,0.0338,0.0153,0.0109,-4.06,157.63,147.69,0.6569,2.1798,-9.1366,9.4160
2,14,0,1,1,58.939,58939,0.8500,4.4600,-9.1400,10.2056,0.4538,-0.0687,0.0480,-4.56,156.38,147.56,0.6824,2.4803,-9.1371,9.4923
2,14,0,1,1,59.069,59069,0.6300,3.4000,-7.2400,8.0234,0.4516,0.0829,0.0295,-4.69,151.94,147.38,0.6755,2.6015,-8.8871,9.2846
2,14,0,1,1,59.199,59199,1.0100,4.5300,-8.8400,9.9843,-0.5029,0.1276,0.0698,-3.63,153.19,147.00,0.7196,2.8556,-8.8809,9.3564
2,14,0,1,1,59.372,59372,0.4400,4.6800,-8.1600,9.4171,0.6130,0.2182,-0.0425,-3.19,152.75,146.56,0.6827,3.0960,-8.7859,9.3404
2,14,0,1,1,59.502,59502,0.7200,3.6900,-8.5400,9.3309,-0.1811,0.0382,-0.0665,-2.00,150.88,146.50,0.6876,3.1743,-8.7535,9.3366
2,14,0,1,1,59.632,59632,0.3200,4.6000,-8.0000,9.2338,-0.0284,-0.0425,-0.0207,-2.00,152.75,146.88,0.6392,3.3622,-8.6542,9.3063
2,14,0,1,1,59.762,59762,0.6600,3.8200,-8.5100,9.3514,-0.2422,0.0589,-0.0436,-1.44,153.00,147.38,0.6419,3.4225,-8.6352,9.3109
2,14,0,1,1,59.892,59892,0.0000,3.9100,-8.9500,9.7668,-0.2989,0.0480,-0.0011,-1.25,155.31,147.19,0.5573,3.4867,-8.6767,9.3676
2,14,0,1,1,60.022,60022,0.6100,3.7400,-8.6200,9.4162,-0.1702,0.0393,0.0993,-1.00,156.94,146.94,0.5643,3.5201,-8.6692,9.3736
2,14,0,1,1,60.152,60152,0.6400,3.3800,-8.7300,9.3833,-0.1647,-0.0098,0.0273,-1.06,158.13,146.69,0.5743,3.5016,-8.6772,9.3747
2,14,0,1,1,60.283,60283,-0.2200,2.8500,-9.3200,9.7485,-0.4222,-0.0458,-0.0807,-1.25,160.13,146.69,0.4696,3.4158,-8.7619,9.4159
2,14,0,1,1,60.456,60456,-0.0300,3.0700,-10.0700,10.5276,-0.4200,0.1887,-0.0185,-0.56,164.75,146.25,0.4038,3.3702,-8.9343,9.5573
2,14,0,1,1,60.587,60587,0.4500,2.1900,-9.2400,9.5066,-0.0316,-0.0436,0.0535,0.00,166.00,145.75,0.4099,3.2147,-8.9746,9.5418
2,14,0,1,1,60.717,60717,0.0600,1.3600,-9.2600,9.3595,-0.3447,-0.2683,-0.2236,-1.31,167.19,146.25,0.3638,2.9703,-9.0122,9.4960
2,14,0,1,1,60.848,60848,-0.6100,0.1800,-11.3200,11.3379,-0.8912,0.0436,-0.2378,-2.00,171.25,148.63,0.2354,2.6026,-9.3163,9.6759
2,14,0,1,1,60.979,60979,0.8200,2.4800,-9.2000,9.5636,-0.3949,0.0185,0.0393,-0.44,177.94,148.31,0.3125,2.5864,-9.3010,9.6590
2,14,0,1,1,61.114,61114,-0.0300,-0.2700,-9.8900,9.8937,0.3371,-0.1822,-0.0545,-1.69,176.13,148.31,0.2673,2.2100,-9.3786,9.6392
2,14,0,1,1,61.245,61245,0.5000,0.7200,-8.9200,8.9630,-0.2149,0.0611,-0.0218,-1.69,177.00,147.63,0.2980,2.0137,-9.3182,9.5379
2,14,0,1,1,61.376,61376,0.2500,-0.2800,-9.8500,9.8572,-0.1167,-0.0993,-0.0055,-2.25,177.31,147.56,0.2917,1.7114,-9.3882,9.5474
2,14,0,1,1,61.566,61566,0.9900,0.5800,-11.0600,11.1194,-0.2040,0.0633,-0.0076,-1.56,-179.06,147.50,0.3837,1.5623,-9.6085,9.7423
2,14,0,1,1,61.696,61696,0.0800,0.7200,-10.0800,10.1060,0.6425,-0.0862,0.0044,-2.56,178.81,147.44,0.3437,1.4513,-9.6707,9.7850
2,15,0,1,1,61.827,61827,0.9000,0.0000,-9.3100,9.3534,0.4429,0.1822,-0.0753,-0.63,174.31,147.75,0.4170,1.2601,-9.6231,9.7142
2,15,0,1,1,61.958,61958,0.8200,0.9200,-7.8200,7.9165,0.1276,-0.3774,-0.0349,-1.81,173.69,147.56,0.4701,1.2153,-9.3855,9.4756
2,15,0,1,1,62.088,62088,0.0800,0.7200,-11.2800,11.3032,-0.3360,0.1625,0.0153,-3.19,173.56,148.13,0.4187,1.1500,-9.6352,9.7126
2,15,0,1,1,62.219,62219,1.3400,1.9200,-10.5400,10.7969,0.2749,0.0535,0.0251,-1.75,174.25,147.50,0.5401,1.2515,-9.7544,9.8492
2,15,0,1,1,62.349,62349,0.1000,0.7800,-9.2000,9.2335,0.5629,-0.0851,0.0011,-2.38,170.50,147.50,0.4821,1.1893,-9.6813,9.7660
2,15,0,1,1,62.479,62479,-0.2200,1.0100,-9.1200,9.1784,-0.1953,0.0415,0.0524,-1.69,169.19,147.56,0.3896,1.1657,-9.6074,9.6857
2,15,0,1,1,62.652,62652,0.3800,2.1800,-9.4100,9.6667,0.6512,-0.2400,-0.1898,-1.13,168.94,146.94,0.3883,1.2994,-9.5814,9.6769
2,15,0,1,1,62.782,62782,-0.1600,1.1600,-9.0500,9.1254,-0.0371,0.0894,-0.0644,-2.31,165.44,147.75,0.3161,1.2810,-9.5113,9.6024
2,15,0,1,1,62.912,62912,0.4300,2.9400,-9.2000,9.6679,0.0371,-0.0011,0.0305,-2.44,166.50,146.56,0.3311,1.4996,-9.4703,9.5940
2,15,0,1,1,63.042,63042,0.2700,2.3100,-9.6100,9.8874,0.1898,0.2716,-0.0240,-1.44,165.38,145.94,0.3230,1.6064,-9.4887,9.6292
2,15,0,1,1,63.172,63172,0.8000,2.8200,-8.8100,9.2849,0.2018,-0.1353,0.0742,-0.69,164.31,145.25,0.3859,1.7663,-9.3993,9.5716
2,15,0,1,1,63.302,63302,-0.4100,2.5200,-9.1000,9.4514,0.2749,-0.1462,-0.0196,-1.88,161.94,145.75,0.2810,1.8656,-9.3598,9.5481
2,15,0,1,1,63.432,63432,1.1100,3.7700,-8.5400,9.4009,0.2236,0.1320,0.1593,-0.75,161.44,144.94,0.3902,2.1166,-9.2518,9.4989
2,15,0,1,1,63.562,63562,0.4600,2.9100,-8.4400,8.9394,0.2280,-0.0415,0.0142,-0.88,159.13,144.81,0.3994,2.2211,-9.1448,9.4192
2,15,0,1,1,63.735,63735,0.1900,3.5300,-8.7400,9.4279,-0.1429,-0.1865,-0.0949,-1.75,159.81,144.75,0.3718,2.3936,-9.0915,9.4087
2,15,0,1,1,63.866,63866,0.0800,3.2000,-9.3300,9.8638,-0.0764,0.2836,0.0709,-1.31,160.50,145.00,0.3334,2.4999,-9.1229,9.4651
2,15,0,1,1,63.996,63996,1.1100,3.7200,-7.3200,8.2857,0.1385,-0.0185,0.1244,0.06,160.50,144.75,0.4357,2.6607,-8.8853,9.2854
2,15,0,1,1,64.126,64126,0.4400,3.5100,-9.1100,9.7727,-0.1004,-0.3131,-0.0185,-1.50,159.81,145.19,0.4363,2.7726,-8.9149,9.3463
2,15,0,1,1,64.256,64256,-0.3600,3.1500,-9.1100,9.6459,-0.0316,-0.0011,-0.0284,-2.69,160.25,145.31,0.3314,2.8223,-8.9406,9.3814
2,15,0,1,1,64.386,64386,0.9400,2.8600,-9.3100,9.7846,-0.1800,0.2433,0.0240,-1.69,160.94,144.94,0.4116,2.8273,-8.9893,9.4324
2,15,0,1,1,64.516,64516,0.4100,2.7900,-9.0900,9.5174,-0.5203,-0.0742,-0.0207,-1.00,163.75,145.19,0.4114,2.8224,-9.0026,9.4436
2,15,0,1,1,64.646,64646,0.2800,2.2000,-9.8700,10.1161,-0.2629,0.0175,-0.0033,-1.56,166.44,145.56,0.3940,2.7404,-9.1169,9.5280
2,15,0,1,1,64.819,64819,0.9800,2.0700,-8.8900,9.1803,-0.2989,-0.1069,-0.0415,-0.50,169.63,146.50,0.4713,2.6520,-9.0870,9.4778
2,15,0,1,1,64.950,64950,0.0400,0.7400,-9.0600,9.0903,-0.3665,-0.4211,-0.1942,-2.56,171.69,147.75,0.4144,2.4001,-9.0834,9.4043
2,15,0,1,1,65.080,65080,0.3300,0.5500,-10.2200,10.2401,-0.6927,0.2214,0.0316,-2.94,175.56,148.44,0.4033,2.1563,-9.2332,9.4902
2,15,0,1,1,65.211,65211,1.2300,0.9100,-10.1900,10.3042,-0.3403,0.0654,0.0458,-1.13,-179.94,147.94,0.5122,1.9920,-9.3593,9.5826
2,15,0,1,1,65.341,65341,0.4300,0.1700,-10.1100,10.1206,0.3054,-0.2280,0.0458,-2.31,179.44,147.38,0.5014,1.7519,-9.4582,9.6322
2,15,0,1,1,65.472,65472,0.5500,-0.3700,-9.9200,9.9421,0.0382,0.0316,0.0425,-3.06,178.19,146.63,0.5078,1.4723,-9.5191,9.6456
2,15,0,1,1,65.603,65603,0.6400,0.3900,-11.1000,11.1253,-0.1604,0.1254,-0.0524,-2.44,178.81,146.63,0.5252,1.3297,-9.7274,9.8319
2,16,0,1,1,65.738,65738,-0.0600,0.2700,-8.0200,8.0248,0.5411,-0.3229,-0.0338,-4.19,177.38,147.00,0.4481,1.1901,-9.5024,9.5871
2,16,0,1,1,65.911,65911,0.0900,0.8800,-5.8600,5.9264,0.3109,0.3752,-0.1069,-3.13,176.69,147.31,0.4009,1.1492,-9.0224,9.1042
2,16,0,1,1,66.041,66041,1.5200,1.0400,-11.1500,11.3011,-0.3927,-0.1898,-0.0382,-2.25,177.31,147.13,0.5484,1.1348,-9.3028,9.3878
2,16,0,1,1,66.171,66171,-0.2000,0.9300,-9.4900,9.5376,0.5487,-0.0873,-0.0305,-3.50,176.31,147.31,0.4498,1.1078,-9.3275,9.4038
2,16,0,1,1,66.301,66301,1.1800,0.1700,-8.4500,8.5337,0.6327,0.5345,0.0480,-1.44,171.19,147.25,0.5460,0.9842,-9.2118,9.2803
2,16,0,1,1,66.431,66431,1.4800,1.9800,-10.5400,10.8260,-0.7461,-0.1113,0.1309,0.00,174.25,146.31,0.6691,1.1155,-9.3868,9.4765
2,16,0,1,1,66.561,66561,0.2700,2.1300,-9.2300,9.4764,0.7963,-0.3392,0.0327,-2.06,173.50,145.81,0.6165,1.2491,-9.3662,9.4692
2,16,0,1,1,66.692,66692,0.3400,-0.0400,-9.9300,9.9359,0.2487,0.7974,-0.0131,0.00,168.19,146.00,0.5801,1.0793,-9.4405,9.5197
2,16,0,1,1,66.822,66822,1.2300,2.1600,-8.8200,9.1636,-0.0327,-0.1178,0.1320,2.56,169.38,144.56,0.6657,1.2217,-9.3587,9.4616
2,16,0,1,1,66.995,66995,-0.3500,2.3100,-9.8400,10.1136,0.1124,-0.2083,-0.0796,-0.25,169.38,144.81,0.5319,1.3651,-9.4221,9.5354
2,16,0,1,1,67.126,67126,-0.0600,1.5300,-8.0400,8.1845,0.2465,-0.2247,0.0316,-0.94,166.94,145.69,0.4539,1.3868,-9.2400,9.3545
2,16,0,1,1,67.257,67257,1.2800,3.4000,-9.3200,10.0030,0.2302,0.1680,0.1909,0.00,166.50,145.69,0.5627,1.6521,-9.2505,9.4138
2,16,0,1,1,67.387,67387,0.2100,2.6200,-9.0100,9.3856,0.3043,-0.1473,0.1342,-0.75,163.63,145.00,0.5162,1.7797,-9.2188,9.4032
2,16,0,1,1,67.518,67518,0.7300,3.7900,-8.4500,9.2898,0.2989,0.1102,0.3829,-0.81,162.13,144.19,0.5444,2.0446,-9.1175,9.3598
2,16,0,1,1,67.648,67648,1.0200,2.9400,-7.2500,7.8896,0.4767,-0.0502,0.0884,-0.81,158.88,142.88,0.6071,2.1626,-8.8714,9.1514
2,16,0,1,1,67.782,67782,0.9000,4.0300,-8.8100,9.7297,-0.0393,0.0633,0.1320,-0.88,157.81,142.94,0.6457,2.4086,-8.8633,9.2075
2,16,0,1,1,67.913,67913,1.0300,3.9200,-7.6900,8.6927,0.3774,-0.1691,0.0425,-1.31,156.88,142.94,0.6963,2.6078,-8.7087,9.1174
2,16,0,1,1,68.086,68086,0.5000,3.8200,-8.4700,9.3050,-0.2378,-0.0785,0.0349,-2.56,156.13,144.06,0.6705,2.7675,-8.6773,9.1326
2,16,0,1,1,68.216,68216,0.9600,3.8600,-8.4600,9.3484,-0.1036,0.0785,-0.0240,-2.25,157.38,144.06,0.7086,2.9115,-8.6486,9.1530
2,16,0,1,1,68.347,68347,0.2800,3.2300,-8.1700,8.7898,-0.3742,-0.1407,-0.0971,-2.69,158.81,145.25,0.6521,2.9535,-8.5856,9.1028
2,16,0,1,1,68.477,68477,0.2400,3.2400,-9.2000,9.7568,-0.4385,0.1636,0.0578,-2.25,162.13,145.56,0.5978,2.9912,-8.6665,9.1877
2,16,0,1,1,68.608,68608,0.3700,3.0600,-9.6300,10.1113,0.2400,0.1963,0.0774,-1.25,162.63,144.56,0.5678,3.0003,-8.7935,9.3086
2,16,0,1,1,68.738,68738,0.1700,1.6400,-8.8100,8.9630,-0.2847,0.0033,-0.0284,-0.31,161.94,145.00,0.5154,2.8210,-8.7957,9.2514
2,16,0,1,1,68.868,68868,-0.1700,2.1900,-9.8600,10.1017,-0.8836,0.0033,0.0960,-0.44,167.25,144.25,0.4251,2.7379,-8.9359,9.3556
2,16,0,1,1,68.999,68999,0.5400,2.0700,-10.0200,10.2458,-0.2487,0.0240,0.0109,-0.19,171.31,144.25,0.4402,2.6499,-9.0788,9.4678
2,16,0,1,1,69.172,69172,0.2700,0.2900,-10.0800,10.0878,-0.3458,-0.1451,-0.0960,-0.75,173.13,145.31,0.4178,2.3389,-9.2107,9.5122
2,16,0,1,1,69.302,69302,0.0900,1.0300,-10.4300,10.4811,-0.5618,0.1440,-0.0545,-1.00,177.31,145.50,0.3746,2.1664,-9.3714,9.6258
2,16,0,1,1,69.433,69433,0.3200,0.7200,-9.9800,10.0111,0.0720,0.0251,0.0022,-0.19,178.31,145.81,0.3674,1.9758,-9.4516,9.6629
2,16,0,1,1,69.564,69564,0.8200,0.1200,-9.5000,9.5361,0.0698,-0.3043,-0.0665,-1.38,177.75,145.88,0.4270,1.7313,-9.4580,9.6246
2,16,0,1,1,69.694,69694,0.0900,0.0600,-10.5700,10.5706,-0.1582,-0.1440,-0.0556,-3.69,178.19,146.25,0.3826,1.5110,-9.6045,9.7302
2,16,0,1,1,69.825,69825,1.1000,1.1600,-11.1700,11.2838,0.1233,0.1963,-0.0382,-2.69,178.38,146.50,0.4772,1.4648,-9.8108,9.9310
2,17,0,1,1,69.957,69957,0.4400,0.2200,-8.7900,8.8038,0.6229,-0.0513,-0.1058,-2.31,175.25,146.94,0.4723,1.3008,-9.6763,9.7747
2,17,0,1,1,70.092,70092,-0.0100,0.7500,-9.0200,9.0511,0.0774,-0.3665,-0.0207,-4.13,172.44,147.56,0.4087,1.2282,-9.5898,9.6768
2,17,0,1,1,70.264,70264,1.0600,0.8100,-9.4400,9.5338,-0.3327,0.3982,-0.1145,-2.44,173.50,148.56,0.4945,1.1731,-9.5701,9.6544
2,17,0,1,1,70.394,70394,0.2900,1.0500,-9.6300,9.6914,0.2607,-0.0829,-0.1920,-2.19,173.31,149.13,0.4676,1.1569,-9.5780,9.6589
2,17,0,1,1,70.524,70524,0.9100,1.5100,-9.2200,9.3870,-0.0120,0.0295,0.0055,-2.06,173.13,149.13,0.5259,1.2034,-9.5308,9.6208
2,17,0,1,1,70.654,70654,0.5500,1.6300,-9.1000,9.2612,0.1636,0.0415,0.1713,-1.94,172.31,148.31,0.5291,1.2596,-9.4740,9.5720
2,17,0,1,1,70.784,70784,0.1400,1.6200,-10.2700,10.3979,-0.1069,0.0687,0.2520,-1.63,171.63,147.94,0.4778,1.3071,-9.5789,9.6795
2,17,0,1,1,70.915,70915,0.7900,2.1400,-8.4400,8.7428,0.5454,0.2683,0.0098,-0.31,169.75,147.00,0.5189,1.4169,-9.4288,9.5488
2,17,0,1,1,71.045,71045,0.6900,1.9000,-8.8400,9.0682,0.2607,-0.3196,-0.0698,-0.88,166.19,147.56,0.5415,1.4805,-9.3512,9.4832
2,17,0,1,1,71.176,71176,0.0400,2.4400,-8.4400,8.7857,0.0982,-0.2280,-0.0753,-2.88,165.25,148.38,0.4754,1.6070,-9.2312,9.3820
2,17,0,1,1,71.349,71349,0.8500,3.3100,-8.6500,9.3006,0.0556,0.1538,0.0840,-2.19,165.13,147.88,0.5248,1.8314,-9.1546,9.3507
2,17,0,1,1,71.480,71480,0.6500,3.0300,-9.6100,10.0973,0.3425,0.0884,-0.0055,-1.75,162.31,147.19,0.5413,1.9893,-9.2146,9.4424
2,17,0,1,1,71.612,71612,0.5900,3.1900,-8.7000,9.2852,0.1560,-0.0687,0.0218,-2.13,160.50,146.88,0.5477,2.1475,-9.1468,9.4115
2,17,0,1,1,71.747,71747,0.7900,3.3900,-8.1900,8.8990,0.1625,0.0109,-0.0229,-2.31,159.50,146.69,0.5796,2.3113,-9.0207,9.3301
2,17,0,1,1,71.877,71877,0.4500,3.3000,-8.6400,9.2597,0.3185,-0.0349,0.0251,-2.50,157.56,146.88,0.5625,2.4416,-8.9705,9.3139
2,17,0,1,1,72.008,72008,0.4200,3.5500,-7.5900,8.3897,-0.0644,-0.0524,0.0284,-2.56,157.00,146.75,0.5438,2.5876,-8.7886,9.1778
2,17,0,1,1,72.138,72138,0.5100,3.1500,-8.8900,9.4454,-0.0644,-0.0993,0.0109,-2.88,157.19,146.69,0.5393,2.6617,-8.8020,9.2114
2,17,0,1,1,72.269,72269,0.0900,2.5300,-8.6700,9.0320,-0.1669,0.1374,0.1582,-3.63,158.13,146.19,0.4801,2.6444,-8.7846,9.1865
2,17,0,1,1,72.441,72441,1.2200,3.2100,-9.2500,9.8669,-0.3382,0.0851,-0.0611,-1.88,162.38,145.00,0.5776,2.7189,-8.8459,9.2723
2,17,0,1,1,72.571,72571,0.6800,2.0000,-9.7700,9.9958,-0.3611,-0.1789,-0.3403,-1.31,164.38,146.25,0.5911,2.6242,-8.9677,9.3624
2,17,0,1,1,72.701,72701,0.3400,1.8700,-9.7400,9.9237,-0.5051,-0.2083,-0.0229,-3.00,167.44,147.88,0.5580,2.5248,-9.0695,9.4309
2,17,0,1,1,72.831,72831,-0.0600,1.6000,-10.7900,10.9081,-0.5334,0.1691,-0.0185,-3.75,170.81,148.31,0.4766,2.4029,-9.2962,9.6135
2,17,0,1,1,72.961,72961,1.2600,2.2300,-8.7300,9.0980,-0.0044,0.1156,-0.0513,-1.56,173.56,148.31,0.5798,2.3801,-9.2216,9.5414
2,17,0,1,1,73.091,73091,0.5000,0.7200,-9.5000,9.5404,-0.0862,-0.2138,-0.1702,-2.50,172.63,149.13,0.5693,2.1614,-9.2583,9.5242
2,17,0,1,1,73.222,73222,0.3600,1.4200,-10.0000,10.1067,-0.0927,-0.0622,-0.0764,-3.25,174.13,150.31,0.5417,2.0637,-9.3560,9.5962
2,17,0,1,1,73.352,73352,0.4800,0.8400,-9.6300,9.6785,0.1113,-0.0262,-0.0251,-3.44,173.56,150.69,0.5336,1.9024,-9.3921,9.5977
2,17,0,1,1,73.525,73525,1.5000,1.8700,-9.4000,9.7009,0.1789,0.0316,0.0687,-2.81,173.69,149.88,0.6609,1.8982,-9.3931,9.6058
2,17,0,1,1,73.655,73655,0.2200,-0.1100,-9.4600,9.4632,0.3076,-0.1396,0.0284,-4.44,169.94,149.25,0.6028,1.6335,-9.4020,9.5618
2,17,0,1,1,73.786,73786,1.3000,2.7600,-10.7100,11.1361,-0.4352,0.4320,0.1102,-2.13,172.88,148.81,0.6947,1.7820,-9.5743,9.7635
2,17,0,1,1,73.916,73916,1.0800,1.0100,-10.3700,10.4749,0.6894,-0.3731,0.0011,-2.94,169.94,148.31,0.7455,1.6802,-9.6792,9.8522
2,18,0,1,1,74.047,74047,1.8300,1.1700,-8.7100,8.9767,-0.1931,-0.5072,-0.2891,-4.56,169.63,148.69,0.8884,1.6130,-9.5515,9.7274
2,18,0,1,1,74.178,74178,0.3400,2.0000,-9.1800,9.4015,0.3120,-0.1963,0.0022,-7.44,168.69,150.06,0.8161,1.6640,-9.5025,9.6816
2,18,0,1,1,74.310,74310,1.2500,2.1500,-9.9200,10.2270,0.2411,0.3556,-0.2062,-6.50,166.63,150.38,0.8733,1.7280,-9.5575,9.7517
2,18,0,1,1,74.441,74441,2.2500,3.0500,-6.8900,7.8637,0.4265,0.0654,0.1669,-4.44,166.00,150.38,1.0547,1.9022,-9.2060,9.4595
2,18,0,1,1,74.615,74615,0.4700,2.3400,-9.1400,9.4465,-0.6872,-0.0884,0.0415,-5.81,163.75,150.56,0.9777,1.9599,-9.1973,9.4545
2,18,0,1,1,74.745,74745,1.5400,3.2300,-9.9700,10.5927,0.3316,0.2814,0.1265,-4.81,165.00,150.19,1.0518,2.1273,-9.2991,9.5972
2,18,0,1,1,74.877,74877,1.0800,2.5200,-8.5500,8.9788,0.3087,-0.0622,-0.0153,-4.00,162.00,149.75,1.0555,2.1790,-9.2004,9.5137
2,18,0,1,1,75.007,75007,0.8300,2.8800,-8.9700,9.4575,-0.1614,-0.1734,0.1920,-5.00,161.56,149.63,1.0258,2.2714,-9.1701,9.5027
2,18,0,1,1,75.137,75137,0.7900,3.1600,-8.4000,9.0094,0.2160,0.2487,0.1604,-4.94,161.38,149.25,0.9947,2.3885,-9.0686,9.4305
2,18,0,1,1,75.267,75267,0.8800,2.8000,-9.1400,9.5997,-0.0338,0.1953,-0.0131,-3.00,160.13,149.13,0.9796,2.4427,-9.0780,9.4518
2,18,0,1,1,75.398,75398,0.6300,4.6300,-8.3700,9.5860,-0.0764,-0.1167,0.0185,-3.06,161.56,148.81,0.9335,2.7310,-8.9847,9.4369
2,18,0,1,1,75.529,75529,0.3100,3.1200,-9.2800,9.7954,0.2596,0.2891,-0.0120,-2.75,159.94,148.63,0.8514,2.7822,-9.0236,9.4811
2,18,0,1,1,75.701,75701,1.1900,3.3100,-7.9200,8.6659,0.3458,-0.3992,0.0087,-1.63,159.25,148.31,0.8960,2.8518,-8.8782,9.3679
2,18,0,1,1,75.832,75832,0.3700,2.8000,-8.4800,8.9380,-0.1396,-0.0382,-0.0742,-3.75,157.38,149.88,0.8267,2.8449,-8.8257,9.3097
2,18,0,1,1,75.962,75962,0.0500,3.0600,-8.6900,9.2132,-0.0589,0.0654,0.0873,-3.31,158.56,149.63,0.7243,2.8733,-8.8078,9.2929
2,18,0,1,1,76.093,76093,1.2000,2.8300,-8.6300,9.1611,-0.1124,0.1254,0.1025,-3.00,159.13,148.31,0.7870,2.8676,-8.7844,9.2741
2,18,0,1,1,76.223,76223,0.5600,2.8900,-9.7400,10.1751,-0.3272,0.2793,0.0764,-1.31,161.13,147.88,0.7571,2.8705,-8.9103,9.3919
2,18,0,1,1,76.353,76353,1.1100,2.8400,-8.4300,8.9645,-0.2465,-0.4003,-0.1364,-2.56,162.94,147.63,0.8036,2.8665,-8.8470,9.3345
2,18,0,1,1,76.483,76483,0.1800,1.5500,-10.3900,10.5065,-0.6480,0.0556,-0.1625,-3.81,166.19,149.13,0.7214,2.6930,-9.0504,9.4700
2,18,0,1,1,76.613,76613,1.3100,2.3900,-9.4200,9.8064,-0.3567,0.0273,0.1865,-2.63,170.25,150.25,0.7990,2.6531,-9.0991,9.5116
2,18,0,1,1,76.786,76786,0.1900,1.3000,-10.0000,10.0859,0.0295,0.0164,-0.0862,-4.38,170.19,150.00,0.7187,2.4748,-9.2178,9.5712
2,18,0,1,1,76.921,76921,1.0100,1.5800,-10.4500,10.6169,-0.1320,0.1004,-0.1364,-3.00,170.94,150.69,0.7571,2.3569,-9.3802,9.7013
2,18,0,1,1,77.051,77051,0.6100,1.8700,-9.1100,9.3199,0.2236,-0.0076,-0.2171,-3.00,170.13,150.88,0.7377,2.2927,-9.3446,9.6500
2,18,0,1,1,77.183,77183,0.6100,1.0100,-9.8500,9.9204,-0.3785,0.1909,-0.2716,-2.00,170.25,152.13,0.7209,2.1237,-9.4112,9.6747
2,18,0,1,1,77.313,77313,0.9600,2.4500,-9.8400,10.1858,0.0676,-0.2509,-0.1047,-1.31,173.00,153.06,0.7524,2.1667,-9.4677,9.7415
2,18,0,1,1,77.444,77444,-0.7000,0.5200,-10.4900,10.5262,0.2825,0.1124,-0.2422,-2.81,169.56,154.44,0.5610,1.9497,-9.6024,9.8144
2,18,0,1,1,77.574,77574,0.9600,1.9600,-9.2300,9.4845,-0.3163,-0.1582,0.1942,-1.94,170.75,153.63,0.6136,1.9511,-9.5533,9.7698
2,18,0,1,1,77.704,77704,1.4600,1.4600,-8.5700,8.8152,0.1254,-0.2323,-0.1331,-2.94,171.44,153.88,0.7251,1.8863,-9.4237,9.6380
2,18,0,1,1,77.877,77877,-0.0300,1.8600,-10.9500,11.1069,-0.6501,0.3938,0.0447,-5.69,173.38,154.13,0.6256,1.8829,-9.6249,9.8272
2,18,0,1,1,78.007,78007,2.1600,1.6200,-10.5600,10.8997,0.6370,0.1102,0.0044,-2.13,173.06,153.75,0.8278,1.8482,-9.7481,9.9562
2,19,0,1,1,78.137,78137,0.5400,0.6200,-9.8500,9.8843,-0.0055,-0.4723,0.1734,-4.38,169.94,153.75,0.7899,1.6864,-9.7615,9.9376
2,19,0,1,1,78.267,78267,0.6200,1.3200,-8.9500,9.0680,0.5541,0.1516,0.3316,-6.13,169.25,152.19,0.7675,1.6381,-9.6546,9.8226
2,19,0,1,1,78.397,78397,1.5000,1.7000,-9.0600,9.3394,-0.0164,0.7538,0.1658,-2.38,166.63,150.50,0.8640,1.6463,-9.5762,9.7550
2,19,0,1,1,78.527,78527,1.1000,2.2100,-8.8900,9.2264,0.0153,-0.2782,-0.1516,-1.50,166.50,149.75,0.8951,1.7205,-9.4858,9.6820
2,19,0,1,1,78.657,78657,0.0900,1.8000,-9.3900,9.5614,-0.0076,-0.2149,-0.2138,-3.44,166.31,151.81,0.7890,1.7310,-9.4732,9.6623
2,19,0,1,1,78.788,78788,-0.5300,2.9700,-10.0800,10.5218,-0.1178,0.1811,-0.3316,-3.00,166.31,153.44,0.6152,1.8943,-9.5531,9.7586
2,19,0,1,1,78.961,78961,0.8800,3.2100,-7.9900,8.6556,0.9785,-0.0011,0.2520,-1.81,162.50,152.00,0.6501,2.0677,-9.3472,9.5952
2,19,0,1,1,79.092,79092,0.0500,2.7500,-7.9300,8.3934,0.2073,0.4538,0.1396,-1.31,157.00,151.00,0.5710,2.1576,-9.1604,9.4284
2,19,0,1,1,79.222,79222,1.3200,3.7300,-7.8900,8.8265,0.1353,0.1516,0.2618,0.81,156.94,148.38,0.6697,2.3648,-8.9930,9.3228
2,19,0,1,1,79.353,79353,0.0500,3.2500,-8.5600,9.1563,-0.0436,-0.1953,-0.0295,-0.31,155.63,148.88,0.5881,2.4814,-8.9359,9.2927
2,19,0,1,1,79.483,79483,-0.5300,4.1100,-8.6800,9.6185,-0.0687,0.0065,0.0218,-1.81,156.69,148.75,0.4407,2.6960,-8.9022,9.3119
2,19,0,1,1,79.618,79618,0.7100,3.9700,-9.4200,10.2470,0.1702,0.5269,0.2040,0.69,155.94,147.06,0.4762,2.8639,-8.9705,9.4286
2,19,0,1,1,79.748,79748,0.4300,3.8900,-7.4200,8.3889,0.3785,-0.4811,-0.0469,0.63,153.88,147.00,0.4701,2.9991,-8.7661,9.2769
2,19,0,1,1,79.880,79880,-1.0100,3.8600,-8.9100,9.7626,-0.3403,-0.0894,-0.1145,-1.81,153.56,148.13,0.2751,3.1126,-8.7851,9.3243
2,19,0,1,1,80.053,80053,1.0700,4.2500,-8.7600,9.7952,-0.0818,0.2160,0.0142,1.06,156.63,147.13,0.3798,3.2624,-8.7818,9.3759
2,19,0,1,1,80.183,80183,-0.0800,3.0800,-7.9900,8.5635,-0.0764,-0.4254,-0.0360,0.06,156.63,147.94,0.3192,3.2384,-8.6775,9.2675
2,19,0,1,1,80.313,80313,-0.7500,2.9000,-9.5400,9.9992,-0.7996,0.2487,0.0164,-0.44,160.50,148.50,0.1783,3.1938,-8.7911,9.3550
2,19,0,1,1,80.443,80443,0.3700,2.7000,-9.4600,9.8447,-0.3785,0.2302,0.0207,2.00,164.94,147.75,0.2036,3.1287,-8.8793,9.4166
2,19,0,1,1,80.573,80573,0.1500,1.3700,-8.9400,9.0456,-0.3382,-0.3109,0.0513,1.06,167.00,146.88,0.1965,2.8970,-8.8873,9.3496
2,19,0,1,1,80.703,80703,-0.7900,1.0200,-9.9700,10.0531,-0.8923,0.0153,-0.0545,0.00,172.00,147.56,0.0665,2.6496,-9.0299,9.4109
2,19,0,1,1,80.834,80834,0.2900,1.1400,-10.2600,10.3272,-0.3458,0.2313,0.0044,1.94,176.63,146.69,0.0960,2.4507,-9.1920,9.5136
2,19,0,1,1,80.964,80964,-0.0800,0.5200,-9.4100,9.4247,-0.0644,-0.2029,0.1396,1.44,177.63,146.13,0.0728,2.1963,-9.2208,9.4790
2,19,0,1,1,81.137,81137,-0.2200,-0.3300,-10.2800,10.2876,0.1080,0.1004,-0.1178,1.63,178.75,145.13,0.0342,1.8634,-9.3603,9.5441
2,19,0,1,1,81.267,81267,-0.4200,0.2400,-10.7600,10.7709,0.0033,0.1244,-0.0240,2.63,178.13,145.31,-0.0256,1.6495,-9.5448,9.6863
2,19,0,1,1,81.397,81397,0.0200,1.1900,-9.1500,9.2271,0.3840,-0.1942,-0.1571,2.06,176.69,145.00,-0.0196,1.5889,-9.4928,9.6248
2,19,0,1,1,81.527,81527,-0.4400,-0.2500,-10.7600,10.7719,0.2662,-0.0491,-0.1963,0.88,173.94,146.25,-0.0750,1.3466,-9.6597,9.7534
2,19,0,1,1,81.657,81657,0.3500,1.1300,-10.1000,10.1690,0.6032,-0.2814,0.2323,0.13,171.50,146.88,-0.0190,1.3181,-9.7178,9.8068
2,19,0,1,1,81.787,81787,-0.1900,0.8100,-9.9800,10.0146,0.0622,0.0556,0.1942,-0.81,168.63,146.56,-0.0415,1.2511,-9.7523,9.8323
2,20,0,1,1,81.917,81917,-0.2800,1.5400,-7.8100,7.9653,0.0535,-0.3763,0.1833,-1.75,170.00,146.06,-0.0730,1.2892,-9.4964,9.5838
2,20,0,1,1,82.048,82048,-0.0100,2.5800,-10.1700,10.4922,0.5280,-0.0698,0.0055,-2.19,168.50,146.88,-0.0647,1.4593,-9.5851,9.6958
2,20,0,1,1,82.220,82220,2.0000,3.0000,-8.5500,9.2791,0.4211,0.0938,0.4167,-1.50,163.25,146.63,0.2074,1.6623,-9.4487,9.5961
2,20,0,1,1,82.350,82350,1.2400,3.4900,-7.5300,8.3916,-0.3000,0.2007,0.1920,0.00,162.94,146.44,0.3435,1.9031,-9.1959,9.3970
2,20,0,1,1,82.480,82480,-0.3800,4.1900,-9.6200,10.4998,0.6861,-0.2771,-0.1200,-1.00,161.31,146.19,0.2481,2.2045,-9.2518,9.5140
2,20,0,1,1,82.610,82610,0.7500,3.8000,-8.9700,9.7705,0.3600,0.4265,-0.0087,-0.13,156.81,146.50,0.3143,2.4147,-9.2146,9.5310
2,20,0,1,1,82.740,82740,0.1300,3.9000,-7.2300,8.2158,0.5061,-0.3567,-0.0687,-0.94,153.56,146.13,0.2900,2.6105,-8.9531,9.3304
2,20,0,1,1,82.870,82870,0.4500,3.9000,-8.3400,9.2178,0.1680,-0.0022,-0.0731,-2.69,150.50,146.31,0.3111,2.7804,-8.8723,9.3030
2,20,0,1,1,83.000,83000,0.2900,4.6300,-7.7900,9.0667,0.1156,0.0349,0.0491,-2.31,150.44,146.31,0.3083,3.0241,-8.7297,9.2438
2,20,0,1,1,83.131,83131,0.0900,3.6100,-8.8800,9.5862,-0.1822,0.0840,-0.0949,-2.19,149.81,146.63,0.2795,3.1013,-8.7495,9.2871
2,20,0,1,1,83.304,83304,0.3900,4.1400,-8.8300,9.7602,-0.3196,-0.0142,-0.0142,-1.81,153.44,145.94,0.2941,3.2382,-8.7601,9.3441
2,20,0,1,1,83.434,83434,1.2400,3.2200,-8.2600,8.9517,-0.6469,0.2280,0.1767,-0.63,156.88,145.63,0.4187,3.2358,-8.6942,9.2863
2,20,0,1,1,83.565,83565,0.1700,2.7500,-9.2800,9.6804,-0.7625,0.1854,0.2531,1.38,163.31,146.06,0.3860,3.1718,-8.7714,9.3352
2,20,0,1,1,83.695,83695,-0.4100,1.5300,-12.7200,12.8182,-0.6949,0.2967,-0.2323,2.19,167.75,145.19,0.2811,2.9554,-9.2917,9.7545
2,20,0,1,1,83.826,83826,0.4900,2.0700,-7.7100,7.9981,-0.1058,-0.3982,-0.2160,2.25,171.25,146.25,0.3086,2.8388,-9.0833,9.5216
2,20,0,1,1,83.957,83957,-0.7600,1.1700,-9.2900,9.3942,0.1713,-0.0665,-0.0938,-0.25,169.63,147.00,0.1678,2.6189,-9.1105,9.4810
2,20,0,1,1,84.090,84090,1.2900,1.6700,-10.0100,10.2300,-0.4320,0.1593,0.0829,1.06,171.38,147.19,0.3157,2.4938,-9.2291,9.5653
2,20,0,1,1,84.221,84221,0.4800,1.0700,-9.4500,9.5225,0.2225,-0.6960,-0.1004,-1.63,171.75,147.50,0.3373,2.3062,-9.2582,9.5471
2,20,0,1,1,84.394,84394,-0.6700,1.2300,-8.0100,8.1315,-0.0251,0.4865,-0.1418,-3.88,172.56,149.25,0.2046,2.1644,-9.0937,9.3500
2,20,0,1,1,84.525,84525,0.8500,1.5800,-9.3300,9.5009,-0.2771,-0.4931,-0.1167,-2.63,174.38,150.63,0.2896,2.0874,-9.1248,9.3650
2,20,0,1,1,84.655,84655,0.6100,0.8900,-13.1500,13.1942,-0.2182,0.3567,0.2247,-3.50,174.44,150.44,0.3318,1.9296,-9.6553,9.8518
2,20,0,1,1,84.786,84786,1.9700,0.6800,-8.1200,8.3832,1.0516,0.0938,-0.2302,-1.50,171.25,149.81,0.5477,1.7649,-9.4529,9.6319
2,20,0,1,1,84.916,84916,-0.3000,1.7200,-9.2000,9.3642,-0.1429,-0.4538,0.0480,-4.63,169.69,150.50,0.4360,1.7590,-9.4196,9.5924
2,20,0,1,1,85.046,85046,0.6500,1.6000,-9.6900,9.8427,0.2389,0.3894,0.1811,-4.00,168.56,151.06,0.4642,1.7381,-9.4552,9.6249
2,20,0,1,1,85.177,85177,1.3200,0.5400,-11.1900,11.2805,-0.3022,-0.3731,0.0120,-2.06,167.50,150.88,0.5770,1.5802,-9.6838,9.8289
2,20,0,1,1,85.307,85307,0.3900,1.8500,-8.6000,8.8054,0.0491,0.0785,0.0796,-4.13,169.50,149.38,0.5523,1.6157,-9.5410,9.6926
2,20,0,1,1,85.480,85480,0.4400,2.3800,-7.6700,8.0428,0.7941,0.0251,0.0207,-2.75,166.00,148.75,0.5375,1.7164,-9.2945,9.4669
2,20,0,1,1,85.610,85610,0.3200,2.5400,-9.5700,9.9065,0.1505,0.1298,0.1080,-1.69,161.88,148.44,0.5089,1.8250,-9.3308,9.5212
