participant,rep,equipment_code,exercise_code,quality_code,timestamp,timestamp_ms,accelX,accelY,accelZ,accelMag,gyroX,gyroY,gyroZ,roll,pitch,yaw,filteredX,filteredY,filteredZ,filteredMag
2,1,0,1,1,00.000,0,0.0000,-0.0100,-9.6900,9.6900,-0.0305,0.0393,0.0251,1.06,-178.38,142.69,-0.1368,-0.1532,-9.5830,9.5853
2,1,0,1,1,00.130,130,-0.2700,-0.4000,-9.6300,9.6421,0.0524,-0.0622,0.0022,0.94,-178.63,142.63,-0.1544,-0.1857,-9.5892,9.5923
2,1,0,1,1,00.260,260,-0.2300,-0.2100,-9.5200,9.5251,0.0153,-0.0142,-0.0044,0.75,-178.69,142.56,-0.1644,-0.1889,-9.5801,9.5834
2,1,0,1,1,00.390,390,-0.2000,-0.4100,-9.4500,9.4610,-0.0033,-0.0458,-0.0153,0.44,-178.94,142.44,-0.1691,-0.2181,-9.5630,9.5669
2,1,0,1,1,00.520,520,0.0400,-0.0400,-10.2200,10.2202,-0.0862,0.0535,0.0098,0.81,-178.25,142.38,-0.1415,-0.1946,-9.6495,9.6525
2,1,0,1,1,00.650,650,-0.3000,0.2700,-10.0200,10.0281,0.2356,-0.1854,0.0000,0.31,-178.75,142.44,-0.1624,-0.1334,-9.6984,9.7006
2,1,0,1,1,00.780,780,-0.1800,-0.2700,-9.5500,9.5555,0.2574,0.0469,0.0000,0.00,179.00,142.38,-0.1647,-0.1514,-9.6788,9.6814
2,1,0,1,1,00.910,910,0.3000,-0.0600,-9.3400,9.3450,0.0720,-0.0731,0.0796,0.00,178.25,141.88,-0.1035,-0.1393,-9.6342,9.6357
2,1,0,1,1,01.083,1083,-0.3000,0.3500,-10.0200,10.0306,0.0022,0.0349,-0.0415,-0.38,178.06,141.69,-0.1294,-0.0749,-9.6850,9.6862
2,1,0,1,1,01.214,1214,0.2000,0.6800,-9.5300,9.5563,0.0720,0.0905,0.0720,0.38,177.63,141.50,-0.0860,0.0246,-9.6646,9.6650
2,1,0,1,1,01.344,1344,0.1600,0.7000,-9.1400,9.1682,0.0709,0.0873,-0.0415,0.88,176.88,141.44,-0.0536,0.1136,-9.5955,9.5963
2,1,0,1,1,01.478,1478,-0.2200,0.6000,-9.5100,9.5314,0.0153,0.0185,-0.0349,1.00,176.31,141.69,-0.0755,0.1777,-9.5842,9.5861
2,1,0,1,1,01.609,1609,0.1000,1.1900,-9.5900,9.6641,0.0022,-0.1058,-0.0120,0.88,176.75,141.81,-0.0524,0.3111,-9.5850,9.5902
2,1,0,1,1,01.742,1742,-0.3300,0.1800,-9.3000,9.3076,0.1985,0.0938,0.0251,0.31,175.25,141.81,-0.0889,0.2938,-9.5474,9.5523
2,1,0,1,1,01.873,1873,0.0000,1.0200,-11.0400,11.0870,-0.2105,0.0065,-0.0164,1.31,176.94,141.88,-0.0772,0.3895,-9.7441,9.7522
2,1,0,1,1,02.003,2003,-1.0300,0.7200,-10.4600,10.5352,0.5280,-0.0873,-0.0774,0.63,175.00,142.13,-0.2028,0.4331,-9.8384,9.8500
2,1,0,1,1,02.176,2176,-0.0900,0.4500,-8.1000,8.1130,0.0949,-0.0044,0.0829,1.13,171.75,142.13,-0.1879,0.4353,-9.6094,9.6210
2,1,0,1,1,02.307,2307,-1.0400,0.8200,-10.3500,10.4344,-0.4691,0.1985,-0.0316,1.13,173.63,142.00,-0.3002,0.4860,-9.7070,9.7237
2,1,0,1,1,02.437,2437,0.1800,1.7800,-9.7900,9.9521,-0.0982,0.1669,0.1047,3.00,176.38,141.44,-0.2369,0.6565,-9.7179,9.7429
2,1,0,1,1,02.568,2568,-0.3600,0.9500,-8.6200,8.6797,0.2956,-0.1527,-0.0840,2.06,174.88,141.38,-0.2531,0.6952,-9.5732,9.6018
2,1,0,1,1,02.698,2698,-0.6300,0.5500,-8.6300,8.6704,0.1189,-0.1233,-0.0840,0.75,173.44,141.19,-0.3028,0.6761,-9.4489,9.4779
2,1,0,1,1,02.830,2830,-0.2100,1.2400,-8.2900,8.3849,-0.0971,0.3349,0.0109,2.00,173.56,141.06,-0.2906,0.7504,-9.2962,9.3310
2,2,0,1,1,02.961,2961,-0.3300,1.3700,-9.3100,9.4160,-0.1702,0.1124,0.0022,3.75,174.63,140.88,-0.2958,0.8320,-9.2980,9.3399
2,2,0,1,1,03.095,3095,-0.2000,0.7400,-10.2000,10.2288,0.0175,-0.0753,-0.0360,3.81,175.06,141.13,-0.2831,0.8199,-9.4169,9.4567
2,2,0,1,1,03.268,3268,-1.1100,0.4900,-9.6300,9.7061,-0.2051,0.1462,0.0720,3.44,175.56,141.50,-0.3921,0.7764,-9.4450,9.4849
2,2,0,1,1,03.398,3398,-0.8700,0.8500,-9.5000,9.5775,-0.1058,0.0916,0.0938,4.69,177.06,141.19,-0.4551,0.7861,-9.4522,9.4958
2,2,0,1,1,03.528,3528,-0.2400,0.0800,-9.4300,9.4334,-0.0720,-0.0415,-0.0240,4.94,177.19,141.19,-0.4267,0.6931,-9.4493,9.4843
2,2,0,1,1,03.658,3658,-1.3700,0.3600,-9.7800,9.8820,-0.3240,-0.0851,-0.0218,4.31,179.00,141.44,-0.5510,0.6492,-9.4929,9.5310
2,2,0,1,1,03.788,3788,-0.2700,0.2200,-9.4400,9.4464,-0.0273,0.0960,0.0196,4.56,-179.63,141.25,-0.5140,0.5926,-9.4859,9.5183
2,2,0,1,1,03.918,3918,-0.6700,-0.1200,-9.4600,9.4845,0.0393,0.0065,0.0622,4.94,179.94,141.13,-0.5346,0.4987,-9.4825,9.5106
2,2,0,1,1,04.049,4049,-1.1500,-0.1700,-9.3900,9.4617,-0.0611,-0.0829,-0.0469,4.50,-179.81,141.06,-0.6157,0.4106,-9.4703,9.4992
2,2,0,1,1,04.179,4179,-0.6700,-0.4600,-9.5900,9.6244,-0.2454,0.0644,-0.0513,4.56,-178.75,141.44,-0.6228,0.2959,-9.4861,9.5111
2,2,0,1,1,04.352,4352,-0.9200,-0.4600,-9.8400,9.8936,-0.1876,0.0415,-0.0098,5.00,-176.13,141.44,-0.6620,0.1963,-9.5327,9.5577
2,2,0,1,1,04.482,4482,-0.9500,-0.6200,-9.5600,9.6271,-0.0709,0.0120,-0.0185,5.31,-175.44,141.31,-0.6999,0.0887,-9.5363,9.5624
2,2,0,1,1,04.612,4612,-0.9400,-1.1500,-9.4500,9.5660,-0.1614,-0.0731,-0.0338,5.19,-174.81,141.38,-0.7316,-0.0745,-9.5249,9.5533
2,2,0,1,1,04.742,4742,-1.0300,-1.0900,-9.7100,9.8251,-0.1560,-0.0971,-0.0185,4.38,-173.50,141.19,-0.7709,-0.2083,-9.5493,9.5827
2,2,0,1,1,04.872,4872,-0.9200,-1.1100,-9.7300,9.8362,-0.1004,-0.0284,-0.0284,4.06,-172.69,141.25,-0.7905,-0.3272,-9.5731,9.6113
2,2,0,1,1,05.002,5002,-0.6100,-1.2400,-9.9400,10.0356,-0.0513,-0.0218,0.0196,3.94,-172.25,141.13,-0.7668,-0.4474,-9.6215,9.6623
2,2,0,1,1,05.132,5132,-0.7500,-1.0500,-10.6700,10.7477,0.0785,-0.0469,-0.0120,3.69,-172.44,141.06,-0.7645,-0.5268,-9.7596,9.8037
2,2,0,1,1,05.262,5262,-0.3500,-0.5900,-10.2500,10.2729,0.3327,0.0305,-0.0327,3.81,-174.13,141.31,-0.7099,-0.5352,-9.8243,9.8644
2,2,0,1,1,05.435,5435,-0.6700,-0.9700,-9.2800,9.3546,0.3731,-0.1636,0.0993,2.88,-178.25,141.13,-0.7047,-0.5925,-9.7525,9.7959
2,2,0,1,1,05.566,5566,-0.4000,-0.2900,-9.7200,9.7325,0.0109,0.1025,0.0153,2.94,-178.81,140.81,-0.6645,-0.5526,-9.7483,9.7865
2,2,0,1,1,05.696,5696,-0.2900,0.1800,-9.7600,9.7660,0.2509,-0.0644,-0.1222,3.31,-179.50,140.94,-0.6152,-0.4561,-9.7498,9.7798
2,2,0,1,1,05.827,5827,-0.6900,0.2300,-9.5500,9.5777,0.1538,-0.0404,0.0142,2.75,179.13,141.13,-0.6250,-0.3657,-9.7235,9.7504
2,2,0,1,1,05.957,5957,-0.3300,0.2400,-9.3000,9.3089,0.2127,-0.0033,-0.0196,2.44,177.69,141.38,-0.5861,-0.2859,-9.6677,9.6896
2,2,0,1,1,06.088,6088,-0.2600,0.6200,-8.7200,8.7459,0.1473,-0.1167,-0.0567,1.69,176.50,141.63,-0.5432,-0.1665,-9.5428,9.5597
2,2,0,1,1,06.219,6219,-0.1000,0.7600,-9.1400,9.1721,0.0262,0.1124,-0.0229,1.75,175.75,141.94,-0.4848,-0.0444,-9.4897,9.5022
2,2,0,1,1,06.354,6354,-0.6700,0.8200,-9.2500,9.3104,0.0218,-0.0371,-0.1309,1.69,176.00,142.50,-0.5092,0.0695,-9.4581,9.4721
2,2,0,1,1,06.527,6527,-0.1600,0.8900,-9.4700,9.5131,0.0120,0.0098,0.0458,2.06,175.69,142.69,-0.4632,0.1776,-9.4597,9.4727
2,2,0,1,1,06.657,6657,-0.1600,0.8400,-8.8000,8.8414,0.1800,-0.0884,-0.0142,1.94,174.88,142.88,-0.4232,0.2649,-9.3728,9.3860
2,2,0,1,1,06.787,6787,-0.4700,1.0600,-9.4200,9.4911,-0.0469,-0.0491,0.0436,1.63,174.56,142.94,-0.4294,0.3697,-9.3790,9.3961
2,2,0,1,1,06.917,6917,-0.5100,0.7000,-9.2700,9.3104,0.1134,0.0971,-0.0142,1.69,173.81,142.63,-0.4400,0.4132,-9.3646,9.3841
2,2,0,1,1,07.047,7047,-0.1900,1.1900,-8.8300,8.9119,-0.1865,0.0295,0.0971,2.31,174.31,142.38,-0.4071,0.5156,-9.2942,9.3174
2,2,0,1,1,07.177,7177,-0.6700,1.0100,-9.4800,9.5572,-0.1145,0.2683,-0.1462,3.06,175.44,142.94,-0.4417,0.5807,-9.3187,9.3472
2,2,0,1,1,07.308,7308,-0.2600,0.8500,-8.9100,8.9542,-0.0022,0.0774,0.0676,5.19,175.75,143.00,-0.4178,0.6162,-9.2648,9.2947
2,3,0,1,1,07.438,7438,-0.4200,0.4200,-9.9000,9.9178,-0.2149,-0.2803,0.0164,4.00,176.50,142.88,-0.4181,0.5904,-9.3485,9.3765
2,3,0,1,1,07.611,7611,-0.8400,0.3600,-9.4800,9.5239,0.0033,0.2378,0.0480,3.00,177.69,142.75,-0.4737,0.5600,-9.3658,9.3945
2,3,0,1,1,07.742,7742,-0.1900,-0.1800,-9.1800,9.1837,-0.2116,0.1058,-0.0360,4.75,178.13,142.81,-0.4363,0.4625,-9.3413,9.3630
2,3,0,1,1,07.873,7873,-0.6800,-0.1100,-9.8400,9.8641,-0.4309,-0.1953,0.0120,3.81,-179.31,142.50,-0.4684,0.3870,-9.4071,9.4267
2,3,0,1,1,08.003,8003,-0.5500,-0.0600,-10.0600,10.0752,-0.1167,0.1080,-0.0153,3.50,-177.13,142.50,-0.4792,0.3281,-9.4931,9.5108
2,3,0,1,1,08.134,8134,-0.6600,-0.8200,-9.7200,9.7768,-0.0120,0.0262,-0.0185,4.31,-177.13,142.38,-0.5030,0.1768,-9.5230,9.5379
2,3,0,1,1,08.264,8264,-0.6100,-1.1400,-9.3900,9.4786,-0.2880,-0.1364,0.0458,3.56,-175.81,142.19,-0.5171,0.0033,-9.5055,9.5195
2,3,0,1,1,08.399,8399,-0.8200,-0.5400,-9.7800,9.8292,-0.3872,0.1756,-0.0327,3.88,-172.81,142.13,-0.5570,-0.0683,-9.5416,9.5581
2,3,0,1,1,08.529,8529,-0.4500,-0.9700,-9.8800,9.9377,0.0665,0.0622,0.0535,4.94,-172.31,142.25,-0.5429,-0.1871,-9.5862,9.6034
2,3,0,1,1,08.702,8702,-0.6900,-1.5600,-9.5700,9.7208,-0.0742,-0.2629,-0.0120,3.06,-172.88,141.69,-0.5623,-0.3680,-9.5841,9.6076
2,3,0,1,1,08.832,8832,-0.7200,-0.9700,-9.8400,9.9139,-0.1080,-0.0218,-0.0785,2.25,-171.75,141.69,-0.5831,-0.4473,-9.6178,9.6459
2,3,0,1,1,08.963,8963,-0.4500,-1.1300,-10.3700,10.4411,0.1156,-0.0545,0.0262,2.13,-172.13,141.69,-0.5655,-0.5373,-9.7169,9.7482
2,3,0,1,1,09.093,9093,-0.1700,-1.1400,-9.5000,9.5697,0.2880,0.0022,0.0022,2.00,-173.69,141.56,-0.5134,-0.6167,-9.6883,9.7215
2,3,0,1,1,09.224,9224,-0.5800,-1.0600,-9.9100,9.9834,0.0371,-0.0175,-0.0349,1.81,-174.88,141.75,-0.5222,-0.6751,-9.7176,9.7550
2,3,0,1,1,09.354,9354,0.0400,-0.4700,-9.4200,9.4318,0.1833,-0.0949,0.0076,1.63,-175.69,141.88,-0.4481,-0.6481,-9.6783,9.7104
2,3,0,1,1,09.484,9484,-0.4000,-0.7200,-9.6000,9.6353,0.2105,-0.0938,0.0065,0.81,-177.38,141.75,-0.4418,-0.6576,-9.6680,9.7004
2,3,0,1,1,09.615,9615,-0.0900,-0.2800,-9.6300,9.6345,0.0785,0.0774,-0.0055,0.94,-178.25,141.69,-0.3954,-0.6078,-9.6630,9.6902
2,3,0,1,1,09.787,9787,0.1700,-0.0700,-9.7300,9.7317,0.0687,-0.1407,-0.0207,0.63,-178.94,142.00,-0.3209,-0.5369,-9.6718,9.6920
2,3,0,1,1,09.917,9917,-0.2200,0.0000,-10.0300,10.0324,0.0153,-0.0142,0.0164,0.00,-179.31,142.13,-0.3076,-0.4662,-9.7190,9.7351
2,3,0,1,1,10.047,10047,0.1500,0.1400,-9.6300,9.6322,0.2062,0.0873,0.0207,0.56,179.81,142.13,-0.2473,-0.3863,-9.7073,9.7181
2,3,0,1,1,10.177,10177,-0.0600,0.2500,-9.4300,9.4335,0.1200,-0.0535,-0.1254,0.44,178.50,142.44,-0.2226,-0.3025,-9.6708,9.6781
2,3,0,1,1,10.307,10307,-0.4900,0.4900,-9.9900,10.0140,0.0458,0.0415,-0.0109,0.56,178.00,142.63,-0.2579,-0.1980,-9.7128,9.7183
2,3,0,1,1,10.437,10437,0.2200,0.8100,-9.2200,9.2581,0.2334,-0.1080,0.0218,0.38,177.00,142.38,-0.1949,-0.0652,-9.6479,9.6501
2,3,0,1,1,10.567,10567,-0.1400,0.4900,-9.5100,9.5236,0.0753,0.0753,-0.0316,0.00,175.63,142.56,-0.1877,0.0080,-9.6297,9.6315
2,3,0,1,1,10.698,10698,0.0000,1.0600,-9.5100,9.5689,-0.0262,0.0785,0.0447,0.81,175.75,142.38,-0.1629,0.1466,-9.6139,9.6164
2,3,0,1,1,10.869,10869,-0.2000,1.1700,-8.7500,8.8301,0.4636,0.1614,0.0840,1.19,173.13,142.00,-0.1678,0.2814,-9.5001,9.5057
2,3,0,1,1,10.999,10999,-0.2400,1.1500,-8.8500,8.9276,0.0742,-0.1069,0.0513,1.31,171.38,141.44,-0.1773,0.3959,-9.4144,9.4244
2,3,0,1,1,11.129,11129,-0.1500,1.4700,-8.8300,8.9528,-0.0436,-0.0131,-0.0578,1.13,171.38,141.56,-0.1737,0.5374,-9.3374,9.3545
2,3,0,1,1,11.259,11259,-0.0300,1.7700,-8.8800,9.0547,-0.2171,0.0218,-0.0502,1.19,172.63,142.75,-0.1548,0.6999,-9.2771,9.3048
2,3,0,1,1,11.389,11389,-0.5100,1.2300,-9.1800,9.2761,-0.0894,0.0960,-0.0698,1.44,173.63,143.38,-0.2016,0.7697,-9.2643,9.2984
2,3,0,1,1,11.520,11520,-0.3100,0.9100,-9.6200,9.6679,-0.2225,0.0916,0.0360,2.00,174.75,143.69,-0.2159,0.7882,-9.3112,9.3470
2,3,0,1,1,11.650,11650,-0.4200,0.8900,-9.4700,9.5210,-0.1625,0.0851,-0.0622,2.56,176.25,143.63,-0.2428,0.8016,-9.3321,9.3696
2,3,0,1,1,11.781,11781,-1.0300,0.5500,-10.1000,10.1673,-0.0491,0.0262,0.1014,2.88,176.94,143.50,-0.3465,0.7685,-9.4333,9.4709
2,3,0,1,1,11.954,11954,-0.5400,0.2000,-9.1500,9.1681,-0.0829,-0.0305,0.0120,2.94,177.31,143.00,-0.3720,0.6936,-9.3960,9.4289
2,3,0,1,1,12.084,12084,-0.6100,0.3000,-9.4200,9.4445,-0.2454,-0.0753,0.0589,2.69,178.94,143.06,-0.4034,0.6417,-9.3991,9.4297
2,3,0,1,1,12.214,12214,-0.2400,-0.0700,-9.3100,9.3134,-0.0731,0.0644,0.0120,2.63,-179.81,142.56,-0.3818,0.5479,-9.3874,9.4111
2,3,0,1,1,12.345,12345,-1.0300,-0.2900,-9.9600,10.0173,-0.1996,0.0840,-0.0153,3.25,-178.94,142.38,-0.4673,0.4375,-9.4629,9.4845
2,3,0,1,1,12.475,12475,-0.4300,-0.2500,-9.6300,9.6428,-0.1156,0.0676,0.0218,4.06,-177.56,142.25,-0.4623,0.3469,-9.4849,9.5025
2,3,0,1,1,12.605,12605,-0.6700,-0.6600,-9.7200,9.7654,-0.1331,-0.1582,-0.0305,3.56,-176.75,142.44,-0.4897,0.2142,-9.5159,9.5309
2,3,0,1,1,12.735,12735,-0.6000,-0.8300,-9.6900,9.7440,-0.2105,-0.1036,-0.0251,2.63,-175.38,142.63,-0.5042,0.0766,-9.5388,9.5524
2,3,0,1,1,12.865,12865,-0.5700,-0.7800,-9.6400,9.6883,-0.1222,-0.0142,0.0000,2.38,-174.06,142.75,-0.5129,-0.0363,-9.5521,9.5660
2,3,0,1,1,13.038,13038,-0.5700,-1.0300,-9.4600,9.5330,-0.0033,0.2094,0.0120,3.63,-173.81,143.06,-0.5204,-0.1672,-9.5400,9.5556
2,3,0,1,1,13.168,13168,-0.3200,-1.1600,-9.4200,9.4965,-0.1418,-0.1014,0.0305,3.75,-173.31,142.88,-0.4940,-0.2980,-9.5242,9.5416
2,3,0,1,1,13.299,13299,-0.7200,-1.1900,-9.8900,9.9873,-0.1156,-0.1418,-0.0829,2.50,-172.25,142.69,-0.5238,-0.4156,-9.5724,9.5957
2,3,0,1,1,13.429,13429,-0.7200,-1.3000,-9.8700,9.9812,-0.0316,0.0949,-0.0218,2.63,-171.94,142.81,-0.5497,-0.5321,-9.6116,9.6420
2,3,0,1,1,13.563,13563,-0.3400,-1.1200,-9.7100,9.7803,0.0196,-0.0153,0.0251,3.00,-171.88,141.94,-0.5220,-0.6096,-9.6246,9.6580
2,3,0,1,1,13.694,13694,-0.5500,-1.2000,-9.7400,9.8290,0.1276,0.0076,0.0120,2.88,-172.56,141.63,-0.5257,-0.6874,-9.6398,9.6786
2,3,0,1,1,13.826,13826,-0.3700,-1.0800,-9.7100,9.7769,0.1614,-0.0644,-0.0720,2.56,-173.69,141.63,-0.5052,-0.7391,-9.6490,9.6905
2,3,0,1,1,13.956,13956,-0.5400,-0.9200,-9.7800,9.8380,0.1200,0.0589,0.0087,2.63,-174.63,141.81,-0.5098,-0.7630,-9.6663,9.7098
2,3,0,1,1,14.129,14129,-0.4600,-0.6800,-10.0300,10.0635,0.1167,-0.1451,-0.0033,2.06,-175.81,141.50,-0.5032,-0.7520,-9.7142,9.7563
2,3,0,1,1,14.259,14259,-0.5200,-0.4200,-9.8400,9.8627,0.2880,-0.1069,-0.0011,1.06,-177.38,141.31,-0.5054,-0.7083,-9.7308,9.7696
2,4,0,1,1,14.389,14389,0.0500,-0.2100,-9.2700,9.2725,0.3000,0.0305,-0.0240,1.13,-179.50,141.50,-0.4322,-0.6426,-9.6701,9.7010
2,4,0,1,1,14.519,14519,-0.6100,-0.0900,-9.5400,9.5599,-0.0044,0.0480,-0.0545,1.44,179.50,141.88,-0.4557,-0.5698,-9.6529,9.6805
2,4,0,1,1,14.649,14649,-0.1500,0.2300,-10.0200,10.0238,0.0022,-0.0949,-0.0131,1.31,179.75,142.00,-0.4154,-0.4644,-9.7013,9.7213
2,4,0,1,1,14.779,14779,0.0000,0.1200,-10.9500,10.9507,0.0665,-0.0513,-0.0098,0.44,179.25,142.00,-0.3606,-0.3874,-9.8659,9.8800
2,4,0,1,1,14.909,14909,-0.2100,0.1000,-9.6100,9.6128,0.3502,-0.0415,-0.1527,0.00,177.88,142.69,-0.3408,-0.3232,-9.8321,9.8433
2,4,0,1,1,15.040,15040,-0.6500,-0.5100,-8.8200,8.8586,0.0894,0.1276,-0.1418,0.38,175.88,143.88,-0.3815,-0.3478,-9.6988,9.7125
2,4,0,1,1,15.213,15213,0.2200,1.5000,-8.7400,8.8705,-0.1636,-0.0633,-0.0273,0.38,178.56,144.56,-0.3023,-0.1043,-9.5724,9.5778
2,4,0,1,1,15.344,15344,0.2100,0.6100,-8.5500,8.5743,0.5203,-0.0022,-0.1538,0.25,176.25,145.56,-0.2348,-0.0102,-9.4377,9.4406
2,4,0,1,1,15.474,15474,0.3500,0.4500,-9.6600,9.6768,-0.0764,-0.0033,-0.3818,0.69,174.63,146.38,-0.1577,0.0505,-9.4670,9.4684
2,4,0,1,1,15.605,15605,-0.2300,1.3100,-9.3800,9.4738,-0.0676,-0.1887,0.2356,-0.25,175.88,146.63,-0.1672,0.2164,-9.4555,9.4595
2,4,0,1,1,15.737,15737,0.4500,1.0400,-9.5300,9.5971,0.2127,0.1996,0.4222,0.94,174.94,145.56,-0.0859,0.3250,-9.4653,9.4713
2,4,0,1,1,15.871,15871,-0.2200,1.1400,-9.2700,9.3424,0.0164,-0.0164,0.1636,0.94,174.19,144.19,-0.1036,0.4324,-9.4396,9.4501
2,4,0,1,1,16.002,16002,0.2300,1.5500,-8.9800,9.1157,0.1134,0.1069,0.1134,1.31,173.81,144.00,-0.0596,0.5796,-9.3790,9.3971
2,4,0,1,1,16.133,16133,-0.1600,1.4700,-8.7300,8.8543,0.0600,0.2203,-0.0120,2.19,172.88,143.63,-0.0728,0.6970,-9.2935,9.3199
2,4,0,1,1,16.306,16306,-0.4500,1.2700,-9.2100,9.3080,-0.2454,0.0262,0.0742,4.00,173.50,143.94,-0.1225,0.7725,-9.2825,9.3154
2,4,0,1,1,16.436,16436,-0.5700,0.8800,-9.9200,9.9753,-0.0240,0.1233,-0.2323,4.69,174.63,144.75,-0.1815,0.7866,-9.3665,9.4012
2,4,0,1,1,16.567,16567,-0.5500,0.7800,-9.4800,9.5279,0.1560,-0.3163,-0.0425,4.00,174.13,145.81,-0.2301,0.7858,-9.3815,9.4171
2,4,0,1,1,16.698,16698,-1.1300,0.6800,-9.5100,9.6010,-0.0894,-0.1254,-0.0742,2.44,174.06,146.81,-0.3487,0.7718,-9.3984,9.4365
2,4,0,1,1,16.828,16828,-0.9700,1.1500,-9.1300,9.2531,-0.0982,0.2465,0.1265,3.75,175.13,146.44,-0.4305,0.8217,-9.3630,9.4089
2,4,0,1,1,16.959,16959,-0.1700,0.6700,-9.5300,9.5550,-0.0622,0.1909,0.0687,5.63,175.38,145.94,-0.3962,0.8017,-9.3850,9.4275
2,4,0,1,1,17.092,17092,-0.9600,0.7600,-9.5500,9.6282,-0.1331,0.0207,0.0251,6.63,176.25,145.69,-0.4705,0.7962,-9.4068,9.4521
2,4,0,1,1,17.225,17225,-0.8100,0.4700,-9.9000,9.9442,-0.0676,-0.2509,0.0480,5.13,176.94,145.44,-0.5152,0.7532,-9.4718,9.5156
2,4,0,1,1,17.398,17398,-1.1600,0.2300,-9.8200,9.8910,-0.1069,0.1789,-0.0524,5.00,177.50,146.00,-0.6002,0.6843,-9.5177,9.5611
2,4,0,1,1,17.528,17528,-0.5400,-0.0600,-9.8200,9.8350,-0.2563,0.0742,-0.0491,6.31,178.81,146.00,-0.5923,0.5862,-9.5575,9.5938
2,4,0,1,1,17.658,17658,-0.6500,0.2700,-9.8800,9.9050,-0.2640,-0.1647,-0.0033,5.56,-179.13,145.81,-0.5999,0.5445,-9.6000,9.6341
2,4,0,1,1,17.788,17788,-1.1000,0.0400,-9.9300,9.9908,-0.1298,-0.0207,-0.0284,4.88,-177.81,145.81,-0.6658,0.4780,-9.6435,9.6782
2,4,0,1,1,17.918,17918,-0.6400,-0.1400,-9.7700,9.7919,-0.0305,-0.0305,-0.0415,4.88,-177.38,145.81,-0.6624,0.3966,-9.6602,9.6910
2,4,0,1,1,18.049,18049,-0.8700,-0.5500,-9.8700,9.9235,0.0851,-0.0742,0.0065,4.25,-177.88,145.94,-0.6897,0.2719,-9.6878,9.7161
2,4,0,1,1,18.179,18179,-0.7600,-0.3700,-10.1300,10.1652,-0.0273,-0.0044,0.0185,3.81,-178.06,145.88,-0.6990,0.1873,-9.7461,9.7729
2,4,0,1,1,18.309,18309,-0.2500,0.0600,-10.1400,10.1433,0.1625,0.0240,0.0142,4.00,-178.56,145.69,-0.6398,0.1705,-9.7980,9.8203
2,5,0,1,1,18.482,18482,-0.5100,0.0300,-9.7300,9.7434,0.1800,-0.1625,-0.0076,2.88,179.38,145.75,-0.6227,0.1520,-9.7890,9.8100
2,5,0,1,1,18.612,18612,-0.2900,0.2700,-9.5600,9.5682,0.1865,-0.0731,0.0316,2.19,178.25,145.75,-0.5789,0.1675,-9.7588,9.7774
2,5,0,1,1,18.742,18742,-0.4700,0.2400,-9.5700,9.5845,0.2149,-0.0109,0.0371,2.06,176.88,145.50,-0.5645,0.1771,-9.7340,9.7519
2,5,0,1,1,18.872,18872,-0.3400,0.4500,-9.7900,9.8062,0.0785,-0.0044,0.0556,2.00,175.75,145.13,-0.5349,0.2131,-9.7413,9.7583
2,5,0,1,1,19.002,19002,-0.0600,0.6900,-9.7600,9.7845,0.0840,0.0545,-0.0098,2.06,175.13,144.88,-0.4724,0.2759,-9.7438,9.7591
2,5,0,1,1,19.132,19132,-0.1900,1.0500,-9.5300,9.5896,0.0905,-0.1134,0.0949,2.13,174.56,144.75,-0.4352,0.3779,-9.7156,9.7327
2,5,0,1,1,19.262,19262,-0.0500,0.7500,-9.9100,9.9385,0.0905,-0.0316,0.0131,1.25,173.69,144.56,-0.3844,0.4269,-9.7412,9.7582
2,5,0,1,1,19.392,19392,-0.1900,0.9300,-9.3700,9.4180,0.0338,-0.0065,0.0862,0.94,173.44,144.44,-0.3588,0.4932,-9.6923,9.7115
2,5,0,1,1,19.565,19565,0.0000,1.4400,-9.4000,9.5097,0.0894,-0.1647,0.0295,0.56,173.00,144.13,-0.3115,0.6180,-9.6538,9.6786
2,5,0,1,1,19.695,19695,-0.4200,1.5000,-9.1300,9.2619,0.1276,0.0218,0.0633,-0.06,172.44,144.50,-0.3258,0.7342,-9.5848,9.6184
2,5,0,1,1,19.825,19825,0.4300,1.3300,-9.2900,9.3946,0.1582,0.0785,0.0720,0.50,171.38,143.50,-0.2262,0.8127,-9.5459,9.5831
2,5,0,1,1,19.955,19955,0.1300,1.6700,-9.3000,9.4496,0.0654,-0.2487,0.0905,0.13,170.50,144.00,-0.1793,0.9257,-9.5135,9.5601
2,5,0,1,1,20.085,20085,-0.2600,1.7600,-7.5500,7.7568,0.0916,-0.0415,0.0076,-1.19,169.81,144.25,-0.1899,1.0356,-9.2548,9.3145
2,5,0,1,1,20.215,20215,0.1700,1.8500,-9.4100,9.5916,-0.4178,0.2902,0.0022,0.50,171.13,144.69,-0.1425,1.1429,-9.2752,9.3465
2,5,0,1,1,20.345,20345,-0.1600,1.9900,-9.2100,9.4239,0.0447,0.0251,-0.0305,1.13,172.25,144.44,-0.1448,1.2546,-9.2666,9.3523
2,5,0,1,1,20.475,20475,-0.2900,1.1800,-9.2500,9.3295,0.1505,0.0633,0.2083,1.63,170.94,144.19,-0.1639,1.2447,-9.2644,9.3491
2,5,0,1,1,20.648,20648,-0.3200,1.7400,-8.9900,9.1624,-0.1985,0.0284,-0.0971,2.00,172.06,144.13,-0.1845,1.3100,-9.2283,9.3226
2,5,0,1,1,20.779,20779,-0.2400,0.8400,-10.4400,10.4765,-0.0916,-0.0371,-0.0098,2.13,172.88,144.25,-0.1918,1.2481,-9.3880,9.4725
2,5,0,1,1,20.910,20910,-0.5100,0.9500,-9.2100,9.2729,0.1211,0.0273,-0.0633,1.81,172.69,144.31,-0.2337,1.2088,-9.3645,9.4451
2,5,0,1,1,21.040,21040,-0.7100,0.7900,-8.9000,8.9632,-0.0796,0.1898,-0.0818,2.50,172.38,144.69,-0.2965,1.1536,-9.3033,9.3792
2,5,0,1,1,21.171,21171,0.1100,0.8600,-9.6300,9.6690,-0.3109,-0.0720,-0.1494,3.56,174.06,145.38,-0.2429,1.1149,-9.3463,9.4157
2,5,0,1,1,21.302,21302,-1.2800,0.9200,-10.0400,10.1630,-0.0196,-0.1691,-0.0524,2.06,175.50,145.81,-0.3796,1.0892,-9.4378,9.5080
2,5,0,1,1,21.437,21437,-0.6000,0.1600,-9.6200,9.6400,-0.1462,0.1309,0.1276,2.13,175.56,145.88,-0.4086,0.9668,-9.4618,9.5198
2,5,0,1,1,21.568,21568,-0.6900,0.1200,-9.6400,9.6654,-0.5051,0.1451,-0.0033,3.31,178.50,145.38,-0.4457,0.8552,-9.4853,9.5342
2,5,0,1,1,21.741,21741,-0.6600,-0.1700,-9.7700,9.7937,-0.2083,0.0545,-0.0644,4.25,-177.94,144.69,-0.4739,0.7201,-9.5228,9.5617
2,5,0,1,1,21.871,21871,-0.3100,-0.7100,-9.8200,9.8505,-0.0971,-0.1385,0.0295,3.81,-177.25,144.69,-0.4523,0.5317,-9.5619,9.5874
2,5,0,1,1,22.001,22001,-0.3300,-0.9400,-9.5200,9.5720,-0.1996,-0.1538,-0.0447,2.63,-176.06,144.75,-0.4362,0.3377,-9.5564,9.5723
2,5,0,1,1,22.131,22131,-0.4100,-0.9600,-9.9500,10.0046,-0.3142,0.0055,0.0011,2.13,-174.06,144.69,-0.4328,0.1667,-9.6083,9.6195
2,5,0,1,1,22.261,22261,-0.4700,-0.6200,-10.6800,10.7083,-0.1614,0.1407,0.0175,2.88,-172.06,143.63,-0.4377,0.0630,-9.7495,9.7595
2,5,0,1,1,22.391,22391,-0.3300,-0.9200,-9.8900,9.9382,0.4058,0.0185,-0.0262,3.56,-173.75,142.81,-0.4235,-0.0665,-9.7680,9.7774
2,6,0,1,1,22.521,22521,-0.5600,-1.1100,-9.5400,9.6207,0.2847,-0.1178,-0.0098,2.94,-176.31,142.56,-0.4415,-0.2040,-9.7380,9.7501
2,6,0,1,1,22.652,22652,-0.1900,-0.8900,-9.6700,9.7127,0.0567,-0.1713,-0.0087,2.00,-177.25,142.38,-0.4083,-0.2944,-9.7290,9.7420
2,6,0,1,1,22.824,22824,0.1100,-0.0100,-9.8900,9.8906,0.1058,-0.0938,0.0753,0.63,-177.19,142.00,-0.3400,-0.2569,-9.7502,9.7595
2,6,0,1,1,22.954,22954,-0.1200,0.0000,-9.4500,9.4508,0.3272,0.1091,-0.0262,0.88,-179.00,141.94,-0.3110,-0.2231,-9.7107,9.7182
2,6,0,1,1,23.084,23084,-0.2000,-0.0300,-9.5000,9.5022,0.2989,-0.0273,0.0633,1.31,178.69,141.81,-0.2964,-0.1976,-9.6829,9.6895
2,6,0,1,1,23.214,23214,-0.2000,0.1300,-9.5000,9.5030,0.1614,-0.1822,0.0153,0.31,177.19,141.56,-0.2837,-0.1545,-9.6588,9.6642
2,6,0,1,1,23.344,23344,-0.1800,0.5200,-9.6500,9.6657,0.0425,0.0087,0.0513,0.00,176.69,141.88,-0.2700,-0.0656,-9.6576,9.6616
2,6,0,1,1,23.474,23474,0.2300,0.6300,-9.5400,9.5635,0.1429,-0.0033,-0.0164,0.50,176.06,142.06,-0.2041,0.0261,-9.6421,9.6443
2,6,0,1,1,23.604,23604,0.1800,0.5200,-9.7600,9.7755,-0.1756,-0.2138,-0.0011,-0.19,176.06,141.94,-0.1535,0.0912,-9.6577,9.6593
2,6,0,1,1,23.735,23735,0.1400,1.1400,-9.9500,10.0161,0.0764,-0.0338,-0.0142,-1.06,176.88,142.06,-0.1148,0.2294,-9.6962,9.6996
2,6,0,1,1,23.908,23908,0.4500,0.7200,-9.4900,9.5279,0.3043,0.1036,0.1113,-0.81,173.88,141.88,-0.0404,0.2940,-9.6690,9.6736
2,6,0,1,1,24.042,24042,0.5400,1.1000,-8.7500,8.8354,-0.0480,-0.0491,0.0698,-0.88,173.06,141.75,0.0361,0.4002,-9.5479,9.5564
2,6,0,1,1,24.173,24173,-0.0100,1.4200,-9.8800,9.9815,0.1014,0.0327,0.0185,-1.25,173.19,141.50,0.0300,0.5346,-9.5917,9.6066
2,6,0,1,1,24.306,24306,0.5800,1.3900,-9.1400,9.2633,0.2596,0.0993,-0.0644,-0.75,171.44,141.13,0.1025,0.6473,-9.5322,9.5547
2,6,0,1,1,24.436,24436,0.1300,1.5100,-8.1400,8.2799,0.2160,-0.0076,-0.0622,-0.44,169.69,142.50,0.1061,0.7610,-9.3487,9.3802
2,6,0,1,1,24.567,24567,0.3100,1.7400,-9.5000,9.6630,-0.2902,0.0382,0.0044,-0.56,170.31,143.19,0.1330,0.8900,-9.3686,9.4118
2,6,0,1,1,24.697,24697,-0.1400,2.3100,-9.3600,9.6419,0.0131,-0.0360,0.0524,-0.63,171.81,143.75,0.0970,1.0771,-9.3675,9.4297
2,6,0,1,1,24.827,24827,-0.1200,1.2400,-9.1300,9.2146,0.2291,0.2007,0.0644,-0.31,170.13,143.44,0.0684,1.0986,-9.3362,9.4009
2,6,0,1,1,25.000,25000,0.2700,1.5100,-8.9400,9.0706,-0.2978,-0.0491,0.0545,0.94,171.06,143.50,0.0950,1.1528,-9.2840,9.3558
2,6,0,1,1,25.130,25130,-0.2100,1.4300,-10.2800,10.3811,-0.2214,0.0065,-0.1484,0.56,173.06,144.69,0.0548,1.1893,-9.4152,9.4902
2,6,0,1,1,25.260,25260,-0.5800,1.1200,-9.7900,9.8709,0.1124,0.0076,0.0055,1.00,173.19,145.13,-0.0289,1.1802,-9.4646,9.5380
2,6,0,1,1,25.390,25390,-0.4200,0.7000,-8.6500,8.6884,-0.1604,0.1069,0.1178,1.50,173.25,145.31,-0.0804,1.1169,-9.3573,9.4240
2,6,0,1,1,25.520,25520,-0.2800,0.7200,-9.3500,9.3819,-0.3796,0.1200,0.0185,2.38,175.31,145.13,-0.1067,1.0646,-9.3563,9.4173
2,6,0,1,1,25.650,25650,-0.7100,0.6300,-9.9900,10.0350,-0.2323,0.1353,0.1516,3.25,177.69,144.75,-0.1862,1.0073,-9.4398,9.4952
2,6,0,1,1,25.780,25780,-0.0500,-0.1900,-9.4600,9.4620,-0.1069,0.0556,0.0065,4.19,178.44,144.50,-0.1683,0.8496,-9.4425,9.4821
2,6,0,1,1,25.911,25911,-0.8400,-0.3100,-9.5400,9.5819,-0.3294,-0.1113,0.0153,3.50,-179.56,144.38,-0.2568,0.6968,-9.4553,9.4844
2,6,0,1,1,26.083,26083,-0.8000,-0.4400,-10.0900,10.1312,-0.2029,-0.0153,0.0175,3.13,-176.56,144.31,-0.3284,0.5470,-9.5390,9.5603
2,6,0,1,1,26.213,26213,-0.2900,-0.4700,-9.4700,9.4861,0.0458,0.0905,0.1222,3.50,-176.19,143.56,-0.3233,0.4130,-9.5299,9.5443
2,6,0,1,1,26.343,26343,-0.3300,-1.0900,-9.6500,9.7170,-0.0393,-0.0033,0.0644,3.69,-176.44,141.88,-0.3242,0.2149,-9.5457,9.5536
2,6,0,1,1,26.473,26473,-0.5000,-1.0200,-9.4300,9.4982,-0.2880,-0.0665,-0.0382,3.19,-174.50,141.44,-0.3474,0.0522,-9.5305,9.5369
2,6,0,1,1,26.603,26603,-0.3100,-1.0400,-9.3300,9.3929,-0.2116,-0.1287,-0.0415,2.38,-172.63,141.31,-0.3424,-0.0917,-9.5040,9.5107
2,6,0,1,1,26.733,26733,-0.4400,-1.2800,-9.8100,9.9029,-0.1167,-0.1396,-0.0229,1.25,-171.50,140.63,-0.3553,-0.2483,-9.5444,9.5542
2,6,0,1,1,26.863,26863,-0.2200,-1.3200,-9.9600,10.0495,-0.0785,0.0338,0.0229,0.88,-170.88,140.19,-0.3375,-0.3895,-9.5991,9.6130
2,6,0,1,1,26.993,26993,-0.1800,-1.1900,-10.0900,10.1615,0.1014,0.0949,-0.0076,1.44,-171.13,139.44,-0.3167,-0.4950,-9.6638,9.6817
2,6,0,1,1,27.166,27166,-0.2000,-1.3300,-9.9300,10.0207,0.2913,-0.0142,-0.0622,1.69,-173.69,139.81,-0.3013,-0.6051,-9.6989,9.7224
2,6,0,1,1,27.296,27296,-0.3300,-0.9100,-9.7000,9.7482,0.2193,-0.1080,-0.0829,1.06,-175.31,140.25,-0.3051,-0.6452,-9.6990,9.7253
2,6,0,1,1,27.426,27426,-0.2500,-0.6300,-9.5700,9.5940,0.2683,-0.0295,0.0076,0.63,-177.06,140.13,-0.2978,-0.6432,-9.6820,9.7079
2,6,0,1,1,27.556,27556,-0.2500,-0.3500,-9.6500,9.6596,0.1069,0.0633,0.0316,0.81,-178.25,140.06,-0.2915,-0.6046,-9.6778,9.7011
2,6,0,1,1,27.686,27686,0.2800,0.0300,-10.0700,10.0739,0.1549,-0.1494,-0.0305,0.75,-178.94,139.75,-0.2162,-0.5210,-9.7295,9.7458
2,6,0,1,1,27.816,27816,0.2100,0.0200,-9.6700,9.6723,0.4058,-0.3043,-0.0524,-1.06,178.75,140.06,-0.1601,-0.4497,-9.7217,9.7334
2,6,0,1,1,27.946,27946,-0.3500,0.1200,-9.7400,9.7470,0.2400,0.0218,-0.0502,-2.00,176.44,140.50,-0.1851,-0.3746,-9.7241,9.7330
2,6,0,1,1,28.077,28077,0.2500,0.7000,-8.7300,8.7616,-0.0851,0.0295,0.0949,-1.13,176.25,140.50,-0.1278,-0.2330,-9.5931,9.5968
2,6,0,1,1,28.250,28250,0.3700,1.0000,-9.6200,9.6789,0.1091,-0.0262,-0.0611,-1.00,176.50,140.44,-0.0622,-0.0705,-9.5966,9.5971
2,6,0,1,1,28.381,28381,-0.1600,0.7900,-9.0000,9.0360,0.3262,-0.1254,-0.0316,-1.69,174.63,141.06,-0.0751,0.0429,-9.5180,9.5184
2,6,0,1,1,28.511,28511,0.3400,1.3000,-8.8600,8.9613,-0.1320,0.1353,0.0142,-1.25,174.25,141.38,-0.0204,0.2085,-9.4313,9.4336
2,6,0,1,1,28.642,28642,0.3700,1.4000,-8.9100,9.0269,0.2891,0.0142,0.1058,-0.50,173.69,141.63,0.0311,0.3655,-9.3626,9.3698
2,6,0,1,1,28.774,28774,0.4700,1.0300,-9.9200,9.9844,0.1353,0.0360,0.1484,-0.13,171.88,142.13,0.0889,0.4531,-9.4361,9.4473
2,6,0,1,1,28.908,28908,0.2800,1.6700,-8.7800,8.9418,-0.0894,-0.2531,-0.1189,-1.00,172.44,143.00,0.1141,0.6134,-9.3496,9.3704
2,6,0,1,1,29.038,29038,-0.0400,1.6700,-9.4300,9.5768,0.0687,-0.0425,0.0207,-1.75,172.81,144.00,0.0938,0.7527,-9.3602,9.3909
2,6,0,1,1,29.170,29170,0.4500,1.3800,-9.1700,9.2842,0.0535,0.1080,0.0742,-1.19,171.88,143.44,0.1407,0.8353,-9.3351,9.3735
2,6,0,1,1,29.343,29343,0.0000,1.5400,-9.1200,9.2491,-0.1702,-0.0807,-0.0404,-1.50,172.75,143.81,0.1222,0.9282,-9.3068,9.3538
2,6,0,1,1,29.473,29473,0.3000,0.9400,-9.7300,9.7799,-0.1865,0.0764,0.0491,-1.38,173.81,143.69,0.1456,0.9298,-9.3626,9.4097
2,6,0,1,1,29.603,29603,-0.2500,1.2200,-9.0100,9.0957,-0.2193,0.1102,0.0371,-1.13,175.56,143.00,0.0935,0.9680,-9.3161,9.3667
2,6,0,1,1,29.733,29733,-0.1300,0.5700,-9.8000,9.8174,-0.0349,0.3916,0.0164,1.06,176.06,142.50,0.0640,0.9156,-9.3799,9.4247
2,6,0,1,1,29.863,29863,-0.0800,0.8100,-9.1200,9.1562,-0.2171,0.1342,0.0851,3.06,177.19,142.00,0.0451,0.9016,-9.3456,9.3891
2,6,0,1,1,29.993,29993,-0.1900,0.2200,-9.8300,9.8343,-0.0676,-0.2498,-0.0240,2.06,178.06,142.00,0.0141,0.8118,-9.4094,9.4444
2,6,0,1,1,30.123,30123,-0.9200,0.2100,-9.5200,9.5667,-0.0774,-0.0796,0.0109,0.88,178.75,142.06,-0.1090,0.7325,-9.4240,9.4531
2,6,0,1,1,30.253,30253,-0.2600,-0.3100,-9.6500,9.6585,-0.1680,0.2476,0.0065,1.81,179.38,142.19,-0.1289,0.5951,-9.4538,9.4734
2,6,0,1,1,30.426,30426,-0.2300,-0.2100,-9.9000,9.9049,-0.3000,-0.1604,0.0382,2.44,-177.69,142.13,-0.1422,0.4890,-9.5126,9.5262
2,6,0,1,1,30.557,30557,-0.1600,-0.5200,-9.8300,9.8450,-0.1473,-0.1102,-0.0742,1.19,-176.31,142.00,-0.1446,0.3561,-9.5544,9.5621
2,6,0,1,1,30.688,30688,-0.2300,-0.7600,-9.5900,9.6228,-0.0927,0.0382,-0.1091,1.13,-175.50,142.25,-0.1558,0.2090,-9.5591,9.5627
2,6,0,1,1,30.818,30818,-0.0700,-0.8800,-9.6800,9.7202,-0.1494,-0.0665,0.0164,1.06,-174.63,142.56,-0.1445,0.0655,-9.5750,9.5764
2,6,0,1,1,30.949,30949,-0.1900,-1.0000,-9.5100,9.5643,-0.1058,-0.1200,0.0742,0.19,-173.75,142.50,-0.1505,-0.0749,-9.5665,9.5679
2,6,0,1,1,31.083,31083,-0.3800,-1.2700,-9.8300,9.9190,-0.1222,0.0502,0.0764,0.19,-173.00,141.81,-0.1808,-0.2324,-9.6012,9.6057
2,6,0,1,1,31.216,31216,0.0200,-0.9700,-9.8800,9.9275,-0.1047,0.0622,0.0840,1.00,-171.88,141.19,-0.1543,-0.3296,-9.6379,9.6448
2,6,0,1,1,31.346,31346,-0.0100,-1.2800,-9.4800,9.5660,0.0785,-0.0807,0.0131,0.63,-172.50,140.06,-0.1353,-0.4548,-9.6171,9.6288
2,6,0,1,1,31.519,31519,0.0000,-1.2700,-9.4100,9.4953,-0.0513,-0.0796,-0.0709,-0.13,-172.44,140.00,-0.1175,-0.5622,-9.5898,9.6070
2,6,0,1,1,31.649,31649,-0.0600,-1.3300,-9.6200,9.7117,-0.0065,-0.0273,-0.0240,-0.56,-172.38,139.75,-0.1099,-0.6634,-9.5938,9.6173
2,6,0,1,1,31.779,31779,0.0900,-0.9700,-9.6400,9.6891,-0.0665,0.0360,0.0033,-0.44,-172.06,139.56,-0.0835,-0.7038,-9.5999,9.6260
2,6,0,1,1,31.909,31909,0.1300,-1.4200,-9.5900,9.6954,0.1920,-0.0153,0.0196,-0.44,-172.94,139.31,-0.0554,-0.7982,-9.5986,9.6319
2,6,0,1,1,32.039,32039,0.1700,-1.0400,-9.9200,9.9758,-0.0262,-0.0142,0.0109,-0.56,-173.25,139.19,-0.0257,-0.8301,-9.6409,9.6766
2,6,0,1,1,32.169,32169,0.0600,-0.7900,-9.8100,9.8419,0.2694,-0.0229,0.0098,-0.63,-174.06,139.19,-0.0144,-0.8248,-9.6632,9.6984
2,6,0,1,1,32.299,32299,0.0400,-0.9700,-9.8300,9.8778,0.1331,0.0633,-0.0153,-0.44,-175.75,139.06,-0.0072,-0.8439,-9.6852,9.7219
2,6,0,1,1,32.429,32429,0.0400,-0.3700,-9.7400,9.7471,0.1047,0.0807,0.0033,-0.06,-176.25,139.25,-0.0010,-0.7815,-9.6924,9.7239
2,6,0,1,1,32.602,32602,0.2000,-0.5500,-9.5700,9.5879,0.3458,-0.1233,-0.0709,-0.38,-178.69,139.69,0.0255,-0.7510,-9.6763,9.7054
2,6,0,1,1,32.732,32732,0.0000,-0.5300,-9.4900,9.5048,0.0360,-0.1200,-0.0742,-1.25,-179.50,140.56,0.0221,-0.7218,-9.6517,9.6787
2,6,0,1,1,32.862,32862,0.3800,-0.2100,-9.5400,9.5499,-0.1353,-0.0404,-0.0087,-2.00,-179.00,140.75,0.0693,-0.6544,-9.6370,9.6595
2,6,0,1,1,32.992,32992,0.3800,0.2900,-9.9200,9.9315,0.0676,0.0687,-0.0774,-1.94,-178.81,141.25,0.1102,-0.5299,-9.6743,9.6894
2,6,0,1,1,33.122,33122,0.2400,0.2100,-10.5600,10.5648,0.3360,0.0753,0.0240,-1.50,179.25,141.38,0.1273,-0.4324,-9.7910,9.8014
2,6,0,1,1,33.252,33252,0.5700,0.4000,-9.9400,9.9644,0.3676,0.1669,-0.1407,-0.56,176.63,141.81,0.1857,-0.3227,-9.8106,9.8177
2,6,0,1,1,33.382,33382,-0.7100,0.6900,-8.5800,8.6369,0.1560,-0.3109,0.0404,-1.25,174.69,142.31,0.0676,-0.1893,-9.6485,9.6506
2,6,0,1,1,33.512,33512,-0.3600,1.9600,-7.7200,7.9731,0.1265,0.4592,0.1604,-0.50,174.38,141.88,0.0113,0.0939,-9.3944,9.3948
2,7,0,1,1,33.685,33685,0.7900,0.5700,-9.8400,9.8881,0.2160,-0.2105,-0.0360,1.06,170.81,140.50,0.1139,0.1567,-9.4531,9.4551
2,7,0,1,1,33.816,33816,0.3000,1.6300,-9.0300,9.1808,-0.3109,-0.0731,0.0185,-0.25,172.31,141.13,0.1384,0.3508,-9.3973,9.4049
2,7,0,1,1,33.947,33947,0.0600,1.8300,-9.4000,9.5767,0.1625,-0.0709,-0.0065,-0.63,172.94,141.50,0.1281,0.5457,-9.3977,9.4144
2,7,0,1,1,34.078,34078,0.2700,1.2100,-9.1300,9.2138,0.0295,-0.0076,0.0044,-0.88,171.38,142.13,0.1468,0.6333,-9.3624,9.3849
2,7,0,1,1,34.209,34209,0.4500,1.2800,-9.1800,9.2797,-0.2302,-0.1658,-0.0436,-1.38,172.69,142.75,0.1867,0.7185,-9.3384,9.3678
2,7,0,1,1,34.344,34344,-0.2200,1.3500,-8.6000,8.7081,-0.1004,0.0502,0.0905,-2.25,173.94,142.69,0.1331,0.8017,-9.2411,9.2767
2,7,0,1,1,34.475,34475,0.5500,0.6400,-9.5400,9.5772,-0.2127,0.1134,-0.1080,-0.94,174.69,142.81,0.1881,0.7804,-9.2805,9.3151
2,7,0,1,1,34.605,34605,-0.1000,0.9100,-9.2200,9.2653,-0.3076,-0.0447,-0.0251,-1.13,176.88,142.88,0.1501,0.7975,-9.2725,9.3079
2,7,0,1,1,34.778,34778,-0.3700,0.3500,-9.7200,9.7333,0.0109,0.1734,0.0905,-1.19,178.00,142.25,0.0816,0.7385,-9.3315,9.3610
2,7,0,1,1,34.908,34908,0.2400,0.0900,-10.0500,10.0533,-0.0185,0.2247,0.0196,0.63,178.19,141.94,0.1025,0.6531,-9.4262,9.4493
2,7,0,1,1,35.038,35038,-0.2400,0.1900,-9.5500,9.5549,-0.0818,-0.1058,0.0262,0.75,178.56,141.63,0.0573,0.5920,-9.4425,9.4612
2,7,0,1,1,35.168,35168,-0.1500,0.1800,-9.7400,9.7428,-0.0949,-0.0164,0.0327,0.13,179.31,141.13,0.0300,0.5377,-9.4817,9.4970
2,7,0,1,1,35.298,35298,-0.0200,-0.1800,-9.4700,9.4717,-0.1091,0.0076,-0.0938,0.38,179.88,141.25,0.0234,0.4432,-9.4801,9.4905
2,7,0,1,1,35.428,35428,-0.0200,-0.3000,-10.0400,10.0445,-0.2171,-0.0785,0.0894,-0.06,-178.63,141.19,0.0177,0.3452,-9.5539,9.5602
2,7,0,1,1,35.559,35559,0.1900,-0.1500,-9.7600,9.7630,-0.0327,0.0033,0.0164,-0.25,-177.63,140.94,0.0404,0.2800,-9.5811,9.5852
2,7,0,1,1,35.689,35689,0.1700,-0.7200,-9.5400,9.5686,-0.0665,0.0687,-0.0840,-0.06,-177.63,141.06,0.0575,0.1482,-9.5757,9.5770
2,7,0,1,1,35.862,35862,0.0700,-0.5000,-9.8600,9.8729,-0.1876,-0.1647,0.0425,-0.63,-176.25,140.94,0.0591,0.0628,-9.6131,9.6135
2,7,0,1,1,35.992,35992,0.0300,-0.4400,-9.8800,9.8898,-0.0425,-0.0491,0.0295,-1.31,-175.63,140.69,0.0553,-0.0035,-9.6483,9.6485
2,7,0,1,1,36.122,36122,0.2900,-0.5500,-10.1200,10.1391,-0.0524,0.0676,-0.0207,-1.19,-175.44,140.63,0.0862,-0.0755,-9.7105,9.7111
2,7,0,1,1,36.252,36252,0.3500,-0.5200,-9.9300,9.9498,0.2313,-0.0425,-0.0545,-1.25,-176.25,140.81,0.1210,-0.1341,-9.7394,9.7411
2,7,0,1,1,36.382,36382,0.1600,-0.5500,-10.1000,10.1162,0.2465,-0.0349,-0.0938,-1.69,-178.06,141.19,0.1261,-0.1889,-9.7869,9.7895
2,7,0,1,1,36.512,36512,0.4700,0.0700,-10.2300,10.2410,0.1494,0.0055,-0.0502,-1.38,-179.56,141.88,0.1714,-0.1548,-9.8453,9.8480
2,7,0,1,1,36.642,36642,0.2800,0.1900,-9.9300,9.9358,0.2793,-0.2247,-0.0120,-2.38,178.81,142.19,0.1857,-0.1093,-9.8565,9.8588
2,7,0,1,1,36.772,36772,0.0300,-0.2700,-9.6500,9.6538,0.0720,0.0229,-0.0425,-3.25,177.56,142.31,0.1652,-0.1305,-9.8292,9.8315
2,7,0,1,1,36.945,36945,0.6600,0.9500,-9.5500,9.6198,0.1058,0.2029,-0.0524,-1.19,178.25,142.19,0.2304,0.0119,-9.7925,9.7952
2,7,0,1,1,37.076,37076,0.2100,0.4200,-9.1400,9.1521,0.1822,0.0120,-0.0273,-0.75,176.38,142.25,0.2277,0.0657,-9.7065,9.7094
2,7,0,1,1,37.207,37207,0.5700,0.9900,-9.1900,9.2607,0.0055,-0.0665,0.0774,-0.63,176.06,142.38,0.2728,0.1875,-9.6384,9.6441
2,7,0,1,1,37.337,37337,-0.0400,0.5300,-9.0800,9.0955,0.3349,-0.0262,-0.0829,-1.56,174.75,142.44,0.2316,0.2326,-9.5648,9.5705
2,7,0,1,1,37.468,37468,0.2300,0.7400,-8.3900,8.4257,0.1440,0.0338,0.0916,-1.00,172.75,141.81,0.2314,0.2995,-9.4100,9.4176
2,7,0,1,1,37.600,37600,0.8300,1.8700,-9.0400,9.2686,0.1113,0.2040,0.2105,0.25,172.50,141.94,0.3103,0.5064,-9.3613,9.3801
2,7,0,1,1,37.734,37734,0.9200,1.7100,-8.9200,9.1289,0.3425,-0.0611,0.3120,0.81,170.44,140.75,0.3906,0.6650,-9.3031,9.3350
2,7,0,1,1,37.864,37864,0.2300,2.0500,-8.9300,9.1652,-0.0284,0.0044,-0.3458,0.50,169.25,141.63,0.3695,0.8475,-9.2539,9.3000
2,7,0,1,1,38.037,38037,0.4100,1.8400,-9.3000,9.4891,-0.0513,-0.2814,0.0709,0.13,169.69,143.88,0.3748,0.9783,-9.2600,9.3191
2,7,0,1,1,38.167,38167,-0.2700,1.9300,-8.5600,8.7790,0.0022,-0.0622,-0.1004,-1.44,169.75,144.50,0.2898,1.1037,-9.1678,9.2385
2,7,0,1,1,38.297,38297,0.0400,1.6000,-9.6200,9.7522,0.0185,-0.0131,0.0305,-1.06,169.38,144.69,0.2569,1.1691,-9.2274,9.3047
2,7,0,1,1,38.427,38427,-0.1400,2.0500,-9.0800,9.3096,0.0055,0.2618,0.1942,-0.88,169.50,143.50,0.2046,1.2852,-9.2079,9.2995
2,7,0,1,1,38.558,38558,0.5600,1.6300,-8.6200,8.7906,-0.1996,0.1113,0.2291,0.88,170.00,142.19,0.2514,1.3306,-9.1305,9.2303
2,8,0,1,1,38.688,38688,0.2300,1.2400,-9.9100,9.9899,-0.1647,-0.0338,-0.0731,0.56,171.31,141.56,0.2486,1.3187,-9.2332,9.3302
2,8,0,1,1,38.818,38818,-0.7000,1.2200,-9.8600,9.9598,-0.2062,0.2574,-0.0884,1.50,172.63,141.69,0.1236,1.3057,-9.3158,9.4077
2,8,0,1,1,38.948,38948,0.0700,0.7800,-9.2800,9.3130,-0.1887,0.1516,0.0229,3.44,173.88,141.63,0.1165,1.2364,-9.3111,9.3935
2,8,0,1,1,39.121,39121,-0.4600,0.5000,-9.4300,9.4544,-0.4549,-0.2694,-0.0993,1.94,176.94,141.63,0.0406,1.1394,-9.3267,9.3962
2,8,0,1,1,39.251,39251,-0.5400,0.1200,-10.2200,10.2350,-0.3185,-0.1298,-0.0164,0.44,179.81,142.00,-0.0359,1.0050,-9.4445,9.4978
2,8,0,1,1,39.381,39381,-0.3100,0.2300,-10.1500,10.1573,-0.1527,0.1920,0.0076,0.94,-178.44,141.75,-0.0720,0.9029,-9.5374,9.5803
2,8,0,1,1,39.511,39511,-0.0900,-0.4700,-9.5400,9.5520,0.0175,0.0545,0.0785,2.19,-178.38,141.44,-0.0744,0.7220,-9.5378,9.5653
2,8,0,1,1,39.641,39641,-0.3000,-0.7900,-9.4200,9.4578,-0.1920,-0.1342,0.0513,1.44,-177.69,140.94,-0.1041,0.5228,-9.5222,9.5372
2,8,0,1,1,39.771,39771,-0.2100,-0.5500,-9.9200,9.9375,-0.3545,0.0055,0.0175,1.00,-175.19,140.56,-0.1181,0.3814,-9.5747,9.5830
2,8,0,1,1,39.901,39901,0.0000,-0.5800,-10.0600,10.0767,-0.0207,0.0033,-0.0185,1.13,-174.31,140.63,-0.1025,0.2547,-9.6386,9.6425
2,8,0,1,1,40.032,40032,-0.1100,-0.7900,-9.9100,9.9420,0.0567,-0.0720,-0.0153,0.69,-174.75,140.69,-0.1035,0.1170,-9.6744,9.6756
2,8,0,1,1,40.205,40205,-0.3500,-0.9700,-10.1800,10.2321,0.1494,-0.0044,-0.0305,0.13,-175.63,141.00,-0.1360,-0.0262,-9.7410,9.7420
2,8,0,1,1,40.337,40337,-0.0100,-0.6600,-9.5100,9.5329,0.1811,0.0360,-0.0371,0.56,-177.00,140.94,-0.1194,-0.1097,-9.7106,9.7119
2,8,0,1,1,40.468,40468,0.1000,-0.5200,-10.2300,10.2437,-0.0131,-0.1571,0.0022,-0.06,-177.56,140.88,-0.0905,-0.1638,-9.7790,9.7808
2,8,0,1,1,40.601,40601,-0.1000,0.1000,-9.9700,9.9710,0.1189,0.0185,-0.0807,-1.06,-177.69,141.19,-0.0917,-0.1290,-9.8042,9.8055
2,8,0,1,1,40.732,40732,0.1700,0.0200,-9.8600,9.8615,0.4571,0.0851,-0.0600,-0.13,179.69,141.75,-0.0572,-0.1094,-9.8115,9.8123
2,8,0,1,1,40.864,40864,0.1300,-0.0900,-9.5800,9.5813,0.3076,-0.0633,-0.0153,-0.44,176.94,142.31,-0.0326,-0.1068,-9.7810,9.7817
2,8,0,1,1,40.995,40995,-0.1500,0.5400,-9.5400,9.5564,-0.0447,-0.0567,-0.0513,-1.00,176.50,142.81,-0.0480,-0.0216,-9.7493,9.7494
2,8,0,1,1,41.125,41125,-0.3000,0.8000,-9.0800,9.1201,0.0720,0.0611,-0.0207,-0.81,176.63,142.88,-0.0812,0.0867,-9.6611,9.6618
2,8,0,1,1,41.298,41298,0.2100,0.9700,-9.0900,9.1440,0.2345,0.1287,0.0774,0.31,175.56,141.69,-0.0429,0.2031,-9.5858,9.5881
2,8,0,1,1,41.429,41429,0.6400,1.0400,-9.2000,9.2807,0.2138,-0.1920,-0.0785,0.19,173.75,141.44,0.0471,0.3134,-9.5350,9.5402
2,8,0,1,1,41.559,41559,-1.3300,1.2000,-8.5400,8.7259,0.1909,-0.1920,0.1811,-1.56,172.56,142.13,-0.1344,0.4302,-9.4039,9.4147
2,8,0,1,1,41.691,41691,0.4200,1.3000,-8.9600,9.0636,0.0916,0.3578,0.2836,0.25,171.25,141.06,-0.0613,0.5448,-9.3454,9.3614
2,8,0,1,1,41.822,41822,0.4300,1.5200,-9.2600,9.3938,-0.1276,-0.1505,0.1265,0.75,171.56,140.13,0.0034,0.6733,-9.3341,9.3584
2,8,0,1,1,41.957,41957,-0.1500,1.3800,-9.6900,9.7889,0.0447,-0.0796,0.0164,-0.19,172.00,140.75,-0.0168,0.7664,-9.3810,9.4123
2,8,0,1,1,42.088,42088,-0.0600,1.4000,-9.2900,9.3951,-0.0305,0.0131,-0.0382,-0.25,171.88,140.81,-0.0225,0.8499,-9.3690,9.4075
2,8,0,1,1,42.219,42219,-0.1700,1.1000,-9.7900,9.8531,-0.0502,0.0720,0.0251,0.06,172.19,141.06,-0.0419,0.8829,-9.4245,9.4659
2,8,0,1,1,42.391,42391,0.0700,1.3500,-9.0200,9.1207,0.0393,0.1451,0.0284,1.06,172.44,140.25,-0.0272,0.9444,-9.3712,9.4187
2,8,0,1,1,42.521,42521,-0.1500,1.3100,-8.0700,8.1770,-0.1058,0.0404,-0.1167,1.75,172.63,140.44,-0.0434,0.9926,-9.1997,9.2532
2,9,0,1,1,42.651,42651,-0.2200,0.9700,-9.5500,9.6017,-0.5498,0.0240,-0.1876,1.50,175.19,141.31,-0.0666,0.9896,-9.2459,9.2989
2,9,0,1,1,42.781,42781,-0.4600,0.9800,-9.2600,9.3231,-0.2945,-0.0044,-0.1833,1.44,178.19,141.81,-0.1185,0.9884,-9.2477,9.3012
2,9,0,1,1,42.911,42911,-1.1300,-0.2300,-9.7900,9.8577,-0.0535,0.1876,0.0905,1.69,179.00,141.75,-0.2518,0.8278,-9.3192,9.3593
2,9,0,1,1,43.041,43041,-0.6000,-0.3800,-9.8700,9.8955,-0.2803,0.4145,0.0567,4.38,-179.69,141.06,-0.2977,0.6687,-9.3918,9.4203
2,9,0,1,1,43.171,43171,-0.2000,-0.3700,-9.5000,9.5093,-0.1593,-0.2029,0.0535,5.06,-178.06,140.88,-0.2848,0.5318,-9.4060,9.4254
2,9,0,1,1,43.302,43302,-0.7400,-0.8500,-9.0800,9.1497,-0.1593,-0.3251,-0.0251,2.75,-176.94,140.94,-0.3448,0.3497,-9.3631,9.3759
2,9,0,1,1,43.475,43475,-0.8900,-1.4900,-10.0700,10.2185,-0.4440,0.2269,0.0087,2.75,-173.81,140.88,-0.4166,0.1073,-9.4562,9.4660
2,9,0,1,1,43.605,43605,-0.5300,-1.2300,-10.3200,10.4065,-0.3054,0.2018,0.0982,4.63,-171.00,140.31,-0.4316,-0.0689,-9.5701,9.5800
2,9,0,1,1,43.735,43735,-0.3300,-1.4100,-9.9000,10.0053,0.0055,-0.1800,0.0458,4.00,-170.69,138.81,-0.4182,-0.2457,-9.6135,9.6258
2,9,0,1,1,43.865,43865,-0.4700,-1.6800,-9.6000,9.7572,0.0818,-0.2345,-0.0938,1.94,-171.31,138.19,-0.4250,-0.4347,-9.6118,9.6310
2,9,0,1,1,43.995,43995,-0.6000,-1.5300,-9.2900,9.4342,0.0371,-0.0098,-0.0894,1.44,-171.50,137.88,-0.4481,-0.5790,-9.5694,9.5973
2,9,0,1,1,44.125,44125,-0.3900,-1.5500,-9.7000,9.8308,0.0076,-0.0284,-0.0196,1.50,-171.56,137.63,-0.4404,-0.7070,-9.5866,9.6227
2,9,0,1,1,44.255,44255,-0.1700,-1.0700,-9.9700,10.0287,0.0327,-0.0894,0.0120,1.19,-171.50,137.50,-0.4048,-0.7548,-9.6371,9.6751
2,9,0,1,1,44.385,44385,-0.1300,-1.3000,-10.0600,10.1445,0.3174,-0.0884,-0.0207,0.44,-173.38,137.44,-0.3686,-0.8266,-9.6928,9.7350
2,9,0,1,1,44.558,44558,-0.0500,-0.5600,-10.0100,10.0258,0.3534,-0.0873,-0.0371,-0.25,-176.00,137.50,-0.3266,-0.7915,-9.7346,9.7722
2,9,0,1,1,44.689,44689,-0.1400,-0.7100,-9.8000,9.8267,0.3567,-0.0076,-0.1342,-0.44,-178.69,138.25,-0.3020,-0.7808,-9.7432,9.7791
2,9,0,1,1,44.819,44819,0.0000,0.1600,-9.8200,9.8213,-0.0131,0.1276,-0.0131,-0.13,-179.75,138.63,-0.2622,-0.6568,-9.7534,9.7790
2,9,0,1,1,44.955,44955,0.1900,0.3800,-10.3700,10.3787,-0.0851,0.0785,-0.0665,0.63,-179.25,139.13,-0.2026,-0.5202,-9.8346,9.8504
2,9,0,1,1,45.085,45085,-0.2900,0.4300,-9.0100,9.0249,0.5563,-0.0229,-0.0796,0.38,178.69,139.63,-0.2141,-0.3950,-9.7259,9.7363
2,9,0,1,1,45.217,45217,-0.3700,0.1100,-8.6900,8.6986,0.3851,0.2389,-0.0142,1.44,174.75,140.56,-0.2347,-0.3284,-9.5894,9.5979
2,9,0,1,1,45.347,45347,-0.0400,0.8400,-8.8000,8.8401,0.0654,0.1036,0.0142,2.81,173.75,140.81,-0.2090,-0.1745,-9.4854,9.4893
2,9,0,1,1,45.478,45478,-0.0400,0.5000,-9.0500,9.0639,-0.0229,-0.3905,-0.1353,0.88,173.25,140.63,-0.1867,-0.0856,-9.4280,9.4303
2,9,0,1,1,45.651,45651,-0.0200,1.9400,-9.4300,9.6275,-0.2247,-0.0251,-0.0905,-1.69,175.75,142.13,-0.1648,0.1813,-9.4283,9.4315
2,9,0,1,1,45.782,45782,0.0100,1.0400,-9.6700,9.7258,0.3098,0.0840,-0.0382,-1.06,174.75,143.25,-0.1417,0.2945,-9.4601,9.4658
2,9,0,1,1,45.912,45912,0.0400,0.8100,-8.9600,8.9966,0.0709,0.0709,0.0284,-0.38,173.31,143.25,-0.1178,0.3624,-9.3942,9.4020
2,9,0,1,1,46.042,46042,0.1100,1.4000,-9.3300,9.4351,-0.2018,-0.0425,0.0196,-0.44,174.31,143.25,-0.0878,0.4991,-9.3858,9.3994
2,9,0,1,1,46.172,46172,-0.0700,1.1200,-9.1500,9.2186,0.0076,0.0316,0.0284,-0.63,174.69,143.19,-0.0854,0.5810,-9.3547,9.3731
2,9,0,1,1,46.303,46303,-0.2700,0.7400,-8.5100,8.5464,0.0065,0.2662,-0.0796,0.06,174.50,142.75,-0.1098,0.6019,-9.2434,9.2636
2,9,0,1,1,46.433,46433,0.0100,0.7300,-8.9100,8.9399,-0.1702,0.1178,-0.1571,2.00,175.13,142.94,-0.0940,0.6188,-9.1995,9.2207
2,10,0,1,1,46.563,46563,-0.6000,0.3300,-9.2700,9.2953,-0.2422,-0.2749,0.0982,1.38,176.81,142.88,-0.1607,0.5807,-9.2088,9.2284
2,10,0,1,1,46.736,46736,-0.4300,0.0500,-10.0700,10.0793,-0.3742,0.0556,-0.0218,-0.06,-179.94,142.81,-0.1961,0.5108,-9.3222,9.3383
2,10,0,1,1,46.866,46866,-0.1500,0.0200,-10.0100,10.0111,-0.1287,0.1985,0.1058,1.25,-178.19,142.13,-0.1901,0.4461,-9.4129,9.4254
2,10,0,1,1,46.997,46997,-0.0400,-0.7900,-9.5800,9.6126,-0.0327,-0.0360,0.1091,1.75,-178.19,141.31,-0.1703,0.2832,-9.4349,9.4407
2,10,0,1,1,47.132,47132,-0.1200,-1.0000,-9.6900,9.7422,-0.2934,0.0371,-0.0360,1.88,-176.88,141.06,-0.1637,0.1141,-9.4685,9.4706
2,10,0,1,1,47.263,47263,-0.1300,-1.0600,-9.9300,9.9873,-0.3611,-0.1953,-0.0055,0.94,-173.75,141.38,-0.1592,-0.0406,-9.5293,9.5307
2,10,0,1,1,47.393,47393,-0.2900,-0.9300,-9.9400,9.9876,-0.0993,-0.1102,-0.0076,-0.06,-172.38,141.13,-0.1765,-0.1578,-9.5834,9.5864
2,10,0,1,1,47.539,47539,-0.0300,-0.8800,-9.7900,9.8295,0.1287,0.0338,-0.0633,-0.06,-172.38,141.31,-0.1572,-0.2530,-9.6107,9.6153
2,10,0,1,1,47.671,47671,0.1300,-1.3900,-9.4700,9.5724,0.2225,-0.0371,0.0185,-0.13,-174.44,141.31,-0.1193,-0.4028,-9.5921,9.6013
2,10,0,1,1,47.844,47844,-0.0100,-1.0500,-9.7200,9.7766,-0.0011,-0.0349,0.0251,-0.25,-174.50,141.50,-0.1049,-0.4881,-9.6090,9.6219
2,10,0,1,1,47.976,47976,-0.0400,-0.4700,-10.2500,10.2608,0.0011,-0.0415,0.0000,-0.56,-174.06,141.63,-0.0964,-0.4857,-9.6934,9.7061
2,10,0,1,1,48.106,48106,0.3200,-0.4900,-10.1600,10.1768,0.3840,-0.0894,-0.0076,-0.94,-175.56,141.69,-0.0415,-0.4863,-9.7549,9.7671
2,10,0,1,1,48.237,48237,0.4000,-0.8000,-10.0300,10.0698,0.3578,0.0164,-0.1636,-1.44,-178.56,142.25,0.0167,-0.5276,-9.7912,9.8054
2,10,0,1,1,48.367,48367,0.4100,-0.0300,-9.7600,9.7687,0.0360,0.0131,-0.0382,-1.25,179.88,142.75,0.0685,-0.4620,-9.7871,9.7982
2,10,0,1,1,48.497,48497,-0.2600,0.4700,-9.8900,9.9046,0.1571,-0.0753,-0.0382,-1.94,179.31,142.69,0.0252,-0.3392,-9.8006,9.8065
2,10,0,1,1,48.628,48628,-0.0200,0.3800,-10.1600,10.1671,0.3371,0.2182,-0.0993,-1.00,177.19,143.38,0.0193,-0.2444,-9.8480,9.8510
2,10,0,1,1,48.758,48758,0.4600,0.3900,-8.7700,8.7907,0.1614,-0.1625,-0.0589,-0.75,175.13,143.25,0.0773,-0.1608,-9.7059,9.7076
2,10,0,1,1,48.931,48931,-0.4600,1.4600,-8.8400,8.9716,-0.1789,0.3392,-0.0044,-1.56,175.13,142.25,0.0065,0.0527,-9.5918,9.5920
2,10,0,1,1,49.062,49062,1.0200,1.4200,-9.6000,9.7579,0.3643,0.0622,-0.0764,0.50,174.44,141.25,0.1401,0.2329,-9.5929,9.5968
2,10,0,1,1,49.193,49193,0.2900,0.6400,-9.5400,9.5658,0.3578,-0.0665,-0.1080,-0.38,171.19,142.38,0.1598,0.2866,-9.5859,9.5915
2,10,0,1,1,49.325,49325,0.0100,1.5200,-8.7800,8.9106,-0.0949,0.0469,0.0731,-0.38,170.88,142.69,0.1401,0.4491,-9.4797,9.4914
2,10,0,1,1,49.456,49456,0.1100,1.8300,-9.6400,9.8128,-0.0949,-0.2051,-0.1571,-0.94,171.75,142.94,0.1361,0.6311,-9.5009,9.5228
2,10,0,1,1,49.590,49590,-0.0900,1.4800,-9.4300,9.5459,0.1494,0.1265,-0.0098,-1.19,171.50,143.81,0.1063,0.7429,-9.4915,9.5211
2,10,0,1,1,49.721,49721,0.0700,1.4100,-9.4500,9.5549,0.0927,0.1680,0.1418,0.00,170.50,142.88,0.1015,0.8308,-9.4860,9.5229
2,10,0,1,1,49.852,49852,0.2000,1.5800,-9.5100,9.6424,-0.0011,-0.0851,-0.0513,0.25,170.50,142.63,0.1145,0.9296,-9.4892,9.5353
2,10,0,1,1,50.027,50027,-0.4500,1.6500,-9.0400,9.2004,-0.0622,0.0971,0.0742,-0.50,170.63,142.25,0.0401,1.0245,-9.4300,9.4856
2,10,0,1,1,50.157,50157,0.1300,1.5600,-8.6800,8.8200,0.0840,0.1407,0.0142,0.69,170.44,141.50,0.0520,1.0951,-9.3312,9.3954
2,10,0,1,1,50.291,50291,-0.2500,1.4300,-8.5200,8.6428,-0.3251,0.1942,-0.1058,1.31,171.31,141.25,0.0122,1.1392,-9.2243,9.2944
2,10,0,1,1,50.423,50423,0.0600,1.6600,-8.6400,8.7982,-0.2465,0.0251,0.0447,2.44,173.88,140.69,0.0185,1.2078,-9.1473,9.2267
2,10,0,1,1,50.553,50553,-0.6700,0.3300,-10.2200,10.2473,-0.2356,-0.1036,0.1036,1.31,175.06,140.31,-0.0722,1.0921,-9.2886,9.3529
2,10,0,1,1,50.684,50684,-0.7000,0.1800,-10.3800,10.4051,-0.3392,0.2029,-0.0033,2.19,177.31,140.00,-0.1550,0.9720,-9.4325,9.4837
2,10,0,1,1,50.814,50814,-0.1900,0.3800,-9.6500,9.6593,-0.1200,0.0055,0.0436,3.19,179.31,139.88,-0.1596,0.8939,-9.4611,9.5046
2,10,0,1,1,50.945,50945,-0.0400,-0.2200,-9.5600,9.5626,-0.0993,-0.1756,0.0676,2.44,179.81,139.69,-0.1438,0.7472,-9.4742,9.5047
2,10,0,1,1,51.117,51117,-0.2900,-0.5400,-9.7700,9.7892,-0.2389,-0.2411,-0.0055,0.25,-177.94,139.75,-0.1631,0.5775,-9.5131,9.5320
2,10,0,1,1,51.247,51247,0.0400,-0.1500,-11.0600,11.0611,-0.0218,-0.1549,0.1047,-0.75,-176.81,139.19,-0.1363,0.4817,-9.7170,9.7299
2,10,0,1,1,51.377,51377,-1.0300,1.3200,-11.8300,11.9479,0.9697,-0.2563,0.1800,-2.25,-179.56,138.44,-0.2541,0.5921,-9.9954,10.0162
2,10,0,1,1,51.507,51507,4.2300,1.7100,-11.1800,12.0752,2.9103,-0.0905,2.3169,-3.44,166.19,131.94,0.3368,0.7394,-10.1515,10.1840
2,10,0,1,1,51.637,51637,0.7300,2.8000,-7.6100,8.1416,1.7421,-0.6447,0.5749,-8.94,148.81,125.94,0.3886,1.0110,-9.8166,9.8762
2,10,0,1,1,51.767,51767,2.3100,4.8000,-7.0400,8.8282,0.9610,0.6370,1.0777,-10.50,140.06,121.75,0.6418,1.5103,-9.4507,9.5921
2,10,0,1,1,51.898,51898,1.9200,6.1700,-6.3600,9.0667,0.8018,0.3076,0.6436,-10.44,135.69,324.44,0.8102,2.1243,-9.0434,9.3249
2,10,0,1,1,52.028,52028,1.8000,6.1500,-6.2100,8.9234,0.2913,-0.6360,0.3840,-15.44,131.38,330.94,0.9407,2.6548,-8.6701,9.1161
2,10,0,1,1,52.201,52201,2.7400,6.9600,-5.0800,9.0419,-0.1320,-0.5225,0.7145,-19.94,131.75,340.75,1.1778,3.2221,-8.1970,8.8859
2,10,0,1,1,52.331,52331,4.1500,7.0600,-6.2800,10.3201,-0.0960,-0.5825,0.3567,-25.38,132.56,352.63,1.5694,3.7278,-7.9444,8.9148
2,10,0,1,1,52.462,52462,3.7900,7.9400,-5.9100,10.5989,1.2043,-1.0112,-1.2675,-28.50,125.94,356.31,1.8620,4.2829,-7.6763,8.9853
2,10,0,1,1,52.592,52592,3.1400,5.8800,-3.0400,7.3264,0.9119,0.0022,-0.4352,-26.38,112.69,349.06,2.0304,4.4934,-7.0654,8.6158
2,10,0,1,1,52.723,52723,3.4300,8.3500,-3.7800,9.7865,-0.3011,-0.6785,0.1505,-28.38,112.56,351.38,2.2149,5.0016,-6.6324,8.5971
2,10,0,1,1,52.854,52854,4.6800,8.4400,-3.0000,10.1062,0.4571,-0.3676,0.1429,-32.56,109.75,359.19,2.5397,5.4547,-6.1538,8.6065
2,10,0,1,1,52.986,52986,5.5300,7.7300,-2.0100,9.7146,1.0679,-0.3785,-0.2116,-33.44,102.00,357.25,2.9338,5.7545,-5.6077,8.5538
2,10,0,1,1,53.117,53117,5.7200,8.5700,-0.5300,10.3172,1.0003,-0.3262,0.0393,-33.50,92.75,353.94,3.3009,6.1255,-4.9386,8.5327
2,10,0,1,1,53.291,53291,5.0500,7.8800,1.0200,9.4147,0.7101,-0.0644,-0.2280,-33.13,83.63,350.00,3.5314,6.3567,-4.1534,8.3743
2,10,0,1,1,53.422,53422,5.2500,8.1000,1.8800,9.8340,0.5040,-0.0502,0.0731,-32.13,79.19,347.25,3.7579,6.5864,-3.3584,8.2934
2,10,0,1,1,53.553,53553,4.4600,8.0900,2.2500,9.5080,0.4614,-0.0916,0.0262,-31.75,75.06,346.00,3.8504,6.7846,-2.6193,8.2290
2,10,0,1,1,53.683,53683,5.0900,7.6900,3.0300,9.7070,0.4222,-0.0589,0.0262,-32.50,71.50,345.63,4.0137,6.9039,-1.8749,8.2030
