participant,rep,equipment_code,exercise_code,quality_code,timestamp,timestamp_ms,accelX,accelY,accelZ,accelMag,gyroX,gyroY,gyroZ,roll,pitch,yaw,filteredX,filteredY,filteredZ,filteredMag
3,1,0,1,1,00.000,0,-0.7100,2.1000,-11.1000,11.3192,-1.1639,0.3218,-0.1058,2.06,174.13,161.88,-0.5418,0.8793,-9.3105,9.3676
3,1,0,1,1,00.131,131,0.0000,1.1600,-12.1500,12.2052,-0.2716,-0.2225,-0.0731,2.81,178.56,161.94,-0.4704,0.9163,-9.6846,9.7393
3,1,0,1,1,00.261,261,-1.2300,1.2300,-10.0900,10.2388,0.5487,-0.0087,-0.0295,1.19,178.44,161.63,-0.5705,0.9576,-9.7381,9.8016
3,1,0,1,1,00.392,392,-0.1900,-0.5800,-8.8000,8.8211,0.0938,0.2269,0.1276,2.75,174.56,161.75,-0.5204,0.7550,-9.6144,9.6581
3,1,0,1,1,00.523,523,-0.2500,0.5000,-9.0900,9.1072,-0.1538,-0.0884,-0.0131,2.94,175.63,161.44,-0.4847,0.7214,-9.5453,9.5848
3,1,0,1,1,00.654,654,-0.8700,1.0300,-10.1500,10.2392,-0.3349,0.0622,-0.0731,2.69,177.88,161.75,-0.5355,0.7621,-9.6250,9.6700
3,1,0,1,1,00.785,785,-0.4100,0.4800,-9.5300,9.5509,0.2280,-0.0371,0.0545,2.63,178.00,161.31,-0.5190,0.7249,-9.6125,9.6537
3,1,0,1,1,00.918,918,-0.4100,0.1500,-9.3000,9.3102,-0.0927,0.0327,-0.0076,2.56,177.56,161.19,-0.5046,0.6491,-9.5713,9.6066
3,1,0,1,1,01.091,1091,-0.2500,0.3800,-9.7100,9.7206,-0.1353,-0.0654,0.0022,2.19,178.94,161.00,-0.4711,0.6137,-9.5896,9.6207
3,1,0,1,1,01.222,1222,-0.8000,0.5400,-10.3000,10.3451,0.0218,0.1691,-0.0218,2.44,179.31,161.06,-0.5144,0.6040,-9.6832,9.7156
3,1,0,1,1,01.352,1352,-0.5500,0.4500,-10.3700,10.3943,0.4287,0.1418,0.0065,4.31,177.19,161.38,-0.5191,0.5837,-9.7737,9.8049
3,1,0,1,1,01.482,1482,-0.3000,0.7200,-9.7200,9.7512,0.5072,-0.0131,0.0938,4.94,174.13,160.88,-0.4902,0.6016,-9.7666,9.7974
3,1,0,1,1,01.628,1628,0.0700,1.3300,-10.3900,10.4750,0.0753,-0.0458,0.0098,3.81,172.00,160.38,-0.4164,0.6976,-9.8488,9.8822
3,1,0,1,1,01.763,1763,-0.2200,1.0000,-9.7000,9.7539,0.4527,-0.5247,-0.0196,1.63,170.31,162.50,-0.3905,0.7375,-9.8292,9.8645
3,1,0,1,1,01.894,1894,-0.4500,2.3600,-8.6400,8.9678,0.6360,0.2214,0.2902,0.88,167.88,162.63,-0.3984,0.9513,-9.6725,9.7273
3,1,0,1,1,02.024,2024,-0.6200,2.1200,-8.5200,8.8017,0.1953,0.3731,-0.1887,2.81,165.25,161.94,-0.4276,1.1053,-9.5206,9.5941
3,1,0,1,1,02.197,2197,-0.8800,2.3500,-9.3300,9.6616,-0.1909,-0.1058,-0.1854,3.13,164.56,163.13,-0.4872,1.2693,-9.4955,9.5923
3,1,0,1,1,02.328,2328,-1.6900,1.6100,-8.9700,9.2687,-0.3894,0.5552,-0.1004,5.06,166.31,164.75,-0.6457,1.3142,-9.4262,9.5393
3,1,0,1,1,02.458,2458,-1.6800,3.7900,-4.9500,6.4567,0.2782,0.3818,0.3054,7.75,167.31,163.25,-0.7820,1.6404,-8.8364,9.0213
3,1,0,1,1,02.589,2589,0.0500,1.7600,-9.8900,10.0455,0.7254,-0.3262,-0.3229,7.94,162.75,162.88,-0.6723,1.6562,-8.9752,9.1515
3,1,0,1,1,02.719,2719,-2.1800,3.2400,-6.9700,7.9894,0.3949,0.0349,-0.1724,6.31,160.00,165.25,-0.8710,1.8649,-8.7110,8.9509
3,2,0,1,1,02.850,2850,-0.7600,3.2600,-9.3000,9.8841,-0.5683,0.0142,-0.1058,7.44,160.06,166.19,-0.8564,2.0487,-8.7886,9.0648
3,2,0,1,1,02.981,2981,-0.6900,2.2600,-8.4500,8.7742,0.0600,0.1407,-0.2847,7.31,162.31,166.56,-0.8345,2.0766,-8.7440,9.0258
3,2,0,1,1,03.113,3113,-2.8200,7.4000,-11.0400,13.5865,0.5072,0.0415,0.4178,6.69,163.31,166.00,-1.0961,2.7781,-9.0465,9.5268
3,2,0,1,1,03.286,3286,-0.7400,-0.1700,-6.4900,6.5343,-0.1113,-0.0196,-0.0862,12.38,149.81,166.44,-1.0492,2.3896,-8.7097,9.0922
3,2,0,1,1,03.418,3418,-2.3600,5.0800,-9.4500,10.9854,-1.0527,-0.3840,0.0742,9.44,158.75,166.13,-1.2219,2.7441,-8.8072,9.3054
3,2,0,1,1,03.548,3548,-0.9500,3.0800,-7.8300,8.4675,-0.0676,0.1494,-0.1113,9.81,160.75,166.50,-1.1861,2.7884,-8.6784,9.1922
3,2,0,1,1,03.680,3680,-1.2900,1.6100,-8.8400,9.0775,-0.6818,-0.3109,-0.0862,9.69,163.06,167.88,-1.1998,2.6331,-8.6997,9.1683
3,2,0,1,1,03.810,3810,-1.7200,3.9700,-9.7400,10.6577,-0.3872,-0.2651,-0.2542,7.56,168.63,168.81,-1.2683,2.8093,-8.8368,9.3589
3,2,0,1,1,03.940,3940,-1.1800,1.5200,-7.5600,7.8011,0.3545,0.0829,0.2083,7.38,166.94,169.00,-1.2567,2.6394,-8.6686,9.1482
3,2,0,1,1,04.071,4071,-0.5700,0.6000,-10.0500,10.0840,-0.8759,-0.1713,-0.0644,7.13,168.81,168.50,-1.1662,2.3706,-8.8506,9.2365
3,2,0,1,1,04.201,4201,-1.5400,1.9900,-9.3500,9.6827,-0.4974,0.1254,-0.1374,6.38,174.88,168.69,-1.2155,2.3205,-8.9164,9.2932
3,2,0,1,1,04.374,4374,-0.5000,0.3400,-9.5300,9.5492,-0.4505,-0.2171,-0.0218,5.06,178.56,168.38,-1.1212,2.0595,-8.9973,9.2978
3,2,0,1,1,04.505,4505,-0.8200,0.2100,-9.5900,9.6273,-0.1756,-0.3883,-0.0305,2.44,-179.00,169.13,-1.0815,1.8158,-9.0754,9.3182
3,2,0,1,1,04.636,4636,-0.1800,-0.7500,-9.3700,9.4017,-0.0796,0.1429,0.0949,1.81,-178.81,168.56,-0.9627,1.4777,-9.1142,9.2833
3,2,0,1,1,04.766,4766,0.2900,0.1600,-9.4000,9.4058,-0.0611,-0.7538,0.2422,-0.75,-177.69,167.69,-0.7976,1.3040,-9.1519,9.2786
3,2,0,1,1,04.897,4897,-0.0500,-1.5800,-10.2800,10.4008,0.1800,0.1527,0.5301,-3.19,-178.94,165.00,-0.6991,0.9240,-9.3005,9.3724
3,2,0,1,1,05.027,5027,1.8600,0.5000,-12.1400,12.2918,-0.5149,-0.0316,-0.0022,-1.63,-176.94,162.50,-0.3619,0.8681,-9.6747,9.7203
3,2,0,1,1,05.160,5160,-0.0600,0.7100,-9.5000,9.5267,0.9970,-0.0240,-0.0687,-4.00,-178.63,162.13,-0.3221,0.8473,-9.6517,9.6941
3,2,0,1,1,05.291,5291,0.2600,-1.2000,-8.5200,8.6080,0.4102,0.4691,-0.0251,-1.13,175.13,162.69,-0.2454,0.5775,-9.5025,9.5232
3,2,0,1,1,05.465,5465,0.1900,0.8500,-10.2200,10.2570,-0.7199,0.0393,0.0284,1.63,179.50,163.81,-0.1880,0.6134,-9.5971,9.6185
3,2,0,1,1,05.595,5595,-0.4400,1.5300,-11.7200,11.8276,0.0305,-0.0502,-0.1080,1.38,-178.19,164.69,-0.2212,0.7342,-9.8768,9.9066
3,2,0,1,1,05.726,5726,-0.4900,0.4700,-10.6700,10.6916,1.3406,0.0175,-0.3316,2.00,175.75,166.94,-0.2566,0.6994,-9.9814,10.0091
3,3,0,1,1,05.856,5856,-0.6200,0.9600,-9.3300,9.3997,0.6894,-0.2771,-0.0295,2.13,168.63,168.69,-0.3045,0.7337,-9.8955,9.9274
3,3,0,1,1,05.987,5987,-0.5200,1.2400,-9.4200,9.5155,-0.0131,0.1276,-0.2520,1.75,166.13,170.19,-0.3329,0.8004,-9.8329,9.8710
3,3,0,1,1,06.117,6117,-1.4000,4.6900,-8.4200,9.7392,0.3567,-0.1909,0.6196,1.56,165.94,169.94,-0.4735,1.3130,-9.6467,9.7471
3,3,0,1,1,06.248,6248,0.2800,2.1200,-8.6000,8.8619,0.8214,0.3971,0.0436,3.00,159.38,168.44,-0.3742,1.4193,-9.5088,9.6214
3,3,0,1,1,06.378,6378,-0.1200,2.8600,-7.5600,8.0838,0.1865,0.0971,-0.3731,5.50,156.56,169.19,-0.3407,1.6092,-9.2520,9.3970
3,3,0,1,1,06.551,6551,-0.3700,3.5500,-9.4700,10.1203,-0.5029,-0.6578,-0.2596,3.31,157.63,171.25,-0.3446,1.8649,-9.2807,9.4725
3,3,0,1,1,06.681,6681,-0.5300,4.2200,-7.7400,8.8316,0.0458,-0.4865,-0.3556,-0.88,159.81,172.63,-0.3690,2.1753,-9.0777,9.3419
3,3,0,1,1,06.811,6811,-1.0700,0.9600,-9.3600,9.4697,-1.3974,-0.1647,-0.4734,-0.44,162.56,177.00,-0.4614,2.0151,-9.1149,9.3464
3,3,0,1,1,06.941,6941,0.6900,4.2900,-11.2300,12.0413,-0.6796,-0.2149,0.1167,-2.44,173.00,176.56,-0.3097,2.3149,-9.3936,9.6796
3,3,0,1,1,07.071,7071,-0.2100,1.3000,-9.7300,9.8187,0.6610,0.3011,-0.0971,-1.56,170.44,177.06,-0.2965,2.1812,-9.4379,9.6912
3,3,0,1,1,07.201,7201,0.3300,1.2600,-8.5300,8.6289,-0.0404,0.1538,0.0196,0.06,168.50,176.63,-0.2140,2.0598,-9.3183,9.5456
3,3,0,1,1,07.331,7331,0.2200,1.7100,-9.5900,9.7437,-0.3447,-0.0676,0.2378,0.31,170.31,175.81,-0.1568,2.0137,-9.3541,9.5697
3,3,0,1,1,07.462,7462,-0.1300,1.8800,-9.3600,9.5478,-0.0818,0.0360,0.0109,0.00,171.75,175.06,-0.1533,1.9961,-9.3549,9.5667
3,3,0,1,1,07.634,7634,-0.5100,0.8200,-9.3200,9.3699,-0.2269,-0.0633,0.1342,-0.13,172.81,174.69,-0.2003,1.8411,-9.3503,9.5319
3,3,0,1,1,07.764,7764,0.2900,1.1900,-8.4900,8.5779,-0.2171,0.2814,0.1276,0.63,174.69,173.00,-0.1357,1.7553,-9.2369,9.4032
3,3,0,1,1,07.894,7894,-0.2000,0.9300,-10.1300,10.1746,-0.3469,0.2509,-0.1298,3.13,176.88,173.63,-0.1441,1.6465,-9.3546,9.4995
3,3,0,1,1,08.024,8024,-0.7400,3.3100,-11.9600,12.4316,0.5280,-0.1745,0.2323,4.00,177.63,174.31,-0.2227,1.8657,-9.6979,9.8783
3,3,0,1,1,08.154,8154,0.0300,-0.6700,-6.7900,6.8230,1.2643,0.7254,-0.1724,4.31,167.56,172.56,-0.1894,1.5316,-9.3147,9.4417
3,3,0,1,1,08.284,8284,0.1000,-0.1300,-8.8800,8.8815,-1.4857,-0.3163,-0.1582,6.81,169.81,172.69,-0.1512,1.3126,-9.2574,9.3513
3,3,0,1,1,08.414,8414,-0.7100,1.5700,-8.9100,9.0751,-0.9654,-0.6872,0.1091,1.94,-179.19,172.50,-0.2249,1.3466,-9.2117,9.3123
3,4,0,1,1,08.545,8545,-0.6200,-1.3700,-9.8600,9.9740,-0.5825,0.1516,-0.0131,0.94,-175.44,172.56,-0.2769,0.9886,-9.2971,9.3536
3,4,0,1,1,08.718,8718,-0.2500,0.7100,-11.1900,11.2153,-0.3196,-0.1931,0.1844,0.56,-167.69,172.50,-0.2734,0.9519,-9.5465,9.5978
3,4,0,1,1,08.849,8849,-0.7300,-1.5200,-9.1600,9.3139,1.0701,-0.0785,0.3065,0.13,-172.25,170.69,-0.3336,0.6261,-9.4956,9.5221
3,4,0,1,1,08.979,8979,1.6000,-1.8500,-8.5200,8.8641,0.2574,-0.1636,0.4811,-0.31,-177.38,167.56,-0.0788,0.2998,-9.3670,9.3722
3,4,0,1,1,09.110,9110,0.4800,-0.3500,-9.9400,9.9577,-0.4276,-0.4243,0.1800,-2.75,-175.44,166.13,-0.0051,0.2142,-9.4425,9.4450
3,4,0,1,1,09.240,9240,0.3900,-0.9000,-8.9000,8.9539,0.0360,0.0251,0.0295,-4.19,-174.50,165.56,0.0469,0.0674,-9.3710,9.3714
3,4,0,1,1,09.374,9374,1.2700,-1.1000,-11.4800,11.6023,-0.6730,-0.1625,0.1625,-4.19,-172.56,165.00,0.2081,-0.0864,-9.6490,9.6516
3,4,0,1,1,09.504,9504,0.1700,0.1800,-11.3600,11.3627,0.1014,0.4025,-0.2814,-3.94,-170.00,165.44,0.2031,-0.0513,-9.8744,9.8766
3,4,0,1,1,09.638,9638,1.6700,-1.2000,-10.6400,10.8369,0.7396,0.3752,-0.1025,-0.56,-174.13,167.63,0.3964,-0.2027,-9.9753,9.9852
3,4,0,1,1,09.810,9810,-0.9400,-0.5900,-8.1800,8.2549,0.6240,0.0284,0.0273,-4.31,179.31,167.19,0.2203,-0.2537,-9.7387,9.7445
3,4,0,1,1,09.940,9940,2.5300,-0.5100,-8.8400,9.2091,-0.0644,0.6000,-0.0905,-0.81,177.88,167.75,0.5246,-0.2875,-9.6203,9.6389
3,4,0,1,1,10.070,10070,-0.4300,1.7300,-10.5900,10.7390,0.1909,0.0273,-0.0960,0.00,179.69,167.81,0.3988,-0.0216,-9.7481,9.7563
3,4,0,1,1,10.200,10200,0.2000,0.0600,-10.8300,10.8320,1.2337,-0.1734,0.0229,-0.81,173.38,167.88,0.3726,-0.0109,-9.8907,9.8977
3,4,0,1,1,10.330,10330,-1.7700,2.3400,-8.5200,9.0110,-0.0447,0.5203,-0.2182,-0.13,169.75,168.44,0.0903,0.2989,-9.7100,9.7151
3,4,0,1,1,10.461,10461,-0.8600,0.5000,-10.1200,10.1688,0.8170,-0.2345,0.1102,0.13,165.94,169.19,-0.0349,0.3254,-9.7641,9.7695
3,4,0,1,1,10.591,10591,-0.6700,5.0300,-8.0400,9.5074,0.1211,-0.5978,-0.0502,-1.44,165.44,167.50,-0.1186,0.9453,-9.5369,9.5843
3,4,0,1,1,10.721,10721,-0.1900,1.3600,-8.4600,8.5707,0.5487,0.4516,-0.3240,-2.88,160.63,168.69,-0.1280,1.0000,-9.3950,9.4489
3,4,0,1,1,10.894,10894,-0.2600,4.4100,-8.3700,9.4643,-0.0796,0.1342,-0.0862,4.44,163.38,169.19,-0.1454,1.4493,-9.2599,9.3738
3,4,0,1,1,11.024,11024,1.6200,2.5400,-10.1500,10.5877,0.8258,-0.1854,-0.2596,3.63,160.13,169.56,0.0872,1.5931,-9.3772,9.5120
3,4,0,1,1,11.154,11154,-0.8400,3.0800,-8.1600,8.7623,-0.0600,-0.0491,0.2716,2.88,157.94,170.88,-0.0350,1.7890,-9.2168,9.3889
3,4,0,1,1,11.284,11284,-0.9400,3.9600,-8.9300,9.8138,-0.4941,-0.0622,-0.4091,3.13,159.38,171.75,-0.1542,2.0751,-9.1790,9.4119
3,4,0,1,1,11.414,11414,-0.0600,3.1800,-8.5800,9.1505,0.4298,-0.1124,0.0535,2.38,159.44,172.00,-0.1418,2.2207,-9.1001,9.3682
3,4,0,1,1,11.544,11544,-0.8700,4.0000,-9.2000,10.0696,-0.4647,0.1625,0.0938,3.44,159.94,172.69,-0.2378,2.4552,-9.1132,9.4412
3,4,0,1,1,11.675,11675,1.4300,2.4100,-9.0100,9.4357,0.1854,0.3043,0.1494,4.06,159.69,169.75,-0.0180,2.4492,-9.0996,9.4235
3,4,0,1,1,11.805,11805,-0.8700,3.7400,-8.6400,9.4548,0.0654,-0.0382,0.3502,4.56,160.75,169.63,-0.1303,2.6193,-9.0391,9.4118
3,4,0,1,1,11.978,11978,-0.3900,3.4000,-7.6900,8.4171,0.3905,0.2836,0.3251,4.88,159.00,167.69,-0.1645,2.7222,-8.8613,9.2715
3,4,0,1,1,12.109,12109,0.8300,2.6600,-8.4300,8.8786,-0.5094,-0.0491,0.1844,5.13,159.63,165.63,-0.0334,2.7140,-8.8045,9.2133
3,5,0,1,1,12.239,12239,-1.1200,3.3400,-9.9700,10.5741,-0.5672,0.1473,-0.2105,4.25,164.50,166.13,-0.1766,2.7965,-8.9580,9.3861
3,5,0,1,1,12.370,12370,-0.4400,1.3900,-8.4800,8.6044,0.3087,-0.1396,0.0556,5.06,164.75,165.63,-0.2113,2.6111,-8.8951,9.2728
3,5,0,1,1,12.500,12500,-1.8700,1.5000,-9.1100,9.4201,-0.8421,-0.2007,0.0982,2.88,167.25,164.94,-0.4299,2.4647,-8.9234,9.2675
3,5,0,1,1,12.632,12632,0.2800,1.4100,-9.5800,9.6873,-1.0254,0.0884,0.0916,3.69,174.50,163.75,-0.3364,2.3257,-9.0099,9.3113
3,5,0,1,1,12.763,12763,-0.1500,0.9400,-9.7600,9.8063,-0.5661,-0.6938,0.0185,0.75,-179.75,163.25,-0.3118,2.1431,-9.1087,9.3627
3,5,0,1,1,12.897,12897,-0.0100,-0.6400,-9.2700,9.2921,-0.3916,0.1713,-0.2607,-0.81,-177.06,163.81,-0.2720,1.7764,-9.1300,9.3052
3,5,0,1,1,13.070,13070,0.6500,-0.7600,-9.9500,10.0001,-0.1189,-0.2967,0.1865,-1.81,-173.00,164.81,-0.1505,1.4422,-9.2381,9.3512
3,5,0,1,1,13.200,13200,0.5300,-0.4600,-9.9300,9.9548,0.0295,-0.5247,0.1985,-5.19,-172.94,163.94,-0.0609,1.1915,-9.3292,9.4052
3,5,0,1,1,13.330,13330,0.9000,-1.3000,-9.3700,9.5025,0.3022,0.0349,0.1200,-6.63,-174.56,162.38,0.0658,0.8632,-9.3346,9.3747
3,5,0,1,1,13.460,13460,1.6400,-0.4100,-10.6800,10.8130,-0.0284,-0.1265,-0.0524,-6.25,-174.75,161.88,0.2732,0.6954,-9.5119,9.5412
3,5,0,1,1,13.590,13590,0.9200,-0.3700,-10.0900,10.1386,0.2923,0.2487,0.0207,-6.50,-175.81,161.38,0.3584,0.5550,-9.5881,9.6108
3,5,0,1,1,13.721,13721,1.7800,-0.2000,-10.2600,10.4152,-0.0894,0.4352,-0.2454,-3.38,-176.44,162.50,0.5458,0.4555,-9.6766,9.7027
3,5,0,1,1,13.851,13851,0.6300,-0.9700,-10.6200,10.6828,0.2825,0.0065,-0.1342,-3.19,-177.63,163.06,0.5569,0.2677,-9.8009,9.8204
3,5,0,1,1,13.981,13981,0.3300,1.2300,-6.4100,6.5353,0.8432,-0.3272,-0.0175,-3.94,179.75,165.13,0.5270,0.3945,-9.3541,9.3772
3,5,0,1,1,14.154,14154,1.5000,2.3900,-11.3000,11.6470,-1.2141,0.2825,-0.3392,-2.75,-178.50,165.50,0.6552,0.6574,-9.6105,9.6552
3,5,0,1,1,14.284,14284,-0.3500,-0.3500,-11.7200,11.7304,0.7090,-0.2476,-0.1429,-2.88,-179.38,165.81,0.5227,0.5247,-9.8885,9.9162
3,5,0,1,1,14.415,14415,1.0100,0.2300,-9.3100,9.3674,0.8127,-0.3480,0.0535,-1.81,175.94,166.44,0.5869,0.4859,-9.8123,9.8418
3,5,0,1,1,14.545,14545,0.1300,0.3100,-9.4000,9.4060,0.1713,0.2934,0.0371,-1.88,171.81,167.06,0.5267,0.4627,-9.7579,9.7831
3,5,0,1,1,14.675,14675,1.5200,1.4100,-7.2300,7.5214,0.7167,0.0764,-0.0098,0.81,168.88,167.38,0.6576,0.5875,-9.4248,9.4660
3,5,0,1,1,14.805,14805,1.8300,1.6400,-10.7700,11.0468,-0.7712,-0.3403,0.0153,-1.13,168.88,167.88,0.8121,0.7262,-9.6021,9.6637
3,5,0,1,1,14.935,14935,-1.8800,1.0900,-12.8500,13.0325,-0.0415,0.1189,0.2487,-2.19,173.13,168.69,0.4574,0.7741,-10.0301,10.0703
3,5,0,1,1,15.065,15065,0.3200,1.9200,-8.3700,8.5934,0.7298,0.5803,-0.4396,3.69,170.88,170.00,0.4393,0.9251,-9.8113,9.8646
3,5,0,1,1,15.238,15238,-1.9800,2.3700,-8.4900,9.0342,0.3829,0.2694,-0.5629,4.88,164.06,170.63,0.1205,1.1155,-9.6372,9.7023
3,5,0,1,1,15.369,15369,0.2200,3.1000,-7.5400,8.1554,0.7047,0.4451,0.4112,9.00,161.44,170.88,0.1336,1.3770,-9.3608,9.4625
3,5,0,1,1,15.499,15499,-2.2000,2.3000,-8.5700,9.1419,-0.0644,-0.0153,0.0753,10.00,158.19,170.44,-0.1739,1.4987,-9.2566,9.3788
3,5,0,1,1,15.630,15630,-1.5400,4.1400,-8.0100,9.1472,-0.0207,0.2029,0.0273,10.38,159.88,169.19,-0.3539,1.8467,-9.0924,9.2848
3,5,0,1,1,15.760,15760,-0.7900,3.3800,-8.6500,9.3205,-0.0807,0.1724,0.1996,12.38,159.63,168.69,-0.4114,2.0488,-9.0341,9.2726
3,5,0,1,1,15.892,15892,-1.7000,3.1900,-9.1800,9.8660,0.0022,-0.2498,-0.1091,11.69,160.06,169.00,-0.5812,2.1992,-9.0533,9.3347
3,5,0,1,1,16.023,16023,-1.4300,3.0300,-8.7600,9.3789,-0.0240,0.0742,0.0404,10.31,159.88,168.56,-0.6931,2.3086,-9.0146,9.3313
3,5,0,1,1,16.158,16158,-1.1100,3.6200,-7.6500,8.5357,0.0044,-0.0600,0.0011,11.06,160.44,168.38,-0.7480,2.4814,-8.8348,9.2071
3,6,0,1,1,16.330,16330,-1.1800,3.0200,-9.1100,9.6698,-0.1898,-0.3283,-0.0065,9.38,161.75,168.88,-0.8049,2.5524,-8.8711,9.2660
3,6,0,1,1,16.460,16460,-1.3900,2.8700,-8.3700,8.9569,-0.1887,-0.0349,-0.0240,7.63,163.13,169.06,-0.8820,2.5943,-8.8051,9.2216
3,6,0,1,1,16.590,16590,-0.9500,2.2600,-9.2200,9.5404,-0.5018,-0.1625,-0.0295,8.25,165.56,169.38,-0.8910,2.5502,-8.8597,9.2624
3,6,0,1,1,16.721,16721,-0.5000,2.5900,-8.8500,9.2347,-0.3142,-0.3567,0.0785,5.50,168.75,169.44,-0.8395,2.5555,-8.8584,9.2578
3,6,0,1,1,16.851,16851,-1.0600,1.0300,-9.3900,9.5056,-0.5214,0.2062,0.0338,5.31,171.19,168.94,-0.8685,2.3544,-8.9285,9.2745
3,6,0,1,1,16.981,16981,-0.4000,0.9200,-9.7900,9.8413,-0.1571,-0.0556,-0.0055,6.19,174.25,169.19,-0.8068,2.1654,-9.0420,9.3326
3,6,0,1,1,17.112,17112,-0.7800,1.1100,-9.3800,9.4776,-0.2803,-0.5411,0.2443,4.44,176.00,169.25,-0.8033,2.0263,-9.0866,9.3443
3,6,0,1,1,17.242,17242,0.0900,0.3300,-9.5300,9.5361,-0.1985,-0.0589,-0.1167,1.94,177.31,168.44,-0.6855,1.8028,-9.1450,9.3462
3,6,0,1,1,17.415,17415,0.6300,0.7100,-9.8400,9.8857,-0.4691,-0.2138,0.0687,1.06,-178.63,168.88,-0.5122,1.6588,-9.2366,9.3983
3,6,0,1,1,17.546,17546,0.5000,-0.5200,-9.7400,9.7667,0.0993,-0.3054,0.0262,-0.63,-178.06,168.81,-0.3788,1.3717,-9.3029,9.4111
3,6,0,1,1,17.677,17677,0.6600,-0.6100,-10.2600,10.2993,-0.4527,-0.1505,-0.0240,-2.63,-177.00,168.63,-0.2419,1.1106,-9.4290,9.4973
3,6,0,1,1,17.807,17807,0.8400,-0.2500,-10.0400,10.0782,0.0131,-0.2673,0.1287,-4.13,-175.31,168.31,-0.0994,0.9313,-9.5095,9.5556
3,6,0,1,1,17.938,17938,1.0300,-0.5800,-9.6700,9.7420,0.0687,0.0687,-0.0033,-4.50,-175.69,167.75,0.0495,0.7321,-9.5307,9.5589
3,6,0,1,1,18.068,18068,1.2200,-0.6100,-9.5500,9.6469,0.1058,0.1211,-0.0175,-3.56,-176.25,167.63,0.2037,0.5553,-9.5332,9.5516
3,6,0,1,1,18.204,18204,0.9100,-0.4800,-9.9600,10.0130,-0.0753,-0.0578,-0.0142,-4.06,-176.56,167.75,0.2968,0.4188,-9.5895,9.6032
3,6,0,1,1,18.334,18334,0.3300,0.3700,-9.8200,9.8325,0.3807,0.3502,-0.0185,-2.94,-176.56,168.50,0.3012,0.4124,-9.6198,9.6334
3,6,0,1,1,18.507,18507,0.8000,0.1500,-9.9300,9.9633,-0.0087,-0.0273,0.1178,-1.38,-179.50,168.00,0.3669,0.3778,-9.6607,9.6751
3,6,0,1,1,18.637,18637,0.2200,0.1500,-9.8200,9.8236,0.3000,0.2782,0.0087,-1.13,179.19,167.44,0.3475,0.3478,-9.6817,9.6942
3,6,0,1,1,18.767,18767,0.7800,-0.2100,-9.4800,9.5144,0.1178,-0.0589,0.3916,0.13,177.50,166.81,0.4045,0.2743,-9.6551,9.6675
3,6,0,1,1,18.897,18897,-0.2300,0.8000,-10.2400,10.2738,-0.2814,-0.6043,0.2858,-2.94,178.38,165.94,0.3209,0.3436,-9.7322,9.7435
3,6,0,1,1,19.028,19028,-0.2500,0.7300,-9.6500,9.6808,0.2367,0.0731,0.0175,-2.63,177.06,167.13,0.2457,0.3945,-9.7214,9.7325
3,6,0,1,1,19.158,19158,0.6900,0.6500,-9.6900,9.7363,0.2913,0.4560,-0.2323,-0.81,174.63,167.75,0.3042,0.4282,-9.7172,9.7314
3,6,0,1,1,19.289,19289,-0.9200,0.5300,-10.3700,10.4242,0.0415,0.2618,-0.3294,2.31,173.50,170.44,0.1429,0.4416,-9.8033,9.8142
3,6,0,1,1,19.419,19419,-0.2200,1.8500,-8.3400,8.5456,0.3600,0.0622,0.1571,2.81,172.75,170.25,0.0951,0.6272,-9.6104,9.6313
3,6,0,1,1,19.592,19592,-1.8600,2.1900,-7.8800,8.3875,0.0556,0.1353,-0.1374,3.88,168.69,170.31,-0.1625,0.8331,-9.3824,9.4207
3,6,0,1,1,19.722,19722,0.0600,2.6700,-7.7500,8.1973,0.2236,0.5432,0.2487,6.06,168.00,168.81,-0.1332,1.0752,-9.1673,9.2311
3,6,0,1,1,19.853,19853,-0.5300,3.3100,-8.3200,8.9699,0.0033,0.2465,0.1342,7.75,166.56,167.19,-0.1855,1.3697,-9.0556,9.1605
3,6,0,1,1,19.984,19984,-0.2300,2.4800,-8.3800,8.7423,0.0611,-0.2618,0.1124,8.19,165.13,167.56,-0.1914,1.5160,-8.9666,9.0959
3,7,0,1,1,20.114,20114,-1.4100,2.7400,-9.1400,9.6455,-0.0644,-0.0644,-0.2596,6.56,165.88,168.88,-0.3520,1.6773,-8.9895,9.1514
3,7,0,1,1,20.245,20245,-1.0100,2.2800,-9.1800,9.5127,0.0153,-0.1385,-0.0622,6.50,165.75,170.19,-0.4387,1.7567,-9.0146,9.1946
3,7,0,1,1,20.375,20375,-1.2500,2.4800,-8.9100,9.3328,-0.1014,0.0720,0.0349,6.69,165.94,170.56,-0.5456,1.8520,-9.0008,9.2055
3,7,0,1,1,20.510,20510,-0.1000,1.6800,-8.7800,8.9398,0.0098,-0.2651,-0.2073,6.06,166.13,170.69,-0.4869,1.8293,-8.9717,9.1692
3,7,0,1,1,20.683,20683,-1.4600,2.1100,-9.7100,10.0433,-0.1407,-0.0371,-0.2367,3.13,168.31,172.81,-0.6151,1.8663,-9.0690,9.2794
3,7,0,1,1,20.813,20813,-0.3600,1.3600,-9.1800,9.2872,0.0284,0.4832,-0.0218,4.81,168.19,172.94,-0.5815,1.7996,-9.0836,9.2784
3,7,0,1,1,20.943,20943,-0.5800,1.8700,-9.0000,9.2105,-0.5181,0.0840,-0.1047,8.19,170.56,173.81,-0.5813,1.8089,-9.0726,9.2694
3,7,0,1,1,21.074,21074,0.2000,1.5900,-9.6000,9.7328,0.0175,-0.5607,-0.2563,5.75,172.25,174.69,-0.4783,1.7800,-9.1421,9.3261
3,7,0,1,1,21.204,21204,-2.1600,0.7000,-10.1800,10.4301,-0.5520,0.2160,-0.0884,4.56,174.50,176.19,-0.6999,1.6377,-9.2789,9.4482
3,7,0,1,1,21.335,21335,-0.3700,0.7800,-8.6000,8.6432,-0.0938,0.2520,0.0916,7.25,176.56,175.50,-0.6565,1.5247,-9.1894,9.3381
3,7,0,1,1,21.465,21465,-1.0200,0.1800,-9.4000,9.4569,-0.5629,-0.0774,0.1669,7.38,178.94,174.44,-0.7044,1.3475,-9.2172,9.3417
3,7,0,1,1,21.596,21596,0.2700,-0.4000,-9.4300,9.4423,-0.0993,-0.8988,0.2956,3.38,-179.19,172.56,-0.5760,1.1172,-9.2452,9.3303
3,7,0,1,1,21.769,21769,-0.2700,-0.2800,-10.1600,10.1674,-0.5345,0.1549,-0.2280,-0.88,-174.75,172.13,-0.5356,0.9331,-9.3658,9.4273
3,7,0,1,1,21.900,21900,0.0900,-1.0400,-10.0400,10.0941,-0.1353,0.2203,-0.1374,1.19,-172.56,173.13,-0.4532,0.6731,-9.4546,9.4894
3,7,0,1,1,22.030,22030,0.0600,-1.7600,-9.7200,9.8782,0.2083,-0.3480,0.2934,0.56,-173.25,171.88,-0.3856,0.3525,-9.4896,9.5039
3,7,0,1,1,22.163,22163,0.0400,-0.9500,-9.7800,9.8261,-0.3185,-0.0436,0.0905,-0.81,-172.19,170.25,-0.3295,0.1808,-9.5278,9.5353
3,7,0,1,1,22.294,22294,0.2900,-2.0800,-9.3100,9.5439,0.0196,-0.0164,0.0545,-0.44,-171.81,169.44,-0.2479,-0.1171,-9.4991,9.5031
3,7,0,1,1,22.428,22428,0.5300,-0.7900,-9.9000,9.9456,-0.2378,-0.1702,0.0436,-0.56,-170.13,169.13,-0.1454,-0.2058,-9.5520,9.5553
3,7,0,1,1,22.558,22558,-0.8500,-1.9300,-10.8700,11.0727,0.1211,-0.0829,0.0796,-2.06,-170.50,168.38,-0.2382,-0.4330,-9.7256,9.7382
3,7,0,1,1,22.689,22689,0.2200,-0.2000,-9.9600,9.9644,0.4614,0.5127,-0.0938,0.75,-171.81,168.63,-0.1778,-0.4023,-9.7565,9.7664
3,7,0,1,1,22.862,22862,-0.0300,-0.1800,-10.8700,10.8715,0.4920,-0.1276,-0.0709,1.94,-177.19,168.94,-0.1584,-0.3730,-9.9033,9.9115
3,7,0,1,1,22.993,22993,0.1900,1.2500,-8.7600,8.8508,1.3188,-0.0316,-0.0120,0.69,177.44,169.94,-0.1124,-0.1591,-9.7526,9.7545
3,7,0,1,1,23.123,23123,-0.2400,-0.4400,-8.6200,8.6346,0.3305,0.0142,-0.0055,0.50,168.94,170.31,-0.1293,-0.1961,-9.6034,9.6062
3,7,0,1,1,23.254,23254,-0.7000,4.0900,-7.9300,8.9500,0.2062,-0.0360,0.1636,0.31,171.13,170.44,-0.2045,0.3687,-9.3828,9.3923
3,7,0,1,1,23.384,23384,1.0400,0.6700,-10.2700,10.3442,0.3218,0.5978,-0.1287,3.44,166.44,170.25,-0.0405,0.4084,-9.4998,9.5086
3,7,0,1,1,23.515,23515,0.2400,2.8900,-8.8300,9.2940,0.6643,-0.2203,-0.1462,4.75,165.75,171.00,-0.0035,0.7354,-9.4115,9.4402
3,7,0,1,1,23.646,23646,-0.1700,2.8100,-9.2000,9.6211,0.2073,-0.0229,-0.0709,3.31,162.75,172.50,-0.0255,1.0088,-9.3836,9.4377
3,7,0,1,1,23.779,23779,-1.5800,3.7500,-9.1600,10.0232,-0.1058,-0.3818,0.0862,2.88,161.81,174.31,-0.2303,1.3700,-9.3542,9.4568
3,7,0,1,1,23.952,23952,-0.8900,4.1900,-7.8500,8.9426,1.3406,0.7134,0.0469,4.56,156.50,173.06,-0.3172,1.7416,-9.1559,9.3255
3,7,0,1,1,24.083,24083,0.4700,3.5800,-7.8200,8.6133,0.0840,-0.0720,0.1407,6.88,149.38,171.63,-0.2135,1.9839,-8.9799,9.1989
3,7,0,1,1,24.213,24213,-0.1900,4.4100,-6.5700,7.9151,0.0229,-0.0360,0.1167,6.88,150.25,171.81,-0.2104,2.3036,-8.6623,8.9659
3,8,0,1,1,24.345,24345,-0.6600,4.1500,-8.7700,9.7248,-1.0636,-0.2062,-0.0884,5.69,154.06,172.81,-0.2696,2.5469,-8.6765,9.0466
3,8,0,1,1,24.475,24475,0.5500,1.9500,-8.7600,8.9913,-0.6229,-0.6970,-0.3447,3.75,160.00,174.63,-0.1616,2.4682,-8.6875,9.0328
3,8,0,1,1,24.605,24605,-1.0500,5.7200,-12.8300,14.0865,-0.7309,-0.2694,0.1025,0.13,167.00,176.69,-0.2787,2.8967,-9.2334,9.6811
3,8,0,1,1,24.735,24735,-1.3600,5.1300,-10.8800,12.1054,2.0551,1.1748,0.3578,3.19,160.50,174.94,-0.4212,3.1910,-9.4504,9.9835
3,8,0,1,1,24.866,24866,0.7700,1.6400,-4.0900,4.4733,1.1563,0.4854,0.4560,9.38,145.63,171.94,-0.2642,2.9866,-8.7440,9.2438
3,8,0,1,1,25.039,25039,-0.8400,6.4200,-8.7800,10.9092,-0.7941,0.0240,0.1789,10.19,148.19,171.38,-0.3401,3.4391,-8.7488,9.4066
3,8,0,1,1,25.170,25170,-1.3700,5.2000,-7.7500,9.4329,0.3632,-0.0774,-0.0687,9.81,148.63,171.25,-0.4758,3.6711,-8.6171,9.3786
3,8,0,1,1,25.301,25301,-1.2600,3.9300,-6.8800,8.0229,-0.2313,-0.1505,-0.1014,9.88,147.75,172.00,-0.5791,3.7052,-8.3882,9.1884
3,8,0,1,1,25.433,25433,-1.4400,5.2400,-7.5200,9.2780,-0.4996,-0.2018,0.2738,8.63,152.31,171.31,-0.6926,3.9075,-8.2738,9.1763
3,8,0,1,1,25.563,25563,-0.7900,3.8600,-8.0100,8.9266,-0.1734,0.2563,-0.3851,8.88,153.25,170.75,-0.7054,3.9012,-8.2391,9.1433
3,8,0,1,1,25.698,25698,-0.7600,4.3000,-8.0700,9.1756,-0.3763,-0.2334,0.0938,9.63,156.38,172.00,-0.7126,3.9538,-8.2168,9.1463
3,8,0,1,1,25.829,25829,-1.1900,2.1100,-8.9400,9.2624,-0.6240,-0.3360,-0.1854,7.38,158.75,173.38,-0.7755,3.7108,-8.3121,9.1358
3,8,0,1,1,25.959,25959,-0.3900,2.7600,-8.2600,8.7176,-0.7199,-0.1047,0.1036,6.38,164.63,172.88,-0.7247,3.5855,-8.3052,9.0751
3,8,0,1,1,26.132,26132,-0.1500,1.7100,-10.0300,10.1758,-1.0963,-0.4952,0.2520,2.50,172.88,171.63,-0.6490,3.3384,-8.5325,9.1853
3,8,0,1,1,26.263,26263,0.0100,1.5700,-10.5800,10.6959,-0.3665,0.4145,-0.0196,3.31,178.69,171.56,-0.5621,3.1053,-8.8023,9.3509
3,8,0,1,1,26.393,26393,0.3300,0.5100,-9.8300,9.8488,-0.0076,-0.1756,0.0338,4.00,178.63,170.94,-0.4446,2.7633,-8.9377,9.3657
3,8,0,1,1,26.524,26524,-0.1100,-1.0200,-8.5000,8.5617,0.1145,-0.4821,0.0436,0.75,177.75,170.69,-0.4005,2.2648,-8.8801,9.1731
3,8,0,1,1,26.655,26655,0.8000,-1.3400,-10.6100,10.7242,-1.0145,-0.0371,0.1374,-0.69,-179.19,170.81,-0.2423,1.7898,-9.1080,9.2854
3,8,0,1,1,26.785,26785,1.3300,0.5600,-10.9600,11.0546,-0.1702,-0.7210,0.2825,-3.06,-173.38,170.00,-0.0351,1.6277,-9.3521,9.4927
3,8,0,1,1,26.916,26916,0.7500,1.3200,-12.6000,12.6911,0.0589,0.2182,-0.2803,-5.75,-172.94,168.81,0.0683,1.5872,-9.7801,9.9082
3,9,0,1,1,27.047,27047,1.6200,-2.0100,-6.7000,7.1801,2.0235,0.5541,0.1113,-2.06,177.56,169.38,0.2728,1.1132,-9.3742,9.4440
3,9,0,1,1,27.221,27221,0.7000,1.4400,-7.9000,8.0606,-0.5498,-0.4167,0.0327,-3.50,178.38,169.88,0.3291,1.1562,-9.1799,9.2583
3,9,0,1,1,27.353,27353,0.9600,-0.3200,-10.8800,10.9270,-0.7058,-0.0535,-0.0567,-4.63,-178.31,170.38,0.4122,0.9617,-9.4039,9.4620
3,9,0,1,1,27.484,27484,0.9300,0.1600,-9.9700,10.0146,0.4843,0.0153,0.1898,-4.75,-176.56,170.06,0.4805,0.8561,-9.4785,9.5292
3,9,0,1,1,27.614,27614,0.9300,-0.4300,-10.2000,10.2513,-0.0720,0.3327,-0.1451,-3.75,-178.44,170.00,0.5397,0.6866,-9.5736,9.6134
3,9,0,1,1,27.745,27745,1.3400,0.5300,-10.5500,10.6480,0.6447,0.0011,-0.1047,-2.38,-179.94,170.75,0.6452,0.6660,-9.7023,9.7465
3,9,0,1,1,27.875,27875,0.5100,0.8900,-10.6500,10.6993,0.1614,0.2269,-0.1440,-1.81,175.56,171.88,0.6274,0.6955,-9.8272,9.8717
3,9,0,1,1,28.006,28006,1.0200,1.3300,-9.6700,9.8142,1.2119,-0.0971,-0.2520,-0.38,170.19,173.44,0.6791,0.7791,-9.8065,9.8608
3,9,0,1,1,28.136,28136,-0.1800,1.1800,-7.2100,7.3081,0.9098,0.0818,-0.1767,-0.56,162.19,174.56,0.5659,0.8319,-9.4643,9.5176
3,9,0,1,1,28.309,28309,0.3300,4.6100,-9.5700,10.6276,0.1876,-0.0229,0.3469,0.63,160.38,173.50,0.5348,1.3298,-9.4782,9.5860
3,9,0,1,1,28.439,28439,-1.6800,3.4300,-8.3700,9.2002,0.5520,0.6480,-0.1407,2.81,156.94,173.63,0.2429,1.6065,-9.3322,9.4726
3,9,0,1,1,28.569,28569,0.5100,1.8100,-8.1400,8.3544,0.2858,-0.0415,0.2323,7.00,151.38,171.56,0.2781,1.6333,-9.1751,9.3235
3,9,0,1,1,28.699,28699,-1.1400,6.4200,-8.3000,10.5549,-0.3436,-0.3589,-0.0120,3.50,154.38,169.63,0.0913,2.2641,-9.0598,9.3388
3,9,0,1,1,28.829,28829,-0.0700,2.5400,-8.3600,8.7376,0.2847,0.2051,-0.3403,4.44,151.50,170.38,0.0700,2.3005,-8.9676,9.2582
3,9,0,1,1,28.959,28959,-0.6500,5.9600,-7.9900,9.9892,-0.5945,0.2214,0.0153,5.88,155.31,170.63,-0.0249,2.7827,-8.8387,9.2665
3,9,0,1,1,29.089,29089,-0.9300,3.6200,-8.7900,9.5516,0.5618,0.0676,-0.1124,7.44,153.63,170.31,-0.1441,2.8930,-8.8323,9.2952
3,9,0,1,1,29.219,29219,-0.9300,4.4900,-7.2000,8.5361,-0.0425,-0.2018,-0.1800,7.44,152.75,171.56,-0.2477,3.1035,-8.6172,9.1624
3,9,0,1,1,29.392,29392,-1.2000,4.7900,-8.4800,9.8130,-0.2945,0.1593,-0.1036,7.38,155.06,171.88,-0.3732,3.3257,-8.5991,9.2274
3,9,0,1,1,29.522,29522,-0.4800,2.9900,-8.3500,8.8822,-0.0927,-0.1604,-0.2945,8.13,155.44,172.19,-0.3873,3.2815,-8.5663,9.1815
3,9,0,1,1,29.652,29652,-0.5900,2.8300,-7.4800,8.0192,-0.5814,-0.6698,0.2182,4.44,158.50,172.81,-0.4140,3.2220,-8.4232,9.0279
3,9,0,1,1,29.782,29782,0.5200,1.9300,-10.1800,10.3744,-0.7112,-0.4527,-0.0894,1.56,163.19,174.00,-0.2909,3.0517,-8.6547,9.1816
3,9,0,1,1,29.912,29912,-0.8300,2.7400,-10.9900,11.3568,-0.6818,0.2247,0.0284,-0.88,168.63,174.19,-0.3619,3.0107,-8.9624,9.4615
3,9,0,1,1,30.042,30042,1.0800,1.5700,-8.0600,8.2822,0.4254,0.4178,0.0502,3.13,168.88,173.75,-0.1719,2.8208,-8.8435,9.2841
3,9,0,1,1,30.173,30173,0.7200,1.3900,-12.0000,12.1017,-1.1661,-1.0777,0.2280,0.88,171.25,174.69,-0.0544,2.6323,-9.2594,9.6265
3,10,0,1,1,30.303,30303,-0.3800,2.3900,-7.7200,8.0904,0.6207,-0.0480,-0.0338,-3.19,173.13,174.38,-0.0973,2.6003,-9.0566,9.4230
3,10,0,1,1,30.476,30476,-0.2800,1.0600,-7.9900,8.0649,-0.2825,0.7843,0.1985,0.00,170.50,173.50,-0.1214,2.3974,-8.9160,9.2335
3,10,0,1,1,30.606,30606,1.0100,0.4900,-8.5600,8.6333,-0.2018,0.3360,-0.2160,5.00,171.94,172.75,0.0277,2.1460,-8.8691,9.1251
3,10,0,1,1,30.737,30737,0.2900,0.5500,-12.0100,12.0261,-1.0221,-0.7145,-0.2073,3.06,176.94,173.31,0.0623,1.9357,-9.2830,9.4829
3,10,0,1,1,30.868,30868,-0.7600,1.0600,-9.3600,9.4504,0.2171,-0.0774,-0.0469,-0.94,-179.50,173.13,-0.0461,1.8203,-9.2932,9.4699
3,10,0,1,1,30.998,30998,1.2700,-1.3300,-11.2300,11.3796,-0.3305,-0.1571,-0.0600,-0.69,179.06,173.50,0.1273,1.4052,-9.5484,9.6521
3,10,0,1,1,31.129,31129,-0.0300,0.7600,-9.2600,9.2912,0.0469,-0.4102,0.1909,-3.94,-177.75,172.75,0.1066,1.3202,-9.5104,9.6022
3,10,0,1,1,31.259,31259,1.4000,-1.0400,-9.4500,9.6096,-0.0098,0.3338,0.0600,-3.31,-178.88,171.75,0.2770,1.0092,-9.5024,9.5599
3,10,0,1,1,31.393,31393,1.7400,-0.4100,-10.3200,10.4737,-0.3731,-0.2880,0.1374,-3.00,-177.06,171.44,0.4698,0.8221,-9.6102,9.6567
3,10,0,1,1,31.567,31567,0.6400,-0.0400,-9.8500,9.8709,0.3643,0.1484,-0.0120,-4.88,-176.00,171.56,0.4923,0.7085,-9.6418,9.6803
3,10,0,1,1,31.697,31697,1.3200,-1.1400,-9.4400,9.5998,0.2673,0.1582,0.1145,-3.63,-178.50,171.31,0.6013,0.4649,-9.6152,9.6452
3,10,0,1,1,31.828,31828,0.7700,0.1100,-11.4800,11.5063,-0.1876,0.4080,0.0349,-2.88,-177.69,170.88,0.6236,0.4182,-9.8609,9.8895
3,10,0,1,1,31.958,31958,1.5400,0.4500,-9.9000,10.0292,1.1214,-0.1767,0.0382,-1.25,179.38,171.13,0.7443,0.4224,-9.8661,9.9031
3,10,0,1,1,32.088,32088,-0.2400,0.3800,-10.8900,10.8993,0.4494,0.1647,-0.1516,-1.94,173.94,172.00,0.6146,0.4168,-10.0010,10.0285
3,10,0,1,1,32.219,32219,0.5100,1.9800,-9.3500,9.5709,1.1050,-0.0589,-0.0556,-0.44,168.13,173.56,0.6008,0.6228,-9.9152,9.9529
3,10,0,1,1,32.350,32350,-0.2900,2.8400,-8.5200,8.9855,0.5552,0.4472,-0.1124,0.75,161.94,174.06,0.4834,0.9149,-9.7314,9.7862
3,10,0,1,1,32.480,32480,0.5000,3.6200,-8.3700,9.1330,0.5269,-0.1484,0.0196,2.50,157.00,173.56,0.4856,1.2714,-9.5520,9.6484
3,10,0,1,1,32.653,32653,-1.2400,2.0500,-8.2300,8.5716,-0.1734,0.8716,-0.5116,4.75,155.25,175.81,0.2582,1.3740,-9.3778,9.4814
3,10,0,1,1,32.784,32784,-1.4200,5.7300,-8.6600,10.4807,-0.1494,0.6338,0.3643,10.63,158.88,174.31,0.0371,1.9480,-9.2832,9.4854
3,10,0,1,1,32.914,32914,-1.9100,4.8700,-7.7700,9.3669,0.9828,0.3251,0.0393,10.94,153.81,171.31,-0.2195,2.3331,-9.0838,9.3812
3,10,0,1,1,33.045,33045,-0.1800,4.0600,-5.7500,7.0412,0.7429,-0.2411,0.2476,10.94,146.13,170.31,-0.2143,2.5606,-8.6445,9.0183
3,10,0,1,1,33.176,33176,-2.1500,6.5300,-7.3200,10.0422,-0.4058,0.0098,-0.1593,11.06,145.94,172.31,-0.4694,3.0837,-8.4699,9.0260
3,10,0,1,1,33.309,33309,-1.7400,4.3200,-8.1100,9.3521,0.1244,-0.2498,-0.2880,10.13,145.00,172.69,-0.6368,3.2466,-8.4225,9.0490
3,10,0,1,1,33.440,33440,-1.7800,5.7800,-7.7300,9.8148,-0.1756,-0.0229,-0.0022,9.56,146.75,173.13,-0.7874,3.5804,-8.3313,9.1022
3,10,0,1,1,33.573,33573,-1.4100,5.4400,-8.1700,9.9162,-0.0774,0.1505,0.0404,10.13,147.63,172.63,-0.8695,3.8255,-8.3100,9.1895
3,10,0,1,1,33.746,33746,-1.5500,5.0800,-7.6200,9.2883,-0.1549,0.0185,0.0545,9.56,147.56,171.69,-0.9592,3.9908,-8.2191,9.1869
3,10,0,1,1,33.876,33876,-1.4200,4.9000,-6.8800,8.5651,-0.0633,0.0491,-0.0338,9.69,148.25,171.31,-1.0199,4.1106,-8.0426,9.0896
3,10,0,1,1,34.006,34006,-0.1800,2.5500,-9.1900,9.5389,-0.7123,-0.4309,-0.4581,9.69,150.00,171.75,-0.9092,3.9050,-8.1938,9.1222
3,10,0,1,1,34.136,34136,-0.5000,5.4500,-9.1300,10.6447,-0.6360,-0.3905,0.0153,7.63,157.25,172.38,-0.8553,4.1086,-8.3172,9.3160
3,10,0,1,1,34.266,34266,-0.2900,3.1500,-8.2900,8.8730,0.0753,-0.3305,0.0960,6.06,157.69,173.44,-0.7808,3.9822,-8.3136,9.2512
3,10,0,1,1,34.396,34396,-0.1400,1.6100,-7.5000,7.6721,-0.1920,-0.2465,-0.0502,4.56,158.19,174.25,-0.6964,3.6696,-8.2064,9.0164
3,10,0,1,1,34.527,34527,-0.7300,2.1900,-10.3600,10.6141,-1.5370,-0.2825,0.2236,2.38,165.06,174.19,-0.7008,3.4747,-8.4902,9.2004
3,10,0,1,1,34.657,34657,0.4000,3.0400,-10.0400,10.4978,-0.1298,0.1385,0.0567,2.25,171.56,173.06,-0.5557,3.4174,-8.6944,9.3584
3,10,0,1,1,34.830,34830,0.3000,0.9600,-8.9900,9.0461,-0.2836,0.1145,-0.0207,2.81,172.38,173.75,-0.4430,3.0936,-8.7334,9.2757
3,10,0,1,1,34.960,34960,-0.9700,0.5000,-10.4000,10.4571,-0.4898,0.0840,-0.1494,2.75,175.38,174.44,-0.5124,2.7518,-8.9530,9.3803
3,10,0,1,1,35.091,35091,0.5100,0.5300,-8.5000,8.5318,-0.0840,-0.1113,0.2171,4.13,177.63,173.88,-0.3777,2.4590,-8.8933,9.2347
3,10,0,1,1,35.221,35221,-0.0300,-0.4200,-10.0900,10.0988,-0.5803,-0.5367,0.0785,0.75,179.38,172.50,-0.3319,2.0796,-9.0510,9.2928
3,10,0,1,1,35.352,35352,-0.6400,-0.5400,-9.1900,9.2281,-0.2869,0.0447,0.2214,-1.06,-176.81,171.19,-0.3725,1.7344,-9.0693,9.2412
3,10,0,1,1,35.483,35483,1.3200,-0.4400,-10.3100,10.4035,-0.3742,0.0545,0.0316,0.81,-173.94,170.06,-0.1495,1.4479,-9.2328,9.3468
3,10,0,1,1,35.614,35614,0.4900,-0.7300,-9.8600,9.8991,0.1745,-0.6850,0.2345,-1.94,-173.63,169.00,-0.0652,1.1609,-9.3154,9.3877
3,10,0,1,1,35.745,35745,0.8800,-0.9900,-9.3700,9.4632,0.0044,-0.3512,0.1876,-5.63,-174.25,167.25,0.0594,0.8775,-9.3226,9.3640
3,10,0,1,1,35.920,35920,1.6400,-1.2900,-9.6900,9.9121,-0.1582,-0.1091,0.1178,-6.88,-173.38,166.13,0.2677,0.5919,-9.3710,9.3935
3,10,0,1,1,36.051,36051,1.3000,-0.0400,-9.9200,10.0049,-0.0076,0.0971,0.1789,-6.94,-171.63,165.75,0.4037,0.5086,-9.4434,9.4657
3,10,0,1,1,36.182,36182,1.4500,-1.3900,-9.8700,10.0723,0.3382,0.1200,0.0087,-5.81,-173.75,165.50,0.5416,0.2584,-9.4996,9.5185
3,10,0,1,1,36.312,36312,2.1300,-0.7300,-9.7600,10.0164,0.3011,0.0284,-0.1047,-5.06,-175.31,166.25,0.7509,0.1282,-9.5339,9.5643
3,10,0,1,1,36.442,36442,-0.1500,-0.8800,-10.9500,10.9863,-0.1996,-0.2062,-0.4036,-6.88,-175.81,168.00,0.6322,-0.0047,-9.7205,9.7411
3,11,0,1,1,36.573,36573,1.5200,0.5100,-8.5900,8.7383,0.7952,0.1244,0.1222,-6.25,-177.00,169.94,0.7492,0.0631,-9.5715,9.6010
3,11,0,1,1,36.703,36703,0.5700,-1.7100,-8.5100,8.6988,0.8770,0.5051,-0.0818,-5.31,175.50,169.06,0.7256,-0.1705,-9.4317,9.4611
3,11,0,1,1,36.834,36834,2.0200,0.2400,-9.7800,9.9893,-0.3382,-0.0600,-0.0087,-2.81,175.31,168.75,0.8961,-0.1164,-9.4776,9.5205
3,11,0,1,1,37.006,37006,0.2900,1.6900,-9.4400,9.5945,0.6174,0.0055,-0.0993,-3.56,176.56,170.88,0.8163,0.1216,-9.4726,9.5085
3,11,0,1,1,37.136,37136,-0.1400,0.9200,-10.0800,10.1229,0.1800,0.1374,-0.2749,-2.56,172.63,172.19,0.6902,0.2268,-9.5527,9.5802
3,11,0,1,1,37.266,37266,0.4900,1.3100,-9.5000,9.6024,0.3894,0.0862,-0.0229,-1.25,170.63,172.81,0.6639,0.3696,-9.5457,9.5759
3,11,0,1,1,37.396,37396,0.4800,2.1500,-9.8400,10.0836,0.4080,0.4614,-0.3436,1.13,168.38,173.38,0.6396,0.6042,-9.5845,9.6248
3,11,0,1,1,37.526,37526,-0.4900,2.6600,-6.0400,6.6180,0.9054,0.6261,0.0284,3.75,164.13,173.50,0.4908,0.8751,-9.1174,9.1725
3,11,0,1,1,37.656,37656,0.0500,1.7000,-7.0600,7.2620,-0.5651,0.1134,0.0349,6.75,160.88,173.00,0.4327,0.9838,-8.8463,8.9113
3,11,0,1,1,37.787,37787,-0.9100,3.7000,-10.1400,10.8323,-0.5923,-0.5029,0.0404,4.25,166.69,172.69,0.2558,1.3417,-9.0168,9.1196
3,11,0,1,1,37.917,37917,-0.0900,2.6200,-9.3700,9.7298,0.3556,0.0513,-0.2182,3.44,166.31,173.94,0.2102,1.5102,-9.0633,9.1907
3,11,0,1,1,38.090,38090,-0.9400,2.3100,-9.4500,9.7735,-0.0295,-0.0207,0.0044,3.56,165.75,174.31,0.0586,1.6156,-9.1143,9.2565
3,11,0,1,1,38.220,38220,0.2100,2.2600,-8.9800,9.2624,0.0316,0.4734,0.1233,5.13,165.56,173.06,0.0786,1.7005,-9.0966,9.2545
3,11,0,1,1,38.350,38350,-1.0000,1.8500,-8.5500,8.8048,-0.1200,-0.1200,0.1658,5.75,165.88,172.63,-0.0636,1.7202,-9.0246,9.1873
3,11,0,1,1,38.480,38480,-0.1200,1.6100,-8.4600,8.6127,-0.1920,0.3011,0.2640,6.25,166.88,171.13,-0.0710,1.7057,-8.9502,9.1115
3,11,0,1,1,38.610,38610,-0.5800,1.8100,-9.1600,9.3551,-0.2629,-0.1276,-0.0851,7.19,168.81,170.69,-0.1381,1.7194,-8.9778,9.1420
3,11,0,1,1,38.740,38740,-0.7700,1.2800,-8.8700,8.9949,-0.4898,-0.2476,0.0218,4.94,171.50,170.38,-0.2213,1.6615,-8.9636,9.1190
3,11,0,1,1,38.872,38872,-0.3500,1.3100,-10.3100,10.3988,-0.7494,0.1669,-0.2291,4.94,176.44,170.81,-0.2383,1.6152,-9.1410,9.2857
3,11,0,1,1,39.002,39002,0.3200,0.0200,-9.8900,9.8952,0.0371,0.1494,-0.1222,5.63,178.06,170.63,-0.1647,1.4050,-9.2397,9.3474
3,11,0,1,1,39.178,39178,-0.1800,0.1500,-8.8900,8.8931,-0.1014,-0.2214,0.1309,3.25,178.56,169.38,-0.1667,1.2396,-9.1936,9.2783
3,11,0,1,1,39.309,39309,-0.4500,0.0800,-9.7400,9.7507,-0.5345,-0.0654,-0.0622,2.44,-178.94,168.69,-0.2041,1.0868,-9.2656,9.3314
3,11,0,1,1,39.442,39442,0.7000,-0.3500,-9.5300,9.5621,-0.0654,-0.0415,-0.1189,2.13,-177.13,168.56,-0.0849,0.8975,-9.3005,9.3441
3,11,0,1,1,39.573,39573,-0.1500,-0.7700,-10.2100,10.2401,-0.1233,-0.4461,0.1124,-0.56,-176.50,168.50,-0.0935,0.6777,-9.4203,9.4451
3,11,0,1,1,39.703,39703,0.2900,-0.8900,-9.5500,9.5958,-0.0382,-0.0665,0.2989,-1.81,-176.06,167.13,-0.0430,0.4712,-9.4374,9.4493
3,11,0,1,1,39.834,39834,1.1300,-1.2800,-9.7900,9.9378,-0.2629,-0.1494,0.2258,-2.56,-174.44,165.19,0.1116,0.2404,-9.4839,9.4876
3,11,0,1,1,39.964,39964,0.9900,-0.6400,-10.0000,10.0692,-0.3578,-0.2356,0.0371,-3.94,-171.81,163.81,0.2273,0.1244,-9.5519,9.5554
3,11,0,1,1,40.095,40095,1.2600,-0.9200,-9.8500,9.9728,0.0480,-0.0295,-0.0687,-5.00,-171.44,163.94,0.3634,-0.0132,-9.5912,9.5981
3,11,0,1,1,40.267,40267,1.3100,-1.3300,-9.3500,9.5345,0.1691,-0.0360,-0.0491,-5.75,-173.13,164.31,0.4882,-0.1868,-9.5594,9.5737
3,11,0,1,1,40.397,40397,0.9300,-0.9200,-9.4000,9.4906,0.0764,-0.1658,0.0131,-6.81,-173.94,164.38,0.5464,-0.2834,-9.5384,9.5582
3,11,0,1,1,40.527,40527,1.2500,-1.4800,-10.1400,10.3234,-0.0491,0.3742,-0.0774,-5.88,-174.38,164.75,0.6391,-0.4411,-9.6177,9.6490
3,11,0,1,1,40.657,40657,1.1900,0.0200,-10.2000,10.2692,0.2793,-0.0065,-0.0295,-4.81,-174.63,165.88,0.7117,-0.3803,-9.6944,9.7279
3,11,0,1,1,40.787,40787,0.1500,-0.8300,-9.3300,9.3680,0.5912,0.4320,-0.4178,-2.88,-178.44,166.88,0.6377,-0.4396,-9.6464,9.6774
3,11,0,1,1,40.917,40917,0.9200,-0.8900,-10.2900,10.3693,0.1331,-0.2018,-0.1353,-2.13,178.69,167.69,0.6749,-0.4989,-9.7312,9.7673
3,11,0,1,1,41.048,41048,0.3400,1.3600,-10.1800,10.2761,0.1887,0.2487,-0.2236,-2.50,178.19,168.50,0.6308,-0.2540,-9.7903,9.8139
3,12,0,1,1,41.178,41178,0.9900,0.4700,-9.3600,9.4239,0.4407,0.1604,-0.2149,-0.44,174.50,169.44,0.6781,-0.1586,-9.7336,9.7585
3,12,0,1,1,41.351,41351,0.9100,0.9000,-9.2700,9.3579,0.2989,0.0425,-0.2465,1.31,171.25,170.94,0.7087,-0.0191,-9.6725,9.6985
3,12,0,1,1,41.481,41481,-1.1700,1.1700,-10.4900,10.6197,-0.2793,0.3469,-0.4898,1.75,171.50,173.06,0.4611,0.1376,-9.7803,9.7921
3,12,0,1,1,41.612,41612,-1.0900,2.1900,-10.0800,10.3726,0.2400,0.1854,-0.1876,5.75,171.88,176.06,0.2567,0.4081,-9.8198,9.8316
3,12,0,1,1,41.742,41742,-1.0000,1.9600,-10.1200,10.3564,0.8399,0.2858,0.1647,5.88,167.13,173.75,0.0911,0.6126,-9.8593,9.8788
3,12,0,1,1,41.873,41873,-0.9100,4.1200,-6.6500,7.8756,0.7538,0.7178,0.2683,8.81,160.44,171.69,-0.0408,1.0748,-9.4364,9.4975
3,12,0,1,1,42.004,42004,-0.1800,0.8200,-7.0200,7.0700,0.5214,-0.0764,0.1756,9.94,151.38,169.50,-0.0592,1.0412,-9.1180,9.1774
3,12,0,1,1,42.137,42137,-1.1900,4.7400,-9.4900,10.6744,-1.1486,-0.7385,-0.0676,8.88,156.31,170.19,-0.2082,1.5286,-9.1670,9.2959
3,12,0,1,1,42.268,42268,-0.8100,3.8400,-9.6600,10.4268,0.1702,-0.2083,-0.2138,5.25,159.44,170.56,-0.2875,1.8332,-9.2320,9.4166
3,12,0,1,1,42.441,42441,-0.9600,3.8400,-8.7900,9.6401,-0.0873,0.0785,-0.0567,4.88,158.69,171.81,-0.3761,2.0976,-9.1737,9.4180
3,12,0,1,1,42.572,42572,-0.6400,3.0100,-8.4300,8.9741,-0.0338,0.0087,0.1069,5.44,158.38,171.50,-0.4109,2.2179,-9.0757,9.3518
3,12,0,1,1,42.702,42702,-0.6900,3.2300,-9.1000,9.6809,-0.2193,-0.0829,0.0654,5.00,159.75,170.81,-0.4477,2.3512,-9.0789,9.3891
3,12,0,1,1,42.832,42832,-0.4900,3.1800,-8.5900,9.1728,-0.0622,0.0993,-0.0251,4.88,160.69,170.44,-0.4532,2.4604,-9.0145,9.3552
3,12,0,1,1,42.963,42963,-0.9500,2.2300,-8.8200,9.1470,-0.3927,0.0764,0.0884,5.50,162.06,170.13,-0.5187,2.4301,-8.9889,9.3260
3,12,0,1,1,43.093,43093,0.2500,2.4200,-7.9100,8.2757,-0.2302,0.0011,0.0840,5.75,164.56,168.38,-0.4174,2.4287,-8.8467,9.1835
3,12,0,1,1,43.223,43223,-1.0400,0.7600,-10.2900,10.3703,-0.8879,-0.1604,-0.0796,4.44,167.75,168.88,-0.4994,2.2089,-9.0369,9.3163
3,12,0,1,1,43.369,43369,-0.6100,2.1500,-8.8900,9.1666,-0.1244,-0.1200,0.0491,3.75,173.63,169.19,-0.5140,2.2011,-9.0175,9.2965
3,12,0,1,1,43.544,43544,-1.0000,0.6400,-9.7500,9.8220,-0.6872,0.0513,-0.0131,2.63,176.38,169.75,-0.5781,1.9954,-9.1141,9.3478
3,12,0,1,1,43.674,43674,0.3200,0.0700,-9.2200,9.2258,0.0087,0.1571,0.0098,4.44,178.81,170.06,-0.4597,1.7417,-9.1280,9.3041
3,12,0,1,1,43.805,43805,0.2600,-1.2500,-9.5100,9.5953,-0.2967,-0.3676,0.0469,2.69,179.13,169.50,-0.3649,1.3474,-9.1784,9.2839
3,12,0,1,1,43.936,43936,-0.2700,0.4800,-9.9400,9.9552,-0.3905,0.1298,-0.0415,2.13,-176.25,169.44,-0.3524,1.2331,-9.2787,9.3669
3,12,0,1,1,44.066,44066,0.3500,-1.5400,-10.0900,10.2128,-0.1244,-0.1200,0.1505,2.38,-176.13,168.81,-0.2598,0.8677,-9.3856,9.4292
3,12,0,1,1,44.196,44196,0.0400,-0.9100,-9.3000,9.3445,-0.2836,-0.3109,0.0196,0.00,-173.75,168.00,-0.2203,0.6334,-9.3743,9.3983
3,12,0,1,1,44.327,44327,0.1700,-2.1700,-9.6400,9.8827,-0.5072,0.2051,0.0425,-0.19,-171.25,167.75,-0.1689,0.2640,-9.4093,9.4146
3,12,0,1,1,44.457,44457,1.0100,-1.5400,-9.5900,9.7652,-0.3534,-0.2018,-0.1429,0.06,-167.69,168.75,-0.0135,0.0263,-9.4332,9.4332
3,12,0,1,1,44.630,44630,-0.0400,-1.9800,-10.8100,10.9899,-0.1756,-0.0556,0.0120,-3.69,-166.38,168.69,-0.0170,-0.2381,-9.6146,9.6175
3,12,0,1,1,44.761,44761,0.8600,-1.6000,-9.7100,9.8784,0.7254,-0.0055,-0.0033,-2.88,-168.63,169.19,0.0986,-0.4175,-9.6272,9.6367
3,12,0,1,1,44.891,44891,0.2600,-1.8500,-10.0800,10.2517,0.3043,0.1047,0.1429,-3.13,-172.56,168.56,0.1198,-0.6063,-9.6868,9.7065
3,12,0,1,1,45.022,45022,0.9300,-0.9400,-9.3200,9.4133,0.5476,0.1647,-0.0338,-1.38,-175.81,168.81,0.2266,-0.6503,-9.6385,9.6631
3,12,0,1,1,45.152,45152,1.5200,-1.0100,-10.1200,10.2832,0.1593,-0.1494,-0.4952,-1.06,-178.19,169.75,0.3970,-0.6977,-9.7019,9.7351
3,13,0,1,1,45.283,45283,1.0100,0.1500,-9.6800,9.7337,0.4854,0.0818,-0.3763,-3.94,179.75,170.00,0.4778,-0.5860,-9.6991,9.7285
3,13,0,1,1,45.414,45414,0.7500,-0.4400,-8.9500,8.9921,0.8312,0.1887,-0.1276,-4.38,175.38,170.69,0.5137,-0.5667,-9.6003,9.6308
3,13,0,1,1,45.547,45547,1.0500,-1.2100,-8.5600,8.7086,-0.4843,0.4320,-0.0611,-1.31,175.13,171.63,0.5843,-0.6515,-9.4633,9.5036
3,13,0,1,1,45.720,45720,-0.2700,2.1800,-10.7000,10.9232,-1.0156,-0.2269,0.2007,-3.00,-175.25,172.06,0.4718,-0.2784,-9.6262,9.6418
3,13,0,1,1,45.851,45851,-0.1700,-0.4300,-10.9300,10.9398,0.7407,0.1647,0.0251,-2.63,-176.75,172.75,0.3872,-0.2984,-9.7980,9.8102
3,13,0,1,1,45.981,45981,1.5800,-0.3300,-10.7100,10.8309,0.3360,-0.0600,0.0109,-1.75,179.44,173.38,0.5444,-0.3025,-9.9182,9.9377
3,13,0,1,1,46.112,46112,-0.3200,0.3900,-10.3300,10.3423,0.5520,-0.2760,0.1167,-3.69,175.19,173.19,0.4305,-0.2113,-9.9725,9.9840
3,13,0,1,1,46.243,46243,0.4700,1.5400,-9.4800,9.6158,1.3155,0.3403,0.2651,-1.81,168.25,173.00,0.4357,0.0195,-9.9076,9.9172
3,13,0,1,1,46.373,46373,1.6600,1.7300,-8.3800,8.7162,0.4451,-0.0742,-0.2880,0.31,161.31,174.44,0.5970,0.2449,-9.7063,9.7277
3,13,0,1,1,46.503,46503,-1.3000,1.2900,-9.4400,9.6160,-0.0709,-0.2018,-0.5291,-0.25,160.38,178.69,0.3470,0.3826,-9.6712,9.6850
3,13,0,1,1,46.634,46634,0.0000,3.4300,-7.2000,7.9753,0.0142,0.3534,0.3785,1.13,162.38,178.63,0.3013,0.7842,-9.3456,9.3832
3,13,0,1,1,46.807,46807,-0.3900,3.9400,-7.9100,8.8456,0.1658,0.5661,0.1276,5.31,161.63,176.88,0.2102,1.2000,-9.1564,9.2371
3,13,0,1,1,46.938,46938,0.0900,1.3100,-9.5300,9.6200,-0.1887,-0.4232,0.3316,4.13,159.63,173.75,0.1944,1.2145,-9.2056,9.2874
3,13,0,1,1,47.069,47069,-0.9500,4.2400,-9.3100,10.2741,-0.1887,-0.1614,-0.2825,2.06,163.50,174.19,0.0436,1.6132,-9.2194,9.3595
3,13,0,1,1,47.201,47201,-0.4400,2.2900,-8.8400,9.1424,0.1527,-0.0393,-0.1178,1.44,162.19,174.81,-0.0202,1.7024,-9.1694,9.3261
3,13,0,1,1,47.332,47332,-1.5000,3.3500,-7.4400,8.2961,-0.0065,0.3491,0.4320,2.44,162.88,174.25,-0.2152,1.9195,-8.9415,9.1477
3,13,0,1,1,47.466,47466,-0.2000,0.8200,-8.4300,8.4721,-0.2509,0.0742,-0.1102,3.25,162.06,171.56,-0.2132,1.7746,-8.8741,9.0523
3,13,0,1,1,47.597,47597,0.5300,1.1700,-9.1700,9.2595,-1.1879,0.0927,0.2629,2.19,168.94,168.13,-0.1152,1.6949,-8.9131,9.0735
3,13,0,1,1,47.727,47727,0.0600,0.5500,-10.7200,10.7343,-0.7679,-0.1309,0.1800,1.81,176.06,166.69,-0.0921,1.5441,-9.1512,9.2810
3,13,0,1,1,47.900,47900,0.3500,-0.4500,-10.8700,10.8849,-0.5498,-0.8803,0.2247,-1.25,-178.81,166.81,-0.0339,1.2813,-9.3777,9.4649
3,13,0,1,1,48.031,48031,0.5100,-1.9300,-14.3500,14.4882,-0.3043,-0.2367,-0.1822,-5.25,-176.19,167.81,0.0378,0.8581,-10.0329,10.0696
3,14,0,1,1,48.161,48161,-0.2700,2.0400,-9.3500,9.5738,0.9872,1.4497,-0.2520,-1.44,-177.00,168.38,-0.0028,1.0139,-9.9429,9.9945
3,14,0,1,1,48.292,48292,1.8200,-2.2700,-6.3300,6.9666,1.0996,0.2422,0.3622,5.94,172.50,168.63,0.2374,0.5811,-9.4668,9.4876
3,14,0,1,1,48.423,48423,-0.8100,-0.9000,-9.5100,9.5868,-1.4344,-0.7614,0.0425,1.44,175.06,166.88,0.0994,0.3860,-9.4725,9.4809
3,14,0,1,1,48.553,48553,-0.2600,0.9700,-10.0000,10.0503,-0.6632,-0.1222,-0.0153,-0.63,-175.88,167.19,0.0520,0.4629,-9.5420,9.5534
3,14,0,1,1,48.684,48684,0.6400,-0.9700,-9.3400,9.4120,0.1745,-0.4265,0.4069,-2.25,-174.81,165.56,0.1295,0.2741,-9.5154,9.5202
3,14,0,1,1,48.814,48814,0.0900,-2.6500,-9.4900,9.8535,-0.5814,-0.2662,0.3163,-5.19,-174.13,162.38,0.1243,-0.1112,-9.5121,9.5135
3,14,0,1,1,48.987,48987,0.9500,-0.3500,-11.5100,11.5544,-0.4058,0.2367,0.1418,-3.50,-165.81,161.06,0.2331,-0.1427,-9.7753,9.7792
3,14,0,1,1,49.121,49121,0.9000,-1.6100,-9.7200,9.8935,0.8661,-0.1953,-0.1080,-3.31,-168.50,160.63,0.3210,-0.3360,-9.7680,9.7791
3,14,0,1,1,49.272,49272,1.2400,-2.0600,-9.4000,9.7026,0.3523,-0.0796,-0.3022,-4.50,-174.56,161.25,0.4421,-0.5632,-9.7195,9.7459
3,14,0,1,1,49.403,49403,1.4300,0.1700,-10.4000,10.4992,0.0829,-0.0098,-0.4451,-4.94,-174.81,164.94,0.5723,-0.4666,-9.8092,9.8370
3,14,0,1,1,49.533,49533,0.9800,-0.9700,-9.4900,9.5897,0.5694,-0.5149,-0.3000,-7.00,-178.69,168.69,0.6260,-0.5329,-9.7671,9.8017
3,14,0,1,1,49.664,49664,0.9500,-1.0000,-10.1600,10.2532,-0.1680,0.4756,-0.6065,-6.88,179.63,171.19,0.6687,-0.5945,-9.8189,9.8596
3,14,0,1,1,49.794,49794,2.9300,-0.1200,-9.8200,10.2485,0.3567,-0.0436,0.1047,-4.13,178.88,174.38,0.9667,-0.5320,-9.8191,9.8809
3,14,0,1,1,49.925,49925,2.0200,0.1900,-11.3600,11.5398,-0.1920,-0.0065,-0.3687,-6.50,178.31,174.38,1.1055,-0.4368,-10.0221,10.0924
3,14,0,1,1,50.097,50097,1.3300,0.0400,-8.8600,8.9594,2.4467,1.0210,-0.0436,-2.44,168.50,172.13,1.1351,-0.3740,-9.8690,9.9411
3,14,0,1,1,50.227,50227,1.0900,0.7300,-8.0400,8.1463,-0.6741,-0.1898,0.0273,2.19,163.06,171.56,1.1291,-0.2285,-9.6280,9.6966
3,14,0,1,1,50.357,50357,0.3400,3.1500,-10.3900,10.8623,-0.4145,-0.5345,-0.0011,-1.00,167.88,171.38,1.0251,0.2167,-9.7284,9.7846
3,14,0,1,1,50.487,50487,0.3800,3.3200,-9.2500,9.8351,0.7145,0.1265,-0.2596,-1.38,168.06,172.81,0.9401,0.6256,-9.6653,9.7311
3,14,0,1,1,50.617,50617,0.0600,1.3900,-10.2000,10.2944,0.3272,0.4887,-0.2051,0.31,163.31,173.25,0.8241,0.7264,-9.7358,9.7976
3,14,0,1,1,50.747,50747,-1.2100,3.9300,-7.6100,8.6499,-0.3414,0.3578,0.3251,4.63,163.94,174.31,0.5561,1.1485,-9.4557,9.5414
3,14,0,1,1,50.878,50878,1.1600,2.5100,-7.2000,7.7127,0.6250,-0.3643,-0.2803,4.44,162.13,173.31,0.6357,1.3279,-9.1584,9.2760
3,14,0,1,1,51.008,51008,-1.2100,3.1400,-9.1900,9.7867,-0.5858,-0.2236,-0.0622,1.56,161.31,175.94,0.3925,1.5667,-9.1626,9.3039
3,14,0,1,1,51.181,51181,-0.1600,3.3700,-9.2200,9.8179,0.5956,0.3534,-0.2269,4.38,161.31,175.00,0.3197,1.8043,-9.1702,9.3514
3,14,0,1,1,51.311,51311,-1.0800,2.9200,-8.2100,8.7805,0.4298,-0.0654,0.4516,4.00,157.38,174.63,0.1352,1.9514,-9.0436,9.2527
3,14,0,1,1,51.442,51442,-0.6100,2.4100,-8.6800,9.0290,-0.3698,0.2716,0.0404,5.75,156.31,173.19,0.0370,2.0118,-8.9957,9.2180
3,14,0,1,1,51.572,51572,-0.1700,4.0500,-8.7300,9.6252,-0.0796,-0.0654,0.1244,5.69,159.06,171.44,0.0097,2.2804,-8.9607,9.2463
3,14,0,1,1,51.703,51703,-0.9600,3.0600,-8.3900,8.9821,-0.0905,-0.1167,-0.0055,4.88,159.25,171.50,-0.1180,2.3831,-8.8855,9.2003
3,14,0,1,1,51.834,51834,0.0000,2.0800,-8.8100,9.0522,-0.2945,-0.0491,0.1102,4.06,160.63,170.38,-0.1025,2.3432,-8.8755,9.1802
3,15,0,1,1,51.964,51964,-0.5900,2.7800,-9.9600,10.3575,-0.8039,-0.0109,-0.1233,3.63,164.81,170.25,-0.1667,2.4007,-9.0185,9.3340
3,15,0,1,1,52.095,52095,0.2700,2.4500,-9.3400,9.6598,0.1942,-0.3392,-0.1167,3.38,167.13,170.81,-0.1092,2.4072,-9.0608,9.3758
3,15,0,1,1,52.271,52271,-0.4200,1.3700,-8.5500,8.6692,-0.5345,0.1680,0.0076,1.94,167.25,171.06,-0.1501,2.2705,-8.9935,9.2769
3,15,0,1,1,52.402,52402,0.2100,2.2500,-10.1300,10.3790,-0.3403,0.0731,-0.2302,3.38,172.56,171.56,-0.1027,2.2678,-9.1433,9.4209
3,15,0,1,1,52.533,52533,-0.8100,0.1900,-9.6600,9.6958,-0.1265,-0.3643,0.0884,1.94,172.69,171.75,-0.1959,1.9940,-9.2114,9.4268
3,15,0,1,1,52.663,52663,0.0300,1.0000,-9.2900,9.3437,-0.4778,0.2214,-0.2236,2.06,175.81,172.19,-0.1661,1.8630,-9.2217,9.4095
3,15,0,1,1,52.793,52793,0.1500,-0.3100,-9.3800,9.3863,-0.2116,-0.2945,0.5400,1.13,177.44,170.44,-0.1245,1.5767,-9.2426,9.3769
3,15,0,1,1,52.924,52924,0.0000,0.5100,-9.8000,9.8133,-0.6447,-0.0491,0.1462,-0.94,-178.63,168.69,-0.1081,1.4361,-9.3160,9.4267
3,15,0,1,1,53.054,53054,0.1200,-1.2500,-9.9000,9.9793,-0.1473,0.0644,0.2083,-0.63,-176.63,168.13,-0.0780,1.0822,-9.3930,9.4554
3,15,0,1,1,53.185,53185,0.0400,-0.3500,-9.5100,9.5165,-0.3698,0.0742,-0.1244,-0.13,-174.38,168.25,-0.0625,0.8934,-9.4084,9.4509
3,15,0,1,1,53.358,53358,0.4800,-1.6900,-9.0600,9.2288,0.1058,-0.4407,0.2094,-1.94,-174.06,167.69,0.0090,0.5530,-9.3625,9.3788
3,15,0,1,1,53.489,53489,0.6300,-1.6500,-9.6400,9.8005,-0.5552,-0.0567,-0.0011,-3.69,-171.94,166.94,0.0909,0.2627,-9.3991,9.4032
3,15,0,1,1,53.619,53619,0.9200,-1.2900,-9.7200,9.8483,-0.3043,0.1298,-0.0076,-2.88,-168.44,167.06,0.2001,0.0581,-9.4414,9.4437
3,15,0,1,1,53.750,53750,1.0000,-1.9200,-9.8200,10.0558,0.1658,-0.3447,0.0993,-3.75,-168.50,166.50,0.3055,-0.2026,-9.4913,9.4983
3,15,0,1,1,53.880,53880,1.0700,-1.3500,-9.6900,9.8419,0.1189,-0.1756,-0.0251,-6.13,-169.31,165.63,0.4063,-0.3538,-9.5174,9.5327
3,15,0,1,1,54.013,54013,2.2300,-1.8900,-9.8300,10.2554,0.1320,0.0076,-0.0840,-6.19,-170.88,166.25,0.6466,-0.5562,-9.5586,9.5966
3,15,0,1,1,54.144,54144,1.4200,-1.0400,-10.2600,10.4099,-0.0447,-0.3338,-0.2814,-7.75,-171.06,167.63,0.7485,-0.6200,-9.6511,9.6999
3,15,0,1,1,54.278,54278,0.1000,-1.3900,-10.3700,10.4632,0.5552,0.6436,-0.3076,-6.94,-173.19,168.19,0.6630,-0.7214,-9.7458,9.7949
3,15,0,1,1,54.450,54450,0.6500,0.3300,-10.2500,10.2759,0.5334,-0.3087,0.0469,-4.56,-177.81,168.50,0.6613,-0.5829,-9.8122,9.8518
3,15,0,1,1,54.580,54580,0.0900,0.7800,-8.9200,8.9545,0.8061,-0.0382,-0.2563,-5.38,176.63,168.94,0.5860,-0.4033,-9.6947,9.7207
3,15,0,1,1,54.710,54710,2.8400,0.5000,-10.8000,11.1784,0.4549,0.2683,-0.4887,-4.44,170.88,170.06,0.8831,-0.2843,-9.8403,9.8839
3,15,0,1,1,54.840,54840,0.9600,2.0200,-5.8400,6.2536,1.4290,0.9316,-0.0153,-0.31,165.81,172.19,0.8932,0.0194,-9.3132,9.3559
3,15,0,1,1,54.971,54971,1.0500,1.4000,-8.3400,8.5216,-0.7549,-0.4342,0.1844,0.06,162.00,171.63,0.9139,0.2013,-9.1849,9.2325
3,16,0,1,1,55.101,55101,-0.5500,2.8100,-11.0200,11.3859,-0.2411,-0.0829,-0.1091,-1.44,167.75,172.94,0.7210,0.5451,-9.4268,9.4700
3,16,0,1,1,55.231,55231,1.0000,1.8900,-9.4600,9.6986,-0.3982,0.2051,-0.3992,-1.19,169.00,174.25,0.7577,0.7223,-9.4311,9.4891
3,16,0,1,1,55.362,55362,-0.8200,4.1900,-9.3400,10.2696,0.3589,-0.1538,0.3665,-2.75,169.44,174.31,0.5498,1.1793,-9.4191,9.5086
3,16,0,1,1,55.535,55535,1.4800,3.2200,-6.8400,7.7035,1.3592,0.5705,0.0753,1.06,159.81,173.94,0.6724,1.4482,-9.0793,9.2186
3,16,0,1,1,55.666,55666,-1.0700,2.8100,-6.4300,7.0983,0.5312,0.4461,-0.4603,3.75,152.94,174.56,0.4428,1.6276,-8.7302,8.8916
3,16,0,1,1,55.797,55797,0.7700,3.6800,-7.6700,8.5419,-0.6883,-0.3349,-0.0349,2.88,153.69,174.69,0.4859,1.8981,-8.5905,8.8111
3,16,0,1,1,55.928,55928,-0.6100,4.3500,-9.5300,10.4936,-0.2411,-0.1811,0.1734,2.19,158.56,176.19,0.3415,2.2212,-8.7143,8.9994
3,16,0,1,1,56.059,56059,-0.3500,2.8300,-8.5000,8.9656,-0.2029,0.1124,-0.0818,2.13,159.19,175.63,0.2504,2.3014,-8.6860,8.9892
3,16,0,1,1,56.194,56194,0.3200,2.6300,-9.0100,9.3915,-0.4167,-0.0142,0.1025,2.13,161.88,175.31,0.2596,2.3447,-8.7287,9.0419
3,16,0,1,1,56.325,56325,0.0200,2.5200,-9.1400,9.4811,-0.2236,-0.4232,-0.1604,1.31,164.63,176.44,0.2280,2.3678,-8.7829,9.0993
3,16,0,1,1,56.455,56455,0.3600,2.3600,-9.0700,9.3789,-0.4996,-0.2476,0.0229,-1.81,167.25,176.13,0.2454,2.3668,-8.8207,9.1360
3,16,0,1,1,56.628,56628,0.4300,1.5300,-8.4400,8.5883,-0.0044,0.1331,0.3774,-0.88,168.19,177.19,0.2697,2.2565,-8.7706,9.0602
3,16,0,1,1,56.759,56759,0.2900,0.4500,-8.5700,8.5867,-0.0807,0.2487,0.4396,0.06,168.44,175.06,0.2724,2.0185,-8.7441,8.9782
3,16,0,1,1,56.889,56889,1.0700,1.2600,-11.4300,11.5489,-1.3701,0.2313,0.1571,2.44,174.69,174.38,0.3775,1.9185,-9.0981,9.3058
3,16,0,1,1,57.020,57020,-0.4600,1.2900,-9.7400,9.8358,0.2640,-0.4363,-0.0960,1.38,178.75,174.00,0.2671,1.8357,-9.1827,9.3682
3,16,0,1,1,57.151,57151,0.0400,0.0800,-8.9500,8.9504,-0.0524,-0.2629,0.1309,-0.94,176.88,173.00,0.2372,1.6043,-9.1520,9.2946
3,16,0,1,1,57.282,57282,0.2700,-0.1600,-9.2300,9.2353,-0.3207,-0.0076,0.1909,-1.94,178.81,171.44,0.2415,1.3718,-9.1623,9.2676
3,16,0,1,1,57.413,57413,0.9900,-0.3800,-10.2500,10.3047,-0.7199,-0.0993,0.1985,-2.13,-177.69,169.75,0.3402,1.1410,-9.3056,9.3815
3,16,0,1,1,57.548,57548,0.8100,0.0000,-8.7000,8.7376,0.0164,-0.1691,0.1309,-3.19,-174.88,168.44,0.4021,0.9906,-9.2258,9.2875
3,16,0,1,1,57.721,57721,1.0800,-2.2000,-9.4200,9.7336,-0.0622,-0.2214,-0.0469,-5.00,-176.19,167.81,0.4914,0.5702,-9.2514,9.2820
3,16,0,1,1,57.851,57851,1.5300,-1.7900,-11.2600,11.5036,-0.8203,-0.1124,0.2083,-5.88,-172.81,167.56,0.6283,0.2592,-9.5161,9.5403
3,16,0,1,1,57.981,57981,1.0500,-1.2600,-8.6400,8.7943,0.0207,-0.0240,0.0960,-6.19,-169.63,167.50,0.6838,0.0590,-9.4006,9.4257
3,16,0,1,1,58.111,58111,1.4800,-2.6700,-8.6700,9.1917,-0.2978,0.0109,0.1113,-6.13,-168.75,166.00,0.7887,-0.3006,-9.3044,9.3426
3,16,0,1,1,58.241,58241,1.6000,-2.6000,-10.0000,10.4556,-0.4941,-0.1713,0.0960,-6.31,-165.31,164.81,0.8957,-0.6036,-9.3960,9.4579
3,16,0,1,1,58.371,58371,0.8900,-1.0600,-10.2700,10.3628,-0.1963,-0.0971,0.1593,-7.31,-162.13,164.44,0.8949,-0.6638,-9.5112,9.5762
3,16,0,1,1,58.502,58502,1.2600,-2.3900,-9.2900,9.6749,0.6283,0.2138,0.0676,-6.38,-164.06,163.31,0.9430,-0.8912,-9.4820,9.5704
3,16,0,1,1,58.632,58632,2.2500,-2.4900,-9.8300,10.3871,0.3818,-0.0415,-0.0480,-5.50,-167.88,162.81,1.1152,-1.1019,-9.5279,9.6560
3,16,0,1,1,58.805,58805,0.5300,-0.6800,-9.6500,9.6884,0.4865,0.1462,-0.3349,-6.50,-170.31,164.06,1.0381,-1.0463,-9.5440,9.6571
3,16,0,1,1,58.935,58935,0.3500,-0.8700,-9.6300,9.6756,0.2673,0.2956,0.2716,-5.44,-174.44,165.06,0.9474,-1.0231,-9.5553,9.6565
3,16,0,1,1,59.065,59065,2.0300,-2.5200,-8.5800,9.1699,0.6480,0.0098,0.1374,-1.81,-179.13,165.63,1.0901,-1.2203,-9.4268,9.5678
3,16,0,1,1,59.195,59195,0.1000,1.7800,-10.9100,11.0547,-0.4963,0.1636,-0.3163,-2.88,-177.13,166.31,0.9596,-0.8250,-9.6222,9.7051
3,16,0,1,1,59.325,59325,1.1700,-0.6000,-9.2600,9.3529,0.9141,-0.0055,0.2149,-2.44,178.63,167.38,0.9874,-0.7953,-9.5745,9.6581
3,16,0,1,1,59.455,59455,0.6400,0.6300,-9.0400,9.0845,0.0545,0.3556,-0.1036,-2.38,175.50,167.63,0.9416,-0.6075,-9.5041,9.5699
3,16,0,1,1,59.585,59585,-0.0200,-0.4000,-10.2900,10.2978,-0.1124,0.2760,0.1822,-0.25,174.38,167.88,0.8149,-0.5802,-9.6076,9.6596
3,16,0,1,1,59.715,59715,-0.5900,2.1700,-9.2000,9.4708,0.2225,0.9207,0.1625,4.88,175.63,168.38,0.6297,-0.2178,-9.5539,9.5771
3,16,0,1,1,59.888,59888,-0.8800,1.6600,-9.7500,9.9294,0.2247,-0.7701,0.1189,7.31,171.56,169.19,0.4308,0.0297,-9.5798,9.5895
3,16,0,1,1,60.018,60018,-1.1800,2.4300,-9.7400,10.1077,0.1680,0.0000,-0.3218,3.06,170.19,171.13,0.2185,0.3460,-9.6009,9.6096
3,16,0,1,1,60.148,60148,-0.1400,1.8700,-7.2600,7.4983,0.6000,-0.2367,0.0556,4.25,166.81,173.69,0.1713,0.5468,-9.2924,9.3101
3,16,0,1,1,60.278,60278,-1.8100,3.1000,-9.1700,9.8476,-0.1374,-0.0316,-0.4429,2.31,166.31,176.38,-0.0898,0.8833,-9.2763,9.3187
3,16,0,1,1,60.408,60408,1.3000,1.2100,-9.3100,9.4779,0.6752,0.9218,0.1756,5.69,163.25,176.06,0.0933,0.9263,-9.2807,9.3273
3,16,0,1,1,60.538,60538,-1.4100,1.9300,-7.4300,7.8050,-0.1484,-0.0873,0.0894,7.88,161.63,174.63,-0.1048,1.0586,-9.0368,9.0992
3,17,0,1,1,60.669,60669,-0.7200,3.0700,-9.0600,9.5931,-0.5661,-0.0436,0.2531,6.69,164.94,172.25,-0.1858,1.3236,-9.0399,9.1382
3,17,0,1,1,60.799,60799,-0.3300,2.0700,-9.2400,9.4748,-0.2476,0.1658,0.1691,7.13,166.88,170.81,-0.2048,1.4220,-9.0663,9.1794
3,17,0,1,1,60.972,60972,-0.8300,2.3800,-9.4400,9.7707,0.0098,-0.3392,-0.0436,4.31,169.75,169.81,-0.2872,1.5482,-9.1155,9.2505
3,17,0,1,1,61.102,61102,-0.0400,1.7300,-8.7800,8.9489,-0.0458,-0.0425,0.0316,3.50,170.00,170.69,-0.2546,1.5722,-9.0713,9.2101
3,17,0,1,1,61.233,61233,0.0400,-0.2500,-9.8300,9.8333,-0.4723,-0.1876,-0.1069,2.69,170.56,170.81,-0.2158,1.3321,-9.1713,9.2700
3,17,0,1,1,61.364,61364,-1.3700,2.8300,-8.8800,9.4202,-0.1800,-0.0840,-0.0229,2.13,174.88,172.88,-0.3679,1.5295,-9.1329,9.2674
3,17,0,1,1,61.494,61494,-1.4000,0.3700,-10.0700,10.1736,0.4767,0.6349,0.4407,3.63,172.44,169.88,-0.5039,1.3767,-9.2564,9.3718
3,17,0,1,1,61.625,61625,1.1300,0.7500,-9.3500,9.4479,-0.1385,0.3982,-0.4156,8.13,171.31,168.19,-0.2886,1.2941,-9.2687,9.3631
3,17,0,1,1,61.755,61755,-0.3800,1.8500,-7.5000,7.7341,-0.1876,-0.3327,0.3207,6.13,173.06,167.56,-0.3006,1.3673,-9.0356,9.1435
3,17,0,1,1,61.888,61888,-0.5400,0.2800,-11.3500,11.3663,-0.4996,0.0829,-0.5051,4.69,174.75,168.69,-0.3322,1.2241,-9.3406,9.4263
3,17,0,1,1,62.063,62063,-0.3800,2.4400,-8.6400,8.9860,1.2730,-0.6905,0.1418,5.25,174.13,172.00,-0.3385,1.3843,-9.2483,9.3574
3,17,0,1,1,62.193,62193,-1.4700,-0.5100,-8.4000,8.5429,0.0076,0.2029,-0.1854,2.88,167.75,172.69,-0.4876,1.1347,-9.1365,9.2196
3,17,0,1,1,62.323,62323,-0.3400,2.0000,-9.3900,9.6066,-0.4952,0.0033,0.3065,5.13,171.63,172.38,-0.4681,1.2487,-9.1699,9.2664
3,17,0,1,1,62.454,62454,-0.5200,0.4300,-9.6000,9.6237,-0.1058,-0.0851,-0.3272,5.06,172.25,172.13,-0.4750,1.1408,-9.2266,9.3090
3,17,0,1,1,62.584,62584,-1.4300,1.1300,-9.5500,9.7224,-0.1134,0.1374,-0.7254,4.44,174.31,174.75,-0.6008,1.1394,-9.2692,9.3583
3,17,0,1,1,62.715,62715,-0.5300,0.7800,-8.9900,9.0393,-0.1560,0.5323,0.0578,6.44,175.00,174.75,-0.5915,1.0920,-9.2324,9.3156
3,17,0,1,1,62.845,62845,-0.2300,0.6200,-7.6400,7.6686,-0.3698,0.2738,-0.2640,11.19,177.31,175.81,-0.5439,1.0298,-9.0226,9.0974
3,17,0,1,1,62.975,62975,1.1900,-1.8400,-12.2200,12.4149,-0.2127,-1.1028,-0.2858,7.56,178.25,174.81,-0.3154,0.6517,-9.4439,9.4716
3,17,0,1,1,63.148,63148,-1.7400,3.5500,-10.0800,10.8276,0.4658,0.6490,-0.0251,1.50,-175.81,175.19,-0.5031,1.0336,-9.5277,9.5968
3,18,0,1,1,63.278,63278,0.8500,-3.0200,-8.2300,8.8077,1.2097,0.2313,0.4778,6.19,173.44,174.19,-0.3248,0.4994,-9.3567,9.3757
3,18,0,1,1,63.408,63408,-0.6100,-0.4400,-8.0800,8.1149,-1.1061,-0.2934,0.2869,4.38,174.75,171.69,-0.3624,0.3756,-9.1885,9.2033
3,18,0,1,1,63.538,63538,-0.0300,0.5500,-8.9100,8.9270,-0.7799,-0.0971,0.1985,3.50,-177.69,169.50,-0.3186,0.3986,-9.1518,9.1660
3,18,0,1,1,63.668,63668,1.4700,-0.0900,-11.8900,11.9809,0.1102,-0.5094,0.0960,1.31,-175.19,167.75,-0.0829,0.3342,-9.5126,9.5188
3,18,0,1,1,63.798,63798,-0.1900,0.5400,-11.3900,11.4044,-0.0327,-0.5454,-0.1004,-3.50,-175.13,167.56,-0.0970,0.3613,-9.7600,9.7672
3,18,0,1,1,63.929,63929,0.5100,-1.5900,-9.3000,9.4487,0.8443,0.2509,0.1134,-3.25,-179.50,168.69,-0.0170,0.1042,-9.6994,9.7000
3,18,0,1,1,64.059,64059,0.8600,-0.2200,-9.6100,9.6509,-0.2378,0.1353,0.1767,-2.19,178.88,167.00,0.0985,0.0615,-9.6876,9.6883
3,18,0,1,1,64.232,64232,0.0600,-0.0800,-9.4500,9.4505,0.0469,0.0055,0.1985,-1.75,-179.63,167.94,0.0935,0.0428,-9.6563,9.6568
3,18,0,1,1,64.362,64362,0.5200,0.0300,-9.5500,9.5642,-0.1113,-0.4003,-0.0371,-3.63,179.94,168.00,0.1497,0.0411,-9.6423,9.6435
3,18,0,1,1,64.492,64492,0.2900,0.1700,-9.9400,9.9457,0.1451,0.3872,-0.0393,-3.31,-179.81,169.13,0.1682,0.0581,-9.6815,9.6832
3,18,0,1,1,64.622,64622,1.8200,-0.6400,-9.8800,10.0666,0.5367,0.2291,0.0785,-0.50,177.56,168.31,0.3858,-0.0339,-9.7077,9.7154
3,18,0,1,1,64.752,64752,0.4900,1.1800,-9.9600,10.0416,0.0960,-0.3120,-0.0415,-1.94,176.31,168.13,0.3996,0.1261,-9.7409,9.7499
3,18,0,1,1,64.882,64882,-0.1600,1.4600,-10.0000,10.1073,0.2051,-0.0829,-0.1385,-2.63,174.81,171.00,0.3258,0.3019,-9.7751,9.7852
3,18,0,1,1,65.012,65012,0.5500,1.4500,-9.3600,9.4876,0.9141,0.3120,-0.2454,0.06,170.63,173.50,0.3554,0.4532,-9.7204,9.7374
3,18,0,1,1,65.142,65142,-0.7600,0.8000,-9.3700,9.4347,0.1156,0.1265,-0.0404,1.63,166.25,174.25,0.2084,0.4989,-9.6742,9.6893
3,18,0,1,1,65.315,65315,-0.7200,1.8900,-10.3000,10.4967,0.2389,0.2007,0.1985,3.56,165.13,173.44,0.0861,0.6822,-9.7567,9.7809
3,18,0,1,1,65.445,65445,0.5700,2.6200,-8.5500,8.9606,0.3611,-0.0196,-0.1789,5.25,162.31,173.19,0.1498,0.9375,-9.5977,9.6445
3,18,0,1,1,65.575,65575,-1.6900,1.9000,-9.0700,9.4197,0.3316,-0.4243,-0.3011,2.63,160.63,174.06,-0.0926,1.0644,-9.5281,9.5878
3,18,0,1,1,65.705,65705,0.4800,2.9400,-8.7500,9.2432,-0.1200,0.2858,-0.1178,2.75,159.88,174.50,-0.0172,1.3115,-9.4256,9.5164
3,18,0,1,1,65.835,65835,0.5200,3.3300,-7.0600,7.8232,0.6556,0.2836,0.2083,4.19,158.13,173.19,0.0536,1.5775,-9.1139,9.2495
3,18,0,1,1,65.965,65965,-0.6900,3.3200,-8.8600,9.4867,-0.3131,-0.0447,0.0305,5.06,157.06,173.88,-0.0444,1.8071,-9.0804,9.2586
3,18,0,1,1,66.096,66096,0.0500,4.0700,-8.7300,9.6323,0.1091,-0.0153,0.1778,4.06,158.25,172.25,-0.0319,2.1053,-9.0342,9.2764
3,18,0,1,1,66.226,66226,-0.4700,2.9400,-8.5500,9.0536,-0.1254,-0.0884,-0.0469,4.06,157.81,172.56,-0.0897,2.2153,-8.9704,9.2404
3,18,0,1,1,66.399,66399,-0.3800,3.3100,-8.6300,9.2508,-0.2509,0.0207,0.3033,3.00,160.19,171.75,-0.1279,2.3596,-8.9256,9.2331
3,18,0,1,1,66.530,66530,0.1800,2.5100,-9.0600,9.4030,-0.2727,0.2454,-0.1353,3.94,161.81,171.19,-0.0873,2.3794,-8.9433,9.2548
3,18,0,1,1,66.660,66660,-0.4000,2.6800,-8.8700,9.2747,-0.1200,-0.3076,-0.0229,4.25,164.13,172.81,-0.1285,2.4190,-8.9336,9.2562
3,18,0,1,1,66.791,66791,-0.2000,1.4400,-8.4500,8.5742,-0.4112,-0.0338,-0.0731,2.63,165.19,173.19,-0.1380,2.2900,-8.8699,9.1618
3,18,0,1,1,66.921,66921,-0.0100,1.6100,-10.2100,10.3362,-0.7178,0.1505,-0.1636,3.75,170.06,174.06,-0.1211,2.2004,-9.0465,9.3110
3,18,0,1,1,67.052,67052,-0.5500,1.0400,-9.3800,9.4535,-0.2673,-0.2182,-0.2476,3.75,173.44,175.19,-0.1776,2.0475,-9.0904,9.3199
3,18,0,1,1,67.183,67183,-0.2700,-0.1300,-9.9100,9.9145,-0.2836,-0.1473,-0.2116,2.25,175.44,175.75,-0.1898,1.7605,-9.1984,9.3673
3,18,0,1,1,67.316,67316,-0.1800,0.7800,-9.6200,9.6532,-0.4680,-0.1320,0.1374,1.69,179.19,177.06,-0.1885,1.6313,-9.2540,9.3986
3,18,0,1,1,67.490,67490,-0.0400,-1.1000,-9.1800,9.2458,-0.3392,0.1385,0.3425,0.94,-179.94,174.56,-0.1689,1.2714,-9.2442,9.3328
3,18,0,1,1,67.620,67620,0.5800,0.1400,-9.9400,9.9579,-0.3949,0.1625,0.3022,2.63,-175.69,171.94,-0.0702,1.1223,-9.3359,9.4034
3,18,0,1,1,67.751,67751,0.1500,-1.1900,-9.9900,10.0617,0.1004,-0.3294,0.1669,1.44,-175.69,170.38,-0.0412,0.8176,-9.4221,9.4576
3,18,0,1,1,67.881,67881,0.4100,-0.5200,-9.7800,9.8024,-0.0076,-0.1407,0.0687,-0.19,-175.50,169.94,0.0182,0.6414,-9.4693,9.4910
3,18,0,1,1,68.012,68012,0.6100,-0.9600,-9.1400,9.2105,0.1080,0.0371,-0.1134,-0.69,-176.50,170.19,0.0962,0.4303,-9.4259,9.4362
3,18,0,1,1,68.142,68142,0.4700,-1.0200,-8.4500,8.5243,-0.0982,-0.1440,0.2171,-1.31,-176.13,170.25,0.1455,0.2392,-9.2973,9.3015
3,18,0,1,1,68.273,68273,0.8400,-1.7900,-9.8300,10.0269,-0.4091,0.0044,0.1636,-1.94,-174.06,168.63,0.2370,-0.0282,-9.3675,9.3705
3,18,0,1,1,68.403,68403,1.1300,-0.9800,-10.5000,10.6060,-0.4211,-0.1396,0.0709,-2.19,-170.63,168.19,0.3547,-0.1536,-9.5167,9.5246
3,18,0,1,1,68.576,68576,0.6100,-1.2800,-9.6200,9.7239,0.3283,-0.0731,0.0469,-3.13,-170.88,167.75,0.3883,-0.3020,-9.5303,9.5430
3,18,0,1,1,68.709,68709,0.2500,-1.7600,-9.8900,10.0485,0.1800,-0.0415,0.0349,-3.25,-173.31,167.75,0.3701,-0.4942,-9.5777,9.5976
3,18,0,1,1,68.840,68840,0.7700,-0.2000,-10.0300,10.0615,0.2083,0.2389,-0.0305,-2.56,-174.00,167.56,0.4228,-0.4554,-9.6373,9.6573
3,18,0,1,1,68.974,68974,0.7200,-1.0700,-10.3100,10.3904,0.6087,0.1004,-0.0436,-1.44,-177.38,167.75,0.4620,-0.5364,-9.7260,9.7517
3,18,0,1,1,69.105,69105,0.9100,0.3900,-9.8900,9.9394,0.2662,-0.1833,-0.2727,-1.50,178.88,169.13,0.5210,-0.4143,-9.7476,9.7703
3,19,0,1,1,69.235,69235,0.3000,1.5700,-9.2500,9.3871,0.9447,-0.1745,-0.2509,-3.56,175.19,171.50,0.4919,-0.1528,-9.6820,9.6957
3,19,0,1,1,69.367,69367,0.8500,-0.2400,-9.3300,9.3717,0.5018,0.1396,0.0098,-3.94,168.75,172.25,0.5391,-0.1643,-9.6356,9.6521
3,19,0,1,1,69.497,69497,0.3000,2.4300,-9.4900,9.8008,0.0065,0.5192,0.0011,-0.75,168.94,172.63,0.5076,0.1775,-9.6164,9.6315
3,19,0,1,1,69.672,69672,1.7400,2.0700,-9.3400,9.7236,0.6905,-0.1844,-0.0524,0.81,165.81,173.25,0.6700,0.4269,-9.5800,9.6129
3,19,0,1,1,69.803,69803,-1.5600,2.1700,-8.7000,9.1012,0.0153,-0.5083,-0.3403,-1.50,163.13,175.44,0.3761,0.6566,-9.4640,9.4942
3,19,0,1,1,69.937,69937,1.8400,3.3400,-10.3800,11.0583,0.3327,-0.0393,-0.2694,-0.81,163.94,177.94,0.5690,1.0102,-9.5847,9.6546
3,19,0,1,1,70.068,70068,-0.7400,2.8700,-9.0700,9.5420,1.3199,0.9512,-0.1407,1.94,157.31,178.00,0.3965,1.2553,-9.5169,9.6075
3,19,0,1,1,70.198,70198,0.6400,2.7700,-7.4500,7.9740,0.6370,0.0676,-0.0262,5.81,150.50,177.44,0.4286,1.4549,-9.2445,9.3681
3,19,0,1,1,70.328,70328,-2.1300,5.5700,-6.1600,8.5736,1.8239,1.1748,0.1222,6.63,144.44,175.25,0.0914,1.9972,-8.8381,9.0614
3,19,0,1,1,70.459,70459,0.4200,3.6300,-6.0400,7.0594,-1.4159,0.1124,-0.1036,9.69,142.81,172.50,0.1347,2.2123,-8.4694,8.7546
3,19,0,1,1,70.590,70590,-0.7200,5.7800,-9.3700,11.0328,-0.7669,-0.6981,-0.1440,7.31,152.94,173.06,0.0221,2.6825,-8.5880,8.9973
3,19,0,1,1,70.779,70779,-0.8200,3.9300,-9.0200,9.8731,-0.0251,-0.1571,-0.1342,4.19,157.75,176.75,-0.0889,2.8468,-8.6450,9.1021
3,19,0,1,1,70.910,70910,-0.4500,2.6400,-8.9100,9.3038,-0.4451,0.0033,0.1254,3.75,158.88,177.00,-0.1364,2.8196,-8.6799,9.1274
3,19,0,1,1,71.041,71041,-1.2200,3.9200,-9.1200,10.0015,0.2138,0.4571,0.3371,4.06,160.31,174.56,-0.2792,2.9646,-8.7379,9.2313
3,19,0,1,1,71.171,71171,-0.7400,2.7100,-7.5100,8.0182,-0.0316,0.4538,-0.0382,7.06,158.88,173.06,-0.3400,2.9310,-8.5761,9.0695
3,19,0,1,1,71.301,71301,-0.4600,1.8400,-8.8600,9.0607,-0.6043,0.1778,-0.1538,10.06,160.44,171.94,-0.3558,2.7873,-8.6135,9.0602
3,19,0,1,1,71.447,71447,-1.4100,5.1000,-9.8800,11.2077,0.3043,-0.5138,0.0262,6.13,165.13,171.38,-0.4947,3.0920,-8.7804,9.3221
3,19,0,1,1,71.581,71581,-1.7200,1.0000,-7.4100,7.6725,-0.0982,0.3011,-0.2334,7.06,162.25,174.06,-0.6562,2.8164,-8.5998,9.0730
3,19,0,1,1,71.712,71712,-0.2500,1.4100,-8.8400,8.9552,-0.7461,-0.0458,-0.2923,8.81,166.81,174.63,-0.6026,2.6310,-8.6315,9.0436
3,19,0,1,1,71.885,71885,-1.1000,1.9400,-10.7600,10.9887,-0.4636,-0.1636,-0.4080,6.31,174.63,176.31,-0.6682,2.5400,-8.9119,9.2909
3,19,0,1,1,72.015,72015,-0.4200,0.4700,-8.2900,8.3139,0.2476,0.0349,-0.0142,6.81,175.06,177.69,-0.6355,2.2672,-8.8300,9.1385
3,19,0,1,1,72.145,72145,-1.6800,-0.6400,-10.0900,10.2489,-0.8618,0.4800,-0.2062,8.19,176.69,177.75,-0.7731,1.8841,-8.9960,9.2237
3,19,0,1,1,72.275,72275,-0.3600,0.5200,-9.1400,9.1619,-0.2389,-0.0949,0.2400,10.13,-178.63,177.00,-0.7187,1.7044,-9.0150,9.2028
3,19,0,1,1,72.405,72405,-1.6400,-0.6400,-10.1600,10.3114,-0.1865,-0.4222,0.1113,7.50,-178.13,176.19,-0.8401,1.3954,-9.1659,9.3095
3,19,0,1,1,72.535,72535,-1.1000,0.1200,-9.6900,9.7530,0.1876,0.1418,0.1691,6.94,-178.31,174.00,-0.8743,1.2274,-9.2349,9.3571
3,19,0,1,1,72.666,72666,-0.3400,-1.2000,-9.1900,9.2742,-0.0687,-0.3392,0.1047,6.44,-179.56,173.19,-0.8039,0.9075,-9.2290,9.3083
3,19,0,1,1,72.796,72796,-0.9600,-0.3500,-9.2300,9.2864,-0.3480,-0.2094,-0.0120,4.00,-177.00,173.19,-0.8245,0.7418,-9.2292,9.2956
3,19,0,1,1,72.969,72969,-0.0100,-0.7400,-9.8100,9.8379,-0.2018,0.0622,-0.0098,4.00,-173.63,172.75,-0.7172,0.5465,-9.3057,9.3493
3,19,0,1,1,73.100,73100,-0.4900,-2.2400,-11.5900,11.8146,0.0698,-0.4451,0.2553,2.19,-173.94,171.88,-0.6872,0.1793,-9.6067,9.6329
3,19,0,1,1,73.230,73230,-1.5900,2.4400,-12.3000,12.6401,0.5061,0.6076,-0.7232,3.31,-173.06,173.19,-0.8062,0.4772,-9.9616,10.0056
3,20,0,1,1,73.361,73361,-0.4900,-1.5000,-8.3700,8.5175,1.2305,-0.3480,0.4232,3.31,176.06,172.31,-0.7645,0.2167,-9.7519,9.7842
3,20,0,1,1,73.491,73491,-0.5000,1.4300,-8.6800,8.8112,0.2062,0.4712,0.4080,3.88,172.44,170.75,-0.7297,0.3766,-9.6106,9.6456
3,20,0,1,1,73.622,73622,-0.3200,1.4300,-9.8500,9.9584,0.4003,0.0600,0.0055,8.06,169.63,170.56,-0.6757,0.5154,-9.6422,9.6796
3,20,0,1,1,73.753,73753,-1.0300,1.4900,-10.5200,10.6748,0.5825,-0.1374,-0.0393,6.44,166.50,169.31,-0.7224,0.6438,-9.7579,9.8057
3,20,0,1,1,73.885,73885,-1.9500,-0.2900,-8.8900,9.1060,0.2629,-0.0993,0.0949,5.69,162.38,169.88,-0.8841,0.5208,-9.6435,9.6979
3,20,0,1,1,74.059,74059,-1.2900,2.4000,-9.1300,9.5279,0.3000,-0.4669,0.5171,6.81,164.88,170.19,-0.9376,0.7684,-9.5758,9.6523
3,20,0,1,1,74.191,74191,0.2000,3.3100,-9.0400,9.6290,0.0993,0.4767,-0.0185,6.94,162.94,169.19,-0.7877,1.1033,-9.5052,9.6014
3,20,0,1,1,74.321,74321,0.0000,3.0800,-6.9100,7.5653,1.5479,0.1178,0.1298,8.63,156.38,168.56,-0.6839,1.3638,-9.1632,9.2894
3,20,0,1,1,74.452,74452,-0.1100,2.7200,-6.7800,7.3061,-0.0076,-0.1974,-0.2956,10.19,149.88,170.94,-0.6083,1.5425,-8.8492,9.0032
3,20,0,1,1,74.582,74582,-1.1200,4.2600,-8.0400,9.1675,-0.1778,-0.1876,-0.1516,9.06,152.50,172.50,-0.6757,1.9006,-8.7426,8.9722
3,20,0,1,1,74.712,74712,-2.1900,5.3200,-9.1800,10.8338,-0.2411,-0.0982,0.3283,7.69,154.38,172.44,-0.8753,2.3512,-8.8002,9.1508
3,20,0,1,1,74.843,74843,-1.1700,3.1900,-7.7300,8.4438,-0.0295,0.3033,0.1189,9.81,153.69,171.63,-0.9141,2.4617,-8.6592,9.0486
3,20,0,1,1,74.973,74973,-2.6500,5.1000,-9.2700,10.9071,-0.4167,-0.0382,0.0676,9.63,156.56,170.63,-1.1428,2.8094,-8.7397,9.2510
3,20,0,1,1,75.146,75146,-0.3800,1.7100,-6.6100,6.8382,0.5400,0.6360,-0.0065,12.81,150.44,167.75,-1.0423,2.6645,-8.4590,8.9298
3,20,0,1,1,75.277,75277,-1.1700,3.7700,-7.9200,8.8492,-0.7167,-0.6087,-0.1102,11.75,152.44,167.50,-1.0591,2.8102,-8.3880,8.9094
3,20,0,1,1,75.408,75408,-3.0000,2.9000,-10.1500,10.9742,-0.5181,-0.2542,0.0393,8.44,156.63,167.75,-1.3149,2.8220,-8.6202,9.1652
3,20,0,1,1,75.538,75538,-0.3400,4.5500,-9.1200,10.1977,-0.6130,0.0022,0.0098,9.63,161.94,167.44,-1.1864,3.0497,-8.6860,9.2820
3,20,0,1,1,75.669,75669,-1.5600,2.0700,-7.7100,8.1340,-0.0491,-0.0633,-0.1145,7.63,162.00,168.19,-1.2357,2.9206,-8.5574,9.1261
3,20,0,1,1,75.799,75799,-0.5000,2.6600,-9.0600,9.4556,-0.8083,-0.0622,0.0654,8.81,165.50,168.25,-1.1387,2.8863,-8.6237,9.1649
3,20,0,1,1,75.933,75933,-0.9500,1.4600,-8.0100,8.1972,-0.2673,-0.3982,-0.1385,6.56,168.81,168.75,-1.1139,2.6983,-8.5428,9.0278
3,20,0,1,1,76.064,76064,-0.5900,3.1900,-11.4300,11.8815,-0.7123,-0.2574,0.2694,4.38,174.44,169.50,-1.0448,2.7631,-8.9233,9.3995
3,20,0,1,1,76.237,76237,0.2400,-1.3200,-8.8000,8.9017,-0.0447,0.1440,0.3087,6.81,172.94,169.13,-0.8755,2.2251,-8.9070,9.2224
3,20,0,1,1,76.367,76367,-0.3300,-0.1300,-9.4200,9.4267,-0.9425,-0.3774,0.2607,5.44,177.69,168.00,-0.8036,1.9147,-8.9746,9.2117
3,20,0,1,1,76.498,76498,0.6100,0.0400,-10.7600,10.7774,-0.7101,-0.5618,0.1254,2.00,-176.31,166.38,-0.6173,1.6677,-9.2099,9.3800
3,20,0,1,1,76.628,76628,-0.3000,0.0400,-11.0300,11.0342,-0.0905,-0.3491,0.0436,-1.81,-173.44,165.63,-0.5755,1.4532,-9.4497,9.5781
3,20,0,1,1,76.759,76759,0.6000,-0.1000,-11.0500,11.0667,0.2749,0.5301,-0.1582,-0.50,-175.19,166.13,-0.4206,1.2485,-9.6606,9.7500
3,20,0,1,1,76.889,76889,-0.1300,-1.0200,-11.3400,11.3865,0.4396,0.1134,-0.2738,2.63,-179.00,168.63,-0.3823,0.9496,-9.8819,9.9348
3,20,0,1,1,77.020,77020,1.4700,-0.7400,-10.5200,10.6480,0.5367,-0.4014,-0.3523,2.94,176.75,170.50,-0.1382,0.7269,-9.9660,9.9934
3,20,0,1,1,77.150,77150,-3.2100,2.5500,-10.9200,11.6642,0.9348,0.1942,-0.3927,0.38,172.31,172.19,-0.5430,0.9672,-10.0917,10.1525
3,20,0,1,1,77.323,77323,2.0700,2.4200,-9.0700,9.6128,-0.3905,0.5400,0.3447,9.63,162.94,173.75,-0.1987,1.1586,-9.9571,10.0262
3,20,0,1,1,77.453,77453,-0.3800,3.2200,-9.3300,9.8773,0.7058,0.1276,-0.0447,10.44,161.56,174.00,-0.2226,1.4303,-9.8744,9.9800
3,20,0,1,1,77.583,77583,-2.2300,1.8300,-12.1500,12.4878,0.2280,-0.0916,-0.5738,10.31,158.06,175.75,-0.4871,1.4829,-10.1743,10.2933
3,20,0,1,1,77.713,77713,3.1200,-3.1300,-13.1400,13.8633,1.9024,0.3196,-0.3272,10.38,145.50,172.94,-0.0118,0.8751,-10.5651,10.6013
3,20,0,1,1,77.843,77843,-2.6500,4.6400,-9.4300,10.8387,0.0491,0.1265,0.3043,12.56,140.44,173.69,-0.3594,1.3712,-10.4155,10.5115
3,20,0,1,1,77.973,77973,0.5700,2.4500,-4.6500,5.2868,0.4461,0.9065,-0.1593,18.00,134.75,302.44,-0.2370,1.5134,-9.6558,9.7765
3,20,0,1,1,78.103,78103,-0.7000,3.0500,-8.4100,8.9733,-2.6464,-1.3504,-0.2062,14.50,145.44,171.75,-0.2980,1.7158,-9.4916,9.6501
3,20,0,1,1,78.233,78233,-3.0100,5.3600,-10.7700,12.4009,-1.3461,-0.9174,-0.5312,5.44,163.94,174.56,-0.6554,2.1960,-9.6601,9.9282
3,20,0,1,1,78.406,78406,0.0600,3.7400,-8.7600,9.5252,1.6286,0.3207,0.0567,5.81,164.94,173.38,-0.5611,2.3995,-9.5415,9.8545
3,20,0,1,1,78.536,78536,0.8300,-1.4000,-6.3800,6.5843,-0.3229,-0.3305,-0.2596,6.94,157.88,175.63,-0.3778,1.8988,-9.1249,9.3280
