participant,rep,equipment_code,exercise_code,quality_code,timestamp,timestamp_ms,accelX,accelY,accelZ,accelMag,gyroX,gyroY,gyroZ,roll,pitch,yaw,filteredX,filteredY,filteredZ,filteredMag
11,1,0,1,1,00.000,0,-0.0500,0.0100,-9.5100,9.5101,-0.0458,-0.0196,-0.0676,-0.94,-179.00,121.88,0.0570,-0.2726,-9.5204,9.5245
11,1,0,1,1,00.130,130,0.3900,-0.2400,-9.6300,9.6409,-0.1582,-0.0785,0.1233,-1.31,-178.50,121.38,0.1009,-0.2683,-9.5348,9.5391
11,1,0,1,1,00.260,260,0.6200,0.2900,-9.3700,9.3950,0.2389,0.0873,-0.1505,-0.56,-178.44,121.81,0.1693,-0.1947,-9.5131,9.5166
11,1,0,1,1,00.390,390,0.3200,-1.5600,-9.6300,9.7608,-0.1298,-0.3992,0.2629,-2.13,179.50,121.50,0.1891,-0.3746,-9.5285,9.5377
11,1,0,1,1,00.520,520,1.5000,1.5500,-11.6200,11.8185,-0.3862,0.1549,-0.1167,-3.19,-176.31,120.69,0.3619,-0.1210,-9.8041,9.8115
11,1,0,1,1,00.650,650,0.1800,-0.9300,-6.9800,7.0440,1.1792,-0.9447,-0.0676,-5.44,179.38,123.19,0.3379,-0.2276,-9.4320,9.4408
11,1,0,1,1,00.780,780,-0.2600,-0.0500,-11.4800,11.4831,-0.9174,0.6480,-0.2520,-9.00,178.25,121.88,0.2591,-0.2042,-9.7018,9.7075
11,1,0,1,1,00.910,910,1.3300,1.4100,-7.5500,7.7948,0.5498,0.5661,-0.0305,-1.25,-179.63,125.06,0.4002,0.0085,-9.4183,9.4268
11,1,0,1,1,01.083,1083,0.6800,1.3400,-10.1400,10.2507,-0.0502,-0.3272,-0.1996,-3.94,178.38,123.50,0.4371,0.1840,-9.5134,9.5252
11,1,0,1,1,01.213,1213,0.7900,0.2000,-11.2400,11.2695,0.3840,-0.1058,0.0600,-5.88,175.56,124.38,0.4836,0.1861,-9.7409,9.7547
11,1,0,1,1,01.343,1343,1.4100,1.0600,-7.4900,7.6949,0.6294,-0.5541,-0.0938,-6.75,172.75,125.38,0.6057,0.3012,-9.4443,9.4685
11,1,0,1,1,01.473,1473,0.5000,1.4800,-10.3300,10.4475,0.0698,0.0469,-0.0535,-10.31,169.56,125.44,0.5918,0.4566,-9.5610,9.5902
11,1,0,1,1,01.603,1603,1.9000,1.9600,-9.6300,10.0094,0.2116,0.3567,0.0436,-7.19,168.50,125.88,0.7641,0.6547,-9.5701,9.6229
11,1,0,1,1,01.733,1733,1.5800,2.4000,-6.4600,7.0702,0.4505,-0.0273,-0.1920,-6.19,167.25,125.69,0.8717,0.8847,-9.1603,9.2441
11,1,0,1,1,01.863,1863,1.7400,0.8700,-8.3700,8.5931,-0.4767,-0.4298,0.2989,-9.81,165.63,125.63,0.9861,0.8827,-9.0561,9.1523
11,1,0,1,1,01.994,1994,1.8700,2.8100,-11.2300,11.7263,-0.2596,0.6403,0.0927,-6.94,168.94,126.81,1.1026,1.1367,-9.3426,9.4759
11,1,0,1,1,02.167,2167,0.6200,0.2000,-10.8700,10.8895,0.3360,-0.3054,-0.1429,-8.81,166.94,126.38,1.0390,1.0133,-9.5439,9.6536
11,1,0,1,1,02.298,2298,2.1600,2.6100,-8.2500,8.9185,-1.2490,-0.0273,-0.2640,-6.50,172.56,129.94,1.1867,1.2237,-9.3734,9.5271
11,1,0,1,1,02.429,2429,1.4800,2.7300,-5.4700,6.2900,0.5269,-0.5269,-0.3600,-10.06,173.81,132.56,1.2253,1.4222,-8.8590,9.0557
11,1,0,1,1,02.562,2562,1.5600,1.1700,-9.8500,10.0412,-0.4342,0.7919,0.1680,-8.13,172.13,133.50,1.2694,1.3889,-8.9896,9.1844
11,1,0,1,1,02.693,2693,2.0300,1.5600,-9.3200,9.6652,0.2749,-0.1298,0.1778,-5.94,173.38,132.00,1.3697,1.4115,-9.0331,9.2448
11,1,0,1,1,02.826,2826,0.6400,0.9000,-9.1600,9.2263,0.2727,-0.1713,-0.0240,-8.31,170.44,131.63,1.2735,1.3441,-9.0498,9.2373
11,1,0,1,1,02.957,2957,1.5200,1.7500,-8.7300,9.0325,-0.2520,0.2203,-0.0338,-7.38,171.19,131.56,1.3060,1.3976,-9.0077,9.2086
11,1,0,1,1,03.087,3087,1.0600,1.5500,-9.8900,10.0667,-0.0175,0.1429,-0.0218,-6.00,172.00,132.06,1.2736,1.4177,-9.1240,9.3209
11,1,0,1,1,03.260,3260,1.4100,1.2200,-9.4200,9.6028,-0.1920,-0.0600,0.1189,-5.00,171.06,132.56,1.2916,1.3916,-9.1630,9.3576
11,1,0,1,1,03.391,3391,0.6100,1.5000,-9.4000,9.5385,0.0185,-0.0633,0.0196,-6.44,172.06,131.94,1.2017,1.4059,-9.1942,9.3784
11,1,0,1,1,03.521,3521,0.8700,1.0900,-7.7700,7.8942,-0.0840,0.0458,0.1974,-6.13,172.19,131.19,1.1580,1.3643,-9.0065,9.1826
11,2,0,1,1,03.652,3652,0.6600,0.9700,-9.9600,10.0289,-0.3578,0.5727,0.0709,-4.00,174.13,130.19,1.0924,1.3123,-9.1322,9.2904
11,2,0,1,1,03.783,3783,0.9000,0.9600,-9.9400,10.0267,-0.1189,0.2651,0.0065,-1.00,176.19,129.56,1.0670,1.2659,-9.2386,9.3858
11,2,0,1,1,03.913,3913,0.7800,0.3100,-8.9700,9.0092,0.1963,-0.1189,-0.0971,-0.63,175.50,129.69,1.0292,1.1399,-9.2032,9.3305
11,2,0,1,1,04.044,4044,-0.2800,0.3300,-9.8400,9.8495,-0.2629,0.2345,-0.0774,-1.63,176.06,129.50,0.8567,1.0332,-9.2871,9.3836
11,2,0,1,1,04.175,4175,-0.1200,0.8200,-8.2600,8.3015,-0.2771,-0.2803,0.3949,-0.88,177.94,128.81,0.7280,1.0051,-9.1518,9.2356
11,2,0,1,1,04.349,4349,0.6100,0.7700,-10.2100,10.2571,-0.0316,0.6043,-0.1298,0.81,179.31,127.38,0.7124,0.9741,-9.2912,9.3693
11,2,0,1,1,04.482,4482,-0.2100,0.0800,-10.7800,10.7823,0.5138,-0.6370,0.0949,0.00,177.00,127.19,0.5909,0.8563,-9.4874,9.5443
11,2,0,1,1,04.612,4612,0.4700,0.6100,-7.9600,7.9972,0.2531,0.0447,0.0338,-0.56,174.56,127.63,0.5750,0.8238,-9.2861,9.3403
11,2,0,1,1,04.742,4742,-0.0800,-0.2000,-9.3500,9.3525,-0.2891,-0.2607,0.2247,-2.06,174.50,126.19,0.4887,0.6889,-9.2946,9.3329
11,2,0,1,1,04.873,4873,0.7000,0.3800,-9.8900,9.9220,-0.4723,0.3000,0.0709,-1.63,178.38,124.88,0.5165,0.6482,-9.3730,9.4096
11,2,0,1,1,05.003,5003,0.5100,0.1700,-9.5500,9.5651,0.1025,-0.0524,-0.0338,-0.50,179.81,124.63,0.5156,0.5852,-9.3963,9.4287
11,2,0,1,1,05.134,5134,-0.0500,-0.5300,-10.0100,10.0241,-0.0502,0.3425,-0.0687,0.00,178.69,125.00,0.4411,0.4382,-9.4772,9.4976
11,2,0,1,1,05.264,5264,0.6900,0.4600,-8.3000,8.3413,-0.1222,-0.1331,0.0000,1.56,-179.38,124.69,0.4739,0.4411,-9.3221,9.3445
11,2,0,1,1,05.437,5437,-0.1500,-0.4300,-10.4600,10.4699,-0.2967,0.4156,-0.0654,0.75,-179.25,124.13,0.3917,0.3263,-9.4720,9.4857
11,2,0,1,1,05.567,5567,0.2700,0.0700,-8.8600,8.8644,0.2258,-0.1418,-0.0611,2.50,-178.13,124.94,0.3757,0.2925,-9.3914,9.4034
11,2,0,1,1,05.697,5697,-0.7200,-1.3900,-9.3400,9.4703,-0.2116,-0.1953,0.1374,0.25,-179.19,124.88,0.2313,0.0708,-9.3846,9.3877
11,2,0,1,1,05.827,5827,-0.1000,0.2600,-9.8700,9.8739,-0.2520,0.5814,-0.1909,2.38,-176.13,124.50,0.1876,0.0958,-9.4486,9.4509
11,2,0,1,1,05.957,5957,0.1100,-0.7300,-10.0000,10.0272,-0.0142,0.1200,-0.1582,4.94,-175.88,125.94,0.1774,-0.0131,-9.5212,9.5229
11,2,0,1,1,06.087,6087,-0.5000,-0.7700,-9.5100,9.5542,-0.1516,-0.3742,-0.0338,3.06,-174.81,126.38,0.0881,-0.1128,-9.5198,9.5208
11,2,0,1,1,06.217,6217,-0.6800,-0.5800,-10.0100,10.0498,0.0153,0.0982,-0.0742,2.38,-174.50,125.44,-0.0131,-0.1744,-9.5844,9.5860
11,2,0,1,1,06.347,6347,-0.2400,-1.0200,-9.5900,9.6471,0.2956,0.0633,-0.0600,3.25,-175.88,126.06,-0.0430,-0.2858,-9.5851,9.5895
11,2,0,1,1,06.520,6520,-0.3800,-0.3300,-9.5100,9.5233,-0.0982,-0.0665,0.1014,2.81,-176.38,125.19,-0.0874,-0.2916,-9.5752,9.5800
11,2,0,1,1,06.650,6650,-0.2800,-0.7800,-9.8500,9.8848,0.1593,-0.1287,-0.0142,2.13,-176.94,124.94,-0.1128,-0.3560,-9.6114,9.6187
11,2,0,1,1,06.780,6780,0.0500,0.2900,-9.6100,9.6145,0.0458,-0.0622,-0.0327,1.75,-177.00,124.56,-0.0913,-0.2709,-9.6112,9.6155
11,2,0,1,1,06.910,6910,-0.1100,-0.7700,-9.8500,9.8807,0.2967,-0.0447,-0.1004,1.19,-179.13,125.38,-0.0938,-0.3366,-9.6427,9.6490
11,2,0,1,1,07.040,7040,0.2100,0.1600,-10.1300,10.1334,-0.1767,-0.0862,-0.0022,1.25,-178.75,125.88,-0.0538,-0.2712,-9.7069,9.7108
11,2,0,1,1,07.170,7170,0.3500,0.0000,-9.6500,9.6563,0.1113,-0.4603,0.0611,-1.00,-178.50,124.50,-0.0006,-0.2355,-9.6994,9.7023
11,2,0,1,1,07.301,7301,-0.3000,0.0700,-11.4900,11.4941,0.1680,0.0469,-0.1974,-3.13,-179.94,125.19,-0.0400,-0.1952,-9.9354,9.9374
11,2,0,1,1,07.431,7431,1.3300,0.3500,-10.7400,10.8277,0.1407,-0.1571,0.2956,-2.31,179.13,124.94,0.1405,-0.1234,-10.0414,10.0431
11,2,0,1,1,07.604,7604,-0.3500,-0.6500,-7.9100,7.9444,-0.3153,-0.4222,0.6174,-6.56,177.94,122.19,0.0759,-0.1928,-9.7605,9.7627
11,2,0,1,1,07.734,7734,1.8300,1.0800,-8.2300,8.4999,-0.1767,0.4222,-0.2334,-6.06,-179.56,121.06,0.3070,-0.0250,-9.5588,9.5638
11,2,0,1,1,07.865,7865,1.4400,-0.3000,-8.2100,8.3407,0.3480,-0.3872,0.0513,-7.81,177.88,123.38,0.4563,-0.0613,-9.3811,9.3924
11,2,0,1,1,07.996,7996,-0.0500,-0.0700,-10.7000,10.7003,0.1822,-0.1418,-0.1069,-10.06,176.88,124.19,0.3896,-0.0624,-9.5549,9.5630
11,2,0,1,1,08.126,8126,1.9400,0.8200,-9.1100,9.3503,0.2487,0.1200,0.0415,-8.06,175.94,125.06,0.5939,0.0539,-9.4963,9.5150
11,2,0,1,1,08.257,8257,1.3600,0.4600,-9.2500,9.3608,0.0535,-0.0229,0.1778,-9.06,174.06,124.50,0.6949,0.1074,-9.4638,9.4899
11,2,0,1,1,08.387,8387,2.1900,1.7900,-8.7800,9.2243,-0.1374,0.2694,0.0949,-8.00,174.88,124.44,0.8919,0.3291,-9.3737,9.4218
11,2,0,1,1,08.518,8518,1.4600,1.0800,-8.2600,8.4573,0.0764,-0.1069,0.0753,-8.44,174.25,124.00,0.9667,0.4281,-9.2270,9.2873
11,2,0,1,1,08.695,8695,2.2900,2.1900,-8.9400,9.4849,-0.0218,0.0305,0.1942,-7.75,174.94,123.38,1.1411,0.6602,-9.1891,9.2832
11,3,0,1,1,08.826,8826,1.1200,-0.0500,-10.1900,10.2515,0.1724,0.1767,0.1571,-7.94,172.25,122.75,1.1383,0.5666,-9.3210,9.4074
11,3,0,1,1,08.956,8956,1.9200,1.6100,-8.4300,8.7945,-0.0393,-0.1680,-0.1724,-7.38,172.81,123.25,1.2413,0.7041,-9.2036,9.3136
11,3,0,1,1,09.086,9086,0.7200,0.7100,-9.8600,9.9117,-0.0927,0.0905,-0.0676,-8.19,172.50,124.06,1.1726,0.7049,-9.2901,9.3903
11,3,0,1,1,09.217,9217,1.4200,0.9300,-9.8600,10.0050,-0.1745,0.4254,-0.1309,-5.75,173.56,125.00,1.2052,0.7346,-9.3652,9.4710
11,3,0,1,1,09.348,9348,1.4600,1.0400,-8.5200,8.7065,0.1134,-0.2443,-0.0120,-5.31,174.31,125.00,1.2388,0.7748,-9.2538,9.3685
11,3,0,1,1,09.478,9478,0.3200,0.6300,-10.1900,10.2145,-0.1942,0.2313,0.0229,-6.38,174.38,124.75,1.1177,0.7557,-9.3772,9.4738
11,3,0,1,1,09.608,9608,1.6900,0.6000,-8.5600,8.7458,-0.1014,-0.0589,0.0894,-4.56,175.56,124.63,1.1931,0.7352,-9.2695,9.3749
11,3,0,1,1,09.781,9781,0.2200,1.1600,-10.5100,10.5761,-0.1614,0.2367,-0.0905,-5.69,178.38,124.56,1.0649,0.7912,-9.4330,9.5258
11,3,0,1,1,09.912,9912,0.7800,0.5200,-9.0600,9.1084,0.5956,0.1724,0.2869,-3.75,176.50,123.50,1.0274,0.7555,-9.3838,9.4701
11,3,0,1,1,10.042,10042,1.0800,-0.7800,-9.1300,9.2267,-0.2847,0.2018,0.2509,-2.50,174.69,121.06,1.0343,0.5531,-9.3504,9.4237
11,3,0,1,1,10.173,10173,0.7400,0.6000,-9.8600,9.9059,-0.9163,-0.3458,-0.1058,-3.19,-178.94,120.75,0.9955,0.5593,-9.4175,9.4865
11,3,0,1,1,10.304,10304,1.0800,1.5700,-9.1700,9.3659,0.5781,-0.0513,-0.0055,-4.38,-177.63,121.63,1.0067,0.6925,-9.3849,9.4641
11,3,0,1,1,10.437,10437,-0.5900,-1.8900,-9.7000,9.9000,0.4102,-0.0491,-0.0567,-5.69,176.44,121.69,0.7963,0.3522,-9.4264,9.4666
11,3,0,1,1,10.568,10568,2.0600,0.6100,-7.9300,8.2159,-0.6632,0.4691,-0.1985,-1.88,179.69,122.44,0.9628,0.3862,-9.2292,9.2874
11,3,0,1,1,10.701,10701,-0.6000,-0.7600,-11.0400,11.0824,-0.5225,-0.5989,0.1276,-5.25,-176.38,123.25,0.7568,0.2351,-9.4679,9.5010
11,3,0,1,1,10.874,10874,1.4400,0.0100,-9.1400,9.2527,0.9032,0.1713,-0.8519,-4.19,-177.19,125.13,0.8469,0.2055,-9.4247,9.4649
11,3,0,1,1,11.004,11004,0.1000,-1.1500,-9.3000,9.3714,-0.1680,-0.0753,0.6174,-4.25,178.31,127.88,0.7485,0.0268,-9.4082,9.4380
11,3,0,1,1,11.134,11134,1.6800,0.5900,-9.8900,10.0490,-0.1047,0.4974,0.0076,-2.69,-178.75,123.25,0.8712,0.1010,-9.4717,9.5122
11,3,0,1,1,11.264,11264,-0.5100,-0.0800,-9.7400,9.7537,0.0196,-0.3992,-0.1713,-2.94,-179.81,125.81,0.6892,0.0772,-9.5071,9.5323
11,3,0,1,1,11.394,11394,0.6800,0.3700,-9.7800,9.8106,0.4091,0.5890,0.5181,-2.38,179.25,123.31,0.6880,0.1158,-9.5430,9.5685
11,3,0,1,1,11.524,11524,0.5600,-0.6000,-9.2100,9.2465,-0.2105,-0.1876,-0.3338,0.00,176.94,124.06,0.6711,0.0215,-9.4991,9.5228
11,3,0,1,1,11.654,11654,0.7200,0.9100,-9.4700,9.5408,-0.3153,-0.0535,0.3033,-2.19,-179.38,122.31,0.6776,0.1385,-9.4953,9.5205
11,3,0,1,1,11.784,11784,-0.5200,-0.2500,-9.6800,9.6972,0.0654,0.1887,-0.5520,-1.38,-179.63,124.75,0.5198,0.0873,-9.5196,9.5342
11,3,0,1,1,11.957,11957,1.0000,0.4400,-9.5200,9.5825,-0.0262,0.4854,-0.2400,2.44,-179.06,124.19,0.5830,0.1338,-9.5197,9.5385
11,3,0,1,1,12.087,12087,-0.6900,-0.7600,-9.6100,9.6647,-0.2160,-0.3142,-0.0142,1.75,-179.00,125.44,0.4153,0.0160,-9.5316,9.5406
11,3,0,1,1,12.217,12217,-0.5900,-0.9200,-10.4000,10.4573,-0.3971,0.0513,-0.1385,1.19,-176.44,125.19,0.2828,-0.1073,-9.6460,9.6508
11,3,0,1,1,12.347,12347,0.0600,0.2700,-10.4500,10.4537,0.1276,0.1560,0.0098,2.44,-174.25,124.69,0.2535,-0.0576,-9.7520,9.7554
11,3,0,1,1,12.477,12477,0.7400,-0.7000,-9.4800,9.5346,0.3785,0.1124,-0.1931,3.81,-177.19,125.38,0.3176,-0.1422,-9.7161,9.7224
11,3,0,1,1,12.607,12607,-1.1600,-0.9400,-8.7400,8.8666,-0.1451,-0.5312,0.1473,0.88,-178.56,126.19,0.1229,-0.2474,-9.5875,9.5915
11,3,0,1,1,12.737,12737,-0.6700,-0.0400,-10.1700,10.1921,-0.1844,0.3720,0.0502,0.44,-176.25,125.31,0.0184,-0.2200,-9.6643,9.6668
11,3,0,1,1,12.867,12867,1.3900,0.2700,-10.1700,10.2681,0.0240,-0.0120,-0.0229,2.69,-175.63,124.75,0.1991,-0.1555,-9.7309,9.7342
11,3,0,1,1,13.040,13040,-0.5200,-0.8900,-9.3900,9.4464,0.3862,-0.4472,-0.0011,-3.31,-179.69,124.56,0.1044,-0.2523,-9.6860,9.6898
11,3,0,1,1,13.170,13170,0.4100,0.1900,-10.5300,10.5397,-0.0644,0.3491,-0.0371,-2.38,179.81,125.50,0.1446,-0.1940,-9.7972,9.8002
11,3,0,1,1,13.300,13300,1.7400,1.5300,-10.8900,11.1338,0.1876,-0.1767,-0.0785,-1.63,-179.94,125.81,0.3549,0.0332,-9.9412,9.9476
11,3,0,1,1,13.430,13430,0.1300,-0.4200,-9.2500,9.2604,0.8694,-0.5923,0.0436,-5.63,174.94,126.31,0.3252,-0.0265,-9.8501,9.8555
11,3,0,1,1,13.560,13560,1.6600,0.9100,-10.4700,10.6398,-0.3567,0.1593,0.0360,-6.06,173.38,126.88,0.5011,0.0969,-9.9318,9.9449
11,3,0,1,1,13.690,13690,1.2000,1.0600,-9.0900,9.2299,0.4494,-0.2225,0.0873,-6.50,171.94,127.75,0.5932,0.2238,-9.8209,9.8413
11,3,0,1,1,13.821,13821,1.5900,0.9300,-9.3200,9.5003,-0.0327,-0.1582,0.0065,-8.44,170.81,128.00,0.7246,0.3169,-9.7549,9.7869
11,3,0,1,1,13.951,13951,1.1000,2.0300,-8.4300,8.7405,0.2651,-0.3611,-0.0644,-9.88,170.31,128.88,0.7740,0.5426,-9.5803,9.6268
11,3,0,1,1,14.124,14124,1.1500,2.7400,-9.3500,9.8108,1.0014,0.4614,-0.0022,-9.63,164.44,128.81,0.8236,0.8322,-9.5499,9.6214
11,3,0,1,1,14.254,14254,3.6100,1.6200,-6.6900,7.7726,0.4461,-0.6054,0.4232,-9.63,158.69,126.94,1.1908,0.9360,-9.1731,9.2973
11,4,0,1,1,14.384,14384,0.5500,3.1300,-9.9500,10.4452,-0.9785,0.0011,-0.3022,-14.94,161.38,128.25,1.1063,1.2251,-9.2755,9.4212
11,4,0,1,1,14.514,14514,2.3400,2.3600,-10.0600,10.5948,0.2334,-0.2825,-0.0600,-13.50,163.25,130.00,1.2689,1.3746,-9.3788,9.5636
11,4,0,1,1,14.644,14644,2.9100,4.0300,-8.0800,9.4866,0.3185,0.0196,-0.0251,-14.13,162.69,130.63,1.4851,1.7246,-9.2077,9.4848
11,4,0,1,1,14.774,14774,2.5700,2.1000,-8.8800,9.4799,-0.0284,-0.0993,0.1178,-15.56,159.50,130.13,1.6281,1.7740,-9.1645,9.4755
11,4,0,1,1,14.904,14904,3.5800,3.3800,-8.8200,10.1011,-0.2793,-0.0589,-0.0404,-15.00,161.06,131.44,1.8853,1.9857,-9.1191,9.5213
11,4,0,1,1,15.034,15034,1.6200,2.3200,-8.6800,9.1296,-0.0131,-0.1625,0.0000,-17.25,160.88,133.06,1.8504,2.0297,-9.0612,9.4684
11,4,0,1,1,15.207,15207,2.2900,2.5500,-8.9200,9.5558,-0.5956,0.0862,0.2411,-16.69,163.50,132.19,1.9083,2.0983,-9.0426,9.4770
11,4,0,1,1,15.337,15337,2.9900,3.0200,-9.7000,10.5901,0.1811,0.2607,0.2323,-14.81,165.63,131.00,2.0508,2.2197,-9.1293,9.6165
11,4,0,1,1,15.467,15467,2.2700,2.9100,-8.0800,8.8830,0.4767,-0.2793,0.1953,-15.81,163.06,129.25,2.0797,2.3107,-8.9910,9.5133
11,4,0,1,1,15.597,15597,2.9700,2.5700,-8.7800,9.6184,0.0316,0.3371,0.0349,-15.75,161.56,128.19,2.1970,2.3449,-8.9632,9.5218
11,4,0,1,1,15.727,15727,2.9200,2.9600,-8.5900,9.5434,-0.0469,0.1167,0.0436,-14.38,162.19,127.25,2.2923,2.4259,-8.9140,9.5184
11,4,0,1,1,15.857,15857,2.1000,1.9300,-8.3700,8.8426,0.0295,-0.0960,-0.1364,-14.44,162.06,127.25,2.2670,2.3606,-8.8423,9.4286
11,4,0,1,1,15.988,15988,1.9300,3.3900,-9.6600,10.4179,-0.7919,0.5312,-0.2051,-13.88,165.63,128.44,2.2226,2.4962,-8.9501,9.5538
11,4,0,1,1,16.118,16118,3.1400,2.3900,-7.9400,8.8665,0.2094,0.0491,-0.1342,-10.31,167.19,129.13,2.3435,2.4822,-8.8170,9.4547
11,4,0,1,1,16.291,16291,1.0500,1.4900,-10.0800,10.2435,-0.6469,0.2989,0.1822,-12.75,168.75,127.69,2.1730,2.3515,-8.9834,9.5369
11,4,0,1,1,16.422,16422,2.1000,3.7500,-9.9600,10.8478,0.6250,0.6752,-0.2825,-7.88,170.50,128.13,2.1634,2.5358,-9.1121,9.7026
11,4,0,1,1,16.552,16552,1.0100,2.2200,-9.5500,9.8565,1.0843,-0.0742,0.0873,-6.31,162.75,126.94,2.0114,2.4942,-9.1698,9.7135
11,4,0,1,1,16.683,16683,1.0700,1.7300,-7.2100,7.4915,0.2869,0.0022,0.0785,-6.50,157.31,125.88,1.8873,2.3935,-8.9115,9.4184
11,4,0,1,1,16.813,16813,0.7600,2.3800,-9.3300,9.6587,-0.9141,0.4189,-0.0087,-5.81,160.88,125.25,1.7388,2.3917,-8.9667,9.4417
11,4,0,1,1,16.946,16946,2.1500,2.8600,-9.7900,10.4233,-0.7701,0.2029,0.2694,-2.81,167.75,123.94,1.7930,2.4534,-9.0752,9.5704
11,4,0,1,1,17.077,17077,1.1100,1.3000,-9.4500,9.6034,-0.4091,-0.8628,-0.0382,-6.56,170.81,123.88,1.7030,2.3014,-9.1246,9.5632
11,4,0,1,1,17.211,17211,-0.0800,0.8100,-9.6400,9.6743,-0.4723,0.1233,-0.3316,-9.31,174.31,125.25,1.4680,2.1049,-9.1925,9.5440
11,4,0,1,1,17.383,17383,1.9600,0.8600,-9.1100,9.3581,0.0011,-0.0316,0.1102,-6.19,177.25,125.00,1.5329,1.9408,-9.1816,9.5089
11,4,0,1,1,17.513,17513,1.0100,0.1500,-10.3200,10.3704,0.1014,-0.1265,0.0589,-8.88,176.25,123.19,1.4640,1.7049,-9.3316,9.5984
11,4,0,1,1,17.643,17643,2.0500,0.8500,-9.6000,9.8532,0.0065,0.1811,-0.2040,-7.63,176.50,123.56,1.5412,1.5922,-9.3670,9.6255
11,4,0,1,1,17.773,17773,0.2300,0.4800,-9.2400,9.2553,0.4407,-0.4461,-0.3567,-10.31,174.25,124.94,1.3684,1.4456,-9.3503,9.5598
11,4,0,1,1,17.903,17903,1.4300,1.5700,-10.2600,10.4775,-0.2313,1.0483,-0.4102,-6.13,173.69,127.19,1.3765,1.4620,-9.4701,9.6807
11,4,0,1,1,18.033,18033,1.3800,1.2900,-8.4000,8.6098,0.4189,-0.3720,-0.2367,-3.50,173.06,129.00,1.3770,1.4394,-9.3291,9.5394
11,4,0,1,1,18.164,18164,0.4200,0.0300,-10.1300,10.1387,-0.7450,0.4505,0.3763,-4.44,173.31,127.13,1.2509,1.2536,-9.4347,9.5994
11,4,0,1,1,18.294,18294,2.3200,1.2600,-9.9500,10.2943,-0.4429,0.0295,-0.0851,-1.31,179.06,126.06,1.3918,1.2545,-9.5026,9.6855
11,4,0,1,1,18.467,18467,0.0600,-0.4300,-9.4700,9.4799,-0.2771,-0.3600,-0.0960,-5.38,179.81,126.06,1.2163,1.0325,-9.4983,9.6313
11,4,0,1,1,18.598,18598,0.7400,-0.0700,-9.8000,9.8281,-0.3436,0.2913,0.0273,-4.38,-177.38,126.75,1.1535,0.8872,-9.5380,9.6484
11,4,0,1,1,18.729,18729,0.6000,-0.7500,-9.9700,10.0162,-0.0960,0.1702,-0.2083,-2.94,-176.00,127.69,1.0806,0.6715,-9.5950,9.6789
11,4,0,1,1,18.859,18859,1.2800,0.1500,-9.6100,9.6960,0.0567,0.0207,-0.2062,-1.69,-175.44,128.44,1.1068,0.6028,-9.5969,9.6793
11,4,0,1,1,18.990,18990,0.3100,-1.2100,-9.0500,9.1358,0.3458,-0.3862,0.1767,-3.56,-177.94,128.00,1.0018,0.3639,-9.5249,9.5843
11,4,0,1,1,19.121,19121,0.6600,-0.3700,-10.3800,10.4075,-0.3622,0.3807,-0.0807,-3.31,-177.38,128.38,0.9568,0.2672,-9.6376,9.6886
11,4,0,1,1,19.256,19256,0.9400,0.3000,-9.4700,9.5213,0.2651,-0.0818,-0.1102,-1.81,-176.69,128.56,0.9546,0.2715,-9.6155,9.6666
11,4,0,1,1,19.386,19386,0.6100,-1.1300,-10.1400,10.2210,0.1963,-0.1178,0.1364,-3.00,-179.56,127.94,0.9092,0.0868,-9.6846,9.7276
11,4,0,1,1,19.559,19559,2.3700,0.3900,-9.3700,9.6729,0.2803,-0.3916,0.1025,-3.25,-178.63,127.50,1.1017,0.1268,-9.6431,9.7067
11,4,0,1,1,19.689,19689,1.4900,-0.0900,-9.8900,10.0020,0.4603,-0.6141,0.1549,-8.25,177.88,127.25,1.1528,0.0982,-9.6757,9.7446
11,4,0,1,1,19.819,19819,2.8900,-1.3900,-7.7700,8.4058,-0.0447,-1.5948,0.8301,-15.81,176.63,123.63,1.3818,-0.0979,-9.4245,9.5258
11,4,0,1,1,19.949,19949,2.0600,1.2700,-10.3400,10.6194,-0.5989,0.6523,-0.3316,-20.38,-178.50,122.13,1.4711,0.0824,-9.5452,9.6582
11,4,0,1,1,20.080,20080,2.4000,0.6300,-9.8400,10.1480,1.0363,1.3210,-0.3840,-11.38,177.19,127.25,1.5935,0.1545,-9.5840,9.7168
11,4,0,1,1,20.210,20210,3.3100,0.6800,-8.9100,9.5292,0.0916,0.1625,0.1931,-5.44,173.00,127.00,1.8197,0.2238,-9.4952,9.6706
11,4,0,1,1,20.340,20340,0.8600,0.2300,-9.7200,9.7607,-0.4243,-0.9316,0.2280,-11.50,174.19,124.38,1.6933,0.2246,-9.5248,9.6768
11,4,0,1,1,20.471,20471,2.3100,1.7100,-10.4700,10.8573,-0.2334,0.4887,-0.1734,-12.31,177.75,124.31,1.7745,0.4203,-9.6494,9.8202
11,4,0,1,1,20.643,20643,1.1500,0.0700,-9.6900,9.7583,0.2771,-0.1331,-0.1167,-11.00,174.00,126.69,1.6922,0.3742,-9.6547,9.8091
11,4,0,1,1,20.773,20773,2.1300,1.2400,-9.6400,9.9501,0.0818,0.2891,-0.3316,-9.63,173.00,128.81,1.7499,0.4883,-9.6528,9.8223
11,4,0,1,1,20.903,20903,1.8700,0.8700,-8.9700,9.2041,0.4680,-0.0022,-0.2073,-8.00,170.69,131.13,1.7657,0.5386,-9.5628,9.7394
11,4,0,1,1,21.033,21033,1.9800,0.6400,-8.4400,8.6927,-0.1756,-0.1396,0.1004,-9.31,169.13,131.50,1.7940,0.5519,-9.4149,9.6001
11,4,0,1,1,21.163,21163,1.9300,1.9700,-8.7800,9.2029,-0.4429,0.0305,-0.2313,-9.50,171.75,132.56,1.8119,0.7388,-9.3312,9.5342
11,4,0,1,1,21.293,21293,1.2100,2.0300,-9.1900,9.4890,0.0916,0.3534,0.0076,-7.75,172.69,134.56,1.7326,0.9089,-9.3126,9.5159
11,4,0,1,1,21.424,21424,1.4400,2.1500,-9.3200,9.6726,0.2705,0.1996,0.3349,-5.63,171.25,132.88,1.6940,1.0725,-9.3136,9.5269
11,4,0,1,1,21.554,21554,1.1100,1.4600,-8.9500,9.1360,0.4396,-0.1604,0.1407,-6.13,168.50,131.06,1.6171,1.1235,-9.2657,9.4726
11,4,0,1,1,21.727,21727,1.6400,1.9300,-9.1500,9.4941,-0.2411,0.1963,-0.0535,-5.56,168.94,129.94,1.6201,1.2298,-9.2504,9.4714
11,4,0,1,1,21.858,21858,1.7800,2.1800,-9.2900,9.7070,-0.0567,-0.2345,-0.0524,-5.63,170.00,130.25,1.6412,1.3550,-9.2556,9.4972
11,4,0,1,1,21.989,21989,0.9700,1.9900,-8.4400,8.7255,0.2029,-0.2771,0.0142,-7.88,169.25,130.88,1.5527,1.4387,-9.1482,9.3899
11,5,0,1,1,22.121,22121,1.8900,2.0200,-10.3300,10.6940,-0.3611,0.4549,0.1189,-6.19,169.75,130.63,1.5972,1.5153,-9.3039,9.5608
11,5,0,1,1,22.252,22252,1.2900,1.6600,-8.6000,8.8532,0.3272,-0.3142,-0.0404,-6.19,169.50,130.25,1.5567,1.5344,-9.2111,9.4669
11,5,0,1,1,22.386,22386,0.6600,0.8300,-9.7300,9.7876,-0.1724,0.0949,-0.0458,-7.94,168.63,129.81,1.4385,1.4416,-9.2795,9.5004
11,5,0,1,1,22.517,22517,1.7900,2.1700,-8.5400,8.9914,-0.1811,0.0436,0.1669,-6.38,171.50,128.88,1.4848,1.5375,-9.1821,9.4276
11,5,0,1,1,22.647,22647,1.6900,1.7200,-9.0600,9.3754,-0.0611,-0.0720,0.1156,-6.31,172.00,128.63,1.5119,1.5616,-9.1660,9.4202
11,5,0,1,1,22.820,22820,0.8300,2.0800,-9.2300,9.4978,0.0033,-0.4211,0.2094,-9.63,172.00,128.00,1.4220,1.6299,-9.1744,9.4260
11,5,0,1,1,22.951,22951,1.3700,1.0200,-9.8800,10.0265,0.1145,0.2433,0.1713,-9.81,171.19,127.00,1.4152,1.5495,-9.2674,9.5020
11,5,0,1,1,23.081,23081,1.8500,1.6900,-9.3600,9.6896,0.1396,0.1429,0.1909,-8.25,171.31,125.19,1.4725,1.5680,-9.2796,9.5256
11,5,0,1,1,23.212,23212,1.3500,1.0000,-10.1600,10.2980,-0.1745,0.2007,0.0251,-8.19,171.13,123.31,1.4563,1.4932,-9.3956,9.6243
11,5,0,1,1,23.343,23343,1.4600,0.3800,-9.1700,9.2933,-0.3360,0.1571,0.0818,-6.31,173.50,123.25,1.4568,1.3465,-9.3659,9.5737
11,5,0,1,1,23.474,23474,1.6600,1.1100,-9.1300,9.3458,-0.4298,0.0109,-0.0905,-6.06,177.25,122.50,1.4836,1.3153,-9.3348,9.5430
11,5,0,1,1,23.605,23605,1.1800,-0.7000,-10.8700,10.9562,-0.6905,-0.1854,0.2116,-7.81,179.94,122.19,1.4436,1.0498,-9.5371,9.7027
11,5,0,1,1,23.740,23740,2.0700,0.9700,-8.2700,8.5801,-0.0305,0.2433,-0.5563,-5.81,-176.31,124.50,1.5261,1.0393,-9.3701,9.5503
11,5,0,1,1,23.913,23913,0.3500,-1.1700,-11.6100,11.6741,-0.9588,-0.5760,0.3000,-13.25,-174.69,123.50,1.3711,0.7481,-9.6653,9.7907
11,5,0,1,1,24.043,24043,2.0500,1.1200,-8.2100,8.5359,0.3305,0.3851,-0.4669,-11.25,-171.50,125.06,1.4606,0.7971,-9.4735,9.6185
11,5,0,1,1,24.173,24173,0.7100,-1.6800,-10.4600,10.6178,0.6567,0.6752,-0.2127,-9.13,-178.19,127.13,1.3617,0.4707,-9.6035,9.7110
11,5,0,1,1,24.303,24303,1.7200,0.3300,-8.5200,8.6981,-0.0109,0.3000,0.0447,-4.38,-178.38,127.56,1.4089,0.4522,-9.4607,9.5757
11,5,0,1,1,24.433,24433,0.0100,-0.6700,-9.6400,9.6633,0.0513,0.1069,0.0720,-4.19,-179.38,126.56,1.2246,0.3043,-9.4844,9.5679
11,5,0,1,1,24.563,24563,0.0000,-0.1800,-9.7400,9.7417,-0.3731,0.8868,-0.3022,0.56,-177.69,128.19,1.0632,0.2405,-9.5180,9.5803
11,5,0,1,1,24.694,24694,0.8500,-0.5100,-9.6300,9.6809,-0.2334,0.1309,0.1287,4.81,-175.25,127.81,1.0351,0.1416,-9.5328,9.5899
11,5,0,1,1,24.824,24824,-1.2600,-1.2900,-9.1700,9.3456,-0.0447,-0.1876,0.0993,3.63,-174.81,127.06,0.7327,-0.0471,-9.4850,9.5134
11,5,0,1,1,24.997,24997,-0.8900,-0.6300,-10.2800,10.3377,-0.4254,0.6381,0.0415,6.63,-171.19,125.88,0.5188,-0.1239,-9.5897,9.6046
11,5,0,1,1,25.127,25127,-0.8500,-1.3300,-9.3900,9.5217,0.1680,0.1756,0.2182,9.63,-171.19,124.56,0.3385,-0.2828,-9.5634,9.5736
11,5,0,1,1,25.258,25258,-1.2500,-1.2400,-9.4200,9.5831,-0.0916,-0.0851,0.1593,9.56,-171.75,121.25,0.1291,-0.4089,-9.5445,9.5542
11,5,0,1,1,25.388,25388,-0.7900,-0.6600,-9.5600,9.6153,0.2858,-0.2629,-0.0251,8.63,-172.31,119.44,0.0080,-0.4420,-9.5466,9.5568
11,5,0,1,1,25.519,25519,-0.9000,-1.3300,-9.1900,9.3293,0.2411,-0.2945,0.1407,6.19,-174.81,118.88,-0.1116,-0.5590,-9.4996,9.5167
11,5,0,1,1,25.650,25650,-0.6300,-0.3600,-10.6400,10.6647,-0.0731,0.2214,-0.0622,6.31,-175.00,119.13,-0.1799,-0.5328,-9.6499,9.6662
11,5,0,1,1,25.781,25781,0.6700,0.5300,-11.3700,11.4020,0.4211,-0.3829,0.0109,6.19,-176.19,119.56,-0.0679,-0.3928,-9.8765,9.8846
11,5,0,1,1,25.912,25912,-0.7200,-0.4600,-9.2400,9.2794,0.7243,-0.9916,-0.0022,0.38,178.94,119.94,-0.1539,-0.4016,-9.7927,9.8021
11,5,0,1,1,26.087,26087,0.8200,0.4500,-9.9700,10.0138,0.2138,0.1604,0.1222,-2.06,174.88,119.88,-0.0255,-0.2894,-9.8160,9.8203
11,5,0,1,1,26.218,26218,1.2900,0.7600,-9.1900,9.3112,0.2094,-0.5901,-0.0207,-3.19,173.31,120.06,0.1478,-0.1511,-9.7335,9.7358
11,5,0,1,1,26.349,26349,0.4300,1.4000,-10.1200,10.2254,0.1963,0.0469,-0.2171,-5.25,171.69,121.75,0.1850,0.0533,-9.7845,9.7863
11,5,0,1,1,26.479,26479,1.5800,0.8600,-8.4900,8.6785,0.1091,-0.4331,0.0753,-5.88,170.25,121.69,0.3688,0.1596,-9.6139,9.6223
11,5,0,1,1,26.609,26609,0.6500,0.9400,-9.0700,9.1417,-0.4952,-0.0480,0.0480,-8.44,171.44,121.94,0.4059,0.2624,-9.5422,9.5544
11,5,0,1,1,26.740,26740,1.4300,1.9100,-9.6300,9.9212,-0.4243,0.5400,0.0829,-6.06,175.44,122.81,0.5408,0.4795,-9.5538,9.5811
11,5,0,1,1,26.870,26870,1.3200,0.7200,-10.3800,10.4883,-0.0709,0.1244,-0.1462,-4.06,176.81,123.56,0.6435,0.5112,-9.6627,9.6975
11,5,0,1,1,27.001,27001,1.6900,1.8000,-7.8600,8.2387,0.4712,-0.4200,-0.4091,-4.50,175.81,126.63,0.7814,0.6810,-9.4251,9.4819
11,5,0,1,1,27.173,27173,-0.0200,1.2900,-9.6100,9.6962,-0.7756,-0.0524,-0.1811,-9.19,174.06,130.44,0.6758,0.7613,-9.4495,9.5041
11,5,0,1,1,27.303,27303,2.3300,2.0000,-9.2900,9.7843,0.0458,0.4112,0.0207,-6.13,177.19,130.75,0.8938,0.9245,-9.4285,9.5157
11,5,0,1,1,27.433,27433,0.8500,-0.5800,-10.9300,10.9783,0.5029,-0.5280,0.2596,-7.44,173.50,130.19,0.8880,0.7263,-9.6263,9.6944
11,5,0,1,1,27.563,27563,1.7900,2.3200,-9.3500,9.7984,0.3142,-0.0273,0.4091,-8.75,173.00,128.63,1.0069,0.9363,-9.5899,9.6880
11,5,0,1,1,27.693,27693,2.1200,2.2700,-10.3300,10.7869,0.7472,-0.1724,0.2967,-10.00,168.88,126.00,1.1536,1.1120,-9.6874,9.8190
11,5,0,1,1,27.823,27823,2.2400,2.0500,-7.6800,8.2585,0.6850,-0.4123,0.4516,-13.31,163.56,123.56,1.2967,1.2356,-9.4229,9.5916
11,5,0,1,1,27.954,27954,1.8200,1.7800,-8.4200,8.7964,-0.3174,0.3491,0.2302,-14.63,162.25,121.94,1.3657,1.3074,-9.2907,9.4812
11,5,0,1,1,28.084,28084,3.0200,3.8500,-9.1300,10.3586,-0.1069,0.2793,0.1320,-12.25,165.19,120.75,1.5837,1.6424,-9.2696,9.5462
11,5,0,1,1,28.257,28257,2.6000,3.5100,-9.0400,10.0400,0.0884,-0.1833,-0.1102,-12.19,162.25,122.44,1.7176,1.8885,-9.2393,9.5855
11,5,0,1,1,28.387,28387,1.9000,2.3600,-8.2300,8.7700,0.4112,-0.1287,-0.0415,-13.50,159.06,123.19,1.7416,1.9506,-9.1063,9.4743
11,5,0,1,1,28.518,28518,2.7300,3.1400,-7.4600,8.5419,-0.2476,-0.0371,0.3196,-14.00,159.88,121.63,1.8719,2.1074,-8.8894,9.3255
11,5,0,1,1,28.648,28648,2.7300,3.6300,-9.0700,10.1437,-0.2574,0.4505,-0.0360,-12.81,162.63,121.75,1.9850,2.3080,-8.9132,9.4187
11,5,0,1,1,28.779,28779,3.3600,2.0400,-7.1400,8.1505,-0.0960,-0.4658,0.2018,-12.63,163.19,121.19,2.1662,2.2727,-8.6795,9.2299
11,5,0,1,1,28.910,28910,1.8900,3.9400,-9.9900,10.9039,-0.3938,0.7210,-0.0273,-13.44,167.38,121.44,2.1298,2.4924,-8.8522,9.4398
11,5,0,1,1,29.043,29043,3.1700,1.2700,-7.1600,7.9327,0.5138,-0.0382,0.0415,-9.94,165.19,120.81,2.2668,2.3313,-8.6292,9.2215
11,6,0,1,1,29.174,29174,0.9700,2.6700,-11.3800,11.7292,-0.5269,-0.0185,-0.1364,-14.44,166.81,119.19,2.0959,2.3760,-8.9917,9.5336
11,6,0,1,1,29.348,29348,3.0600,1.2000,-7.1100,7.8330,0.4069,-0.2149,0.0131,-10.50,165.50,120.19,2.2230,2.2210,-8.7437,9.2913
11,6,0,1,1,29.478,29478,1.2400,1.5800,-10.3500,10.5431,-1.1257,0.5890,-0.1811,-10.31,168.81,121.38,2.0935,2.1365,-8.9554,9.4417
11,6,0,1,1,29.609,29609,1.9800,2.9600,-8.3900,9.1145,0.1364,0.2727,-0.0905,-6.38,174.00,121.50,2.0785,2.2450,-8.8809,9.3931
11,6,0,1,1,29.739,29739,1.4000,0.9100,-9.4800,9.6259,-0.1364,0.0927,-0.0840,-5.69,172.50,120.56,1.9891,2.0691,-8.9598,9.4083
11,6,0,1,1,29.869,29869,0.4200,0.8000,-11.1600,11.1965,-0.3414,0.2138,-0.0884,-5.06,174.31,121.44,1.7823,1.9019,-9.2498,9.6100
11,6,0,1,1,30.000,30000,2.0300,1.5700,-8.4900,8.8694,-0.0382,-0.4003,0.0033,-4.25,176.56,121.06,1.8150,1.8581,-9.1496,9.5112
11,6,0,1,1,30.130,30130,-0.1900,0.0400,-10.1000,10.1019,0.0949,0.1625,-0.2443,-7.31,174.94,121.81,1.5508,1.6186,-9.2749,9.5419
11,6,0,1,1,30.261,30261,2.0900,1.1600,-8.0300,8.3782,-0.1560,0.3480,0.0185,-3.13,176.06,122.31,1.6218,1.5581,-9.1108,9.3843
11,6,0,1,1,30.433,30433,0.7900,0.3400,-11.1400,11.1732,-0.6665,0.3632,0.1538,-2.56,177.50,122.06,1.5122,1.3976,-9.3782,9.6016
11,6,0,1,1,30.563,30563,0.7500,1.0200,-8.9300,9.0193,0.3251,-0.2662,-0.1374,-1.19,179.88,121.88,1.4118,1.3479,-9.3192,9.5214
11,6,0,1,1,30.693,30693,0.3600,-0.4200,-9.4300,9.4462,0.0665,0.3862,-0.2073,-1.25,176.88,123.50,1.2732,1.1149,-9.3338,9.4859
11,6,0,1,1,30.823,30823,1.1800,0.5500,-9.0000,9.0937,-0.3927,-0.0535,0.0240,0.88,179.50,124.19,1.2609,1.0405,-9.2898,9.4325
11,6,0,1,1,30.953,30953,-0.8400,-0.5600,-11.6700,11.7136,-0.1178,0.4516,0.0316,0.25,-179.94,124.81,0.9840,0.8296,-9.6034,9.6893
11,6,0,1,1,31.083,31083,2.0200,1.7400,-9.3200,9.6938,-0.1036,0.1462,-0.1036,5.00,-176.88,124.88,1.1206,0.9495,-9.5661,9.6782
11,6,0,1,1,31.214,31214,-1.9000,-1.2100,-8.6100,8.8998,0.7429,-1.0025,0.0796,-1.38,178.31,125.06,0.7225,0.6650,-9.4401,9.4910
11,6,0,1,1,31.344,31344,-0.9400,-0.5300,-9.7000,9.7598,-0.5825,0.9894,-0.0055,-0.56,178.25,124.50,0.5034,0.5075,-9.4743,9.5013
11,6,0,1,1,31.517,31517,0.9700,0.6000,-10.4300,10.4922,-0.2302,0.0535,0.0513,5.56,-177.06,124.31,0.5649,0.5197,-9.6003,9.6309
11,6,0,1,1,31.647,31647,-0.4300,0.0100,-9.9300,9.9393,0.1767,-0.3142,-0.0218,3.88,-177.31,124.06,0.4338,0.4525,-9.6437,9.6641
11,6,0,1,1,31.778,31778,-0.6100,-0.3200,-9.2000,9.2258,0.1876,-0.0044,-0.0949,2.88,-178.69,123.56,0.2963,0.3507,-9.5853,9.5962
11,6,0,1,1,31.908,31908,-0.2500,0.0500,-9.4700,9.4734,0.1473,0.0884,-0.0545,3.19,-179.50,123.19,0.2243,0.3111,-9.5701,9.5777
11,6,0,1,1,32.039,32039,0.0600,0.0000,-10.6200,10.6202,-0.2531,0.1287,0.0065,4.19,-179.50,122.44,0.2026,0.2701,-9.7084,9.7143
11,6,0,1,1,32.170,32170,-0.3900,-0.6400,-10.0500,10.0779,-0.2596,0.1920,0.2967,4.56,-177.69,120.88,0.1245,0.1502,-9.7534,9.7554
11,6,0,1,1,32.300,32300,-0.0100,-0.0100,-10.2600,10.2600,-0.3600,0.2782,-0.2345,6.63,-175.06,120.50,0.1068,0.1291,-9.8202,9.8216
11,6,0,1,1,32.431,32431,-0.0900,0.3400,-8.8000,8.8070,0.5454,-0.4320,-0.0251,5.44,-175.56,121.44,0.0809,0.1569,-9.6858,9.6874
11,6,0,1,1,32.608,32608,-0.2100,-0.3500,-11.5700,11.5772,-0.2062,0.1909,0.1473,1.63,-179.50,119.56,0.0425,0.0901,-9.9340,9.9345
11,6,0,1,1,32.738,32738,0.2100,-0.9100,-9.1700,9.2174,0.5912,-0.3153,-0.0011,1.44,178.94,119.81,0.0646,-0.0417,-9.8334,9.8337
11,6,0,1,1,32.869,32869,-0.7900,-0.1000,-10.5500,10.5800,-0.3327,-0.0153,0.0393,-1.31,178.56,119.50,-0.0480,-0.0494,-9.9278,9.9280
11,6,0,1,1,32.999,32999,0.2400,1.2400,-9.9900,10.0695,0.2749,0.0654,-0.0371,-0.06,179.56,119.69,-0.0101,0.1205,-9.9360,9.9367
11,6,0,1,1,33.129,33129,0.5100,1.0500,-10.1300,10.1970,0.7341,-0.1080,0.0305,-0.63,175.50,119.00,0.0585,0.2430,-9.9616,9.9647
11,6,0,1,1,33.260,33260,0.6700,-1.2100,-7.9900,8.1088,0.5421,-0.6894,0.4058,-3.81,167.75,119.50,0.1391,0.0515,-9.7018,9.7029
11,6,0,1,1,33.391,33391,1.1400,2.4300,-8.8200,9.2194,-0.5825,-0.1996,-0.1178,-8.25,171.31,118.88,0.2710,0.3650,-9.5856,9.5963
11,6,0,1,1,33.521,33521,1.7600,2.0600,-6.5500,7.0883,0.5018,-0.1396,0.1538,-7.44,171.00,120.44,0.4672,0.5883,-9.1856,9.2162
11,6,0,1,1,33.694,33694,2.2100,2.5100,-8.4800,9.1156,-0.0065,-0.1691,-0.0818,-9.13,169.50,119.88,0.6968,0.8415,-9.0926,9.1580
11,6,0,1,1,33.825,33825,2.1500,2.9300,-7.8700,8.6686,0.4494,-0.1156,0.1385,-10.44,167.69,120.25,0.8883,1.1167,-8.9315,9.0448
11,7,0,1,1,33.955,33955,2.6000,1.8400,-8.7100,9.2741,-0.0480,0.3305,0.1800,-9.75,165.06,120.19,1.1139,1.2121,-8.9023,9.0532
11,7,0,1,1,34.086,34086,2.0400,2.7700,-8.7500,9.4020,0.0436,-0.0633,0.0513,-9.63,166.06,119.50,1.2359,1.4174,-8.8822,9.0791
11,7,0,1,1,34.216,34216,2.3600,2.6900,-9.0400,9.7225,0.0742,0.0044,0.0589,-9.44,165.75,119.88,1.3840,1.5851,-8.9030,9.1483
11,7,0,1,1,34.347,34347,1.8600,2.2500,-8.7000,9.1767,0.1145,-0.0971,0.0513,-10.19,164.69,120.00,1.4468,1.6727,-8.8763,9.1476
11,7,0,1,1,34.478,34478,2.3200,2.5800,-8.9600,9.6084,-0.0589,0.2149,-0.0011,-9.56,164.94,120.56,1.5618,1.7922,-8.8873,9.1998
11,7,0,1,1,34.613,34613,1.3900,2.2200,-9.7100,10.0571,-0.0993,-0.2618,0.0109,-10.19,165.38,120.31,1.5392,1.8486,-8.9957,9.3118
11,7,0,1,1,34.786,34786,1.7400,1.7500,-8.4400,8.7934,0.1080,0.1996,-0.0676,-9.44,165.31,120.00,1.5657,1.8356,-8.9225,9.2429
11,7,0,1,1,34.916,34916,1.8100,2.1700,-10.0000,10.3916,-0.4134,0.0316,-0.2073,-9.06,167.19,120.06,1.5979,1.8797,-9.0645,9.3942
11,7,0,1,1,35.046,35046,2.0500,2.5700,-8.3000,8.9273,0.1713,-0.3174,-0.2073,-9.44,168.44,121.13,1.6574,1.9706,-8.9637,9.3263
11,7,0,1,1,35.176,35176,1.5400,2.4300,-8.9000,9.3534,-0.1931,0.3142,-0.1669,-9.56,168.00,122.69,1.6420,2.0312,-8.9553,9.3284
11,7,0,1,1,35.307,35307,1.5700,2.0400,-8.5600,8.9387,0.0480,-0.0349,-0.1069,-8.31,168.06,123.25,1.6325,2.0323,-8.9032,9.2770
11,7,0,1,1,35.437,35437,1.4200,1.6800,-8.9600,9.2261,-0.2585,0.0698,0.0731,-8.19,168.88,123.00,1.6045,1.9859,-8.9107,9.2693
11,7,0,1,1,35.567,35567,1.2100,1.7300,-10.2700,10.4847,-0.1833,0.3163,0.0905,-6.94,170.88,122.19,1.5525,1.9522,-9.0898,9.4258
11,7,0,1,1,35.698,35698,1.6600,1.5700,-8.6600,8.9563,0.1593,0.0633,-0.1342,-5.06,170.94,122.25,1.5667,1.9018,-9.0332,9.3632
11,7,0,1,1,35.871,35871,0.4400,1.4000,-9.7500,9.8598,-0.2880,0.1047,-0.0469,-5.69,171.44,122.81,1.4182,1.8357,-9.1277,9.4178
11,7,0,1,1,36.002,36002,1.1200,1.7100,-9.4100,9.6295,0.0458,0.1691,0.0349,-4.50,172.88,122.38,1.3789,1.8191,-9.1649,9.4449
11,7,0,1,1,36.133,36133,1.2500,0.8400,-9.3900,9.5100,-0.0589,-0.0011,0.1614,-3.94,172.19,121.38,1.3619,1.6901,-9.1945,9.4473
11,7,0,1,1,36.266,36266,1.1600,1.0500,-9.5700,9.6971,-0.3043,0.0698,-0.0524,-4.06,174.06,121.38,1.3353,1.6058,-9.2440,9.4770
11,7,0,1,1,36.397,36397,0.1300,1.0900,-9.5100,9.5731,-0.0938,0.1833,-0.1920,-3.06,175.44,122.94,1.1765,1.5378,-9.2791,9.4789
11,7,0,1,1,36.530,36530,0.2900,0.6300,-9.7600,9.7846,-0.0556,0.4909,0.1364,-0.63,175.81,122.38,1.0597,1.4182,-9.3424,9.5087
11,7,0,1,1,36.661,36661,1.1100,1.2700,-10.0700,10.2103,-0.1156,0.0327,-0.1767,2.06,177.25,122.44,1.0663,1.3986,-9.4383,9.6008
11,7,0,1,1,36.791,36791,-0.7300,0.2200,-9.0600,9.0920,0.4123,-0.5061,-0.1451,-0.69,175.44,123.00,0.8296,1.2433,-9.3885,9.5067
11,7,0,1,1,36.964,36964,0.6500,0.6700,-10.0300,10.0733,-0.9076,-0.0884,0.1844,-2.69,178.50,118.25,0.8059,1.1678,-9.4730,9.5787
11,7,0,1,1,37.095,37095,1.1500,0.6000,-9.5200,9.6080,0.0796,0.3665,0.0338,-0.81,-178.56,119.06,0.8513,1.0930,-9.4792,9.5799
11,7,0,1,1,37.225,37225,-1.2500,-0.5600,-9.7500,9.8457,0.2934,0.4069,-0.5334,0.75,179.31,121.88,0.5744,0.8751,-9.5149,9.5723
11,7,0,1,1,37.356,37356,1.7100,0.5300,-10.0800,10.2377,-0.5247,0.3742,-0.1527,5.44,-179.00,122.75,0.7240,0.8297,-9.5893,9.6524
11,7,0,1,1,37.487,37487,-0.7500,0.6000,-9.2600,9.3097,0.4265,-0.7516,-0.2476,2.63,-178.25,123.75,0.5298,0.7994,-9.5459,9.5940
11,7,0,1,1,37.618,37618,-0.9300,-1.2300,-9.0400,9.1706,0.4156,0.2967,-0.3011,0.63,177.38,125.56,0.3374,0.5320,-9.4793,9.5002
11,7,0,1,1,37.749,37749,0.3500,0.2400,-10.3500,10.3587,-0.9283,0.2258,0.0622,3.81,-179.81,126.38,0.3391,0.4935,-9.5940,9.6127
11,7,0,1,1,37.884,37884,0.3600,0.8200,-9.7800,9.8209,0.0927,-0.4756,0.0676,2.88,-176.06,124.44,0.3418,0.5365,-9.6185,9.6395
11,7,0,1,1,38.057,38057,-0.1900,-1.2100,-9.3200,9.4001,-0.0589,-0.2182,0.1353,-1.25,-178.81,123.44,0.2718,0.3064,-9.5792,9.5879
11,7,0,1,1,38.187,38187,0.4600,-0.0900,-9.7300,9.7413,-0.4036,0.1865,0.0458,-0.56,-175.56,123.00,0.2966,0.2541,-9.5991,9.6070
11,7,0,1,1,38.317,38317,0.8300,-0.0500,-10.0800,10.1142,0.0938,0.0578,0.0415,-0.88,-176.00,122.69,0.3669,0.2141,-9.6624,9.6718
11,7,0,1,1,38.447,38447,1.3100,0.2200,-10.7700,10.8516,0.1407,-0.1069,-0.0349,-1.19,-177.31,122.94,0.4911,0.2148,-9.8084,9.8230
11,7,0,1,1,38.577,38577,1.6500,1.3500,-10.5300,10.7436,1.0025,-0.3338,-0.2803,-2.31,179.06,123.88,0.6438,0.3644,-9.9035,9.9311
11,7,0,1,1,38.707,38707,0.2400,-1.1400,-9.4400,9.5116,0.7199,-0.8410,0.4058,-7.56,170.81,124.38,0.5906,0.1662,-9.8424,9.8615
11,7,0,1,1,38.838,38838,-0.6800,-1.1400,-10.8100,10.8912,-1.4497,1.0897,0.7396,-7.31,174.81,121.88,0.4232,-0.0059,-9.9699,9.9789
11,7,0,1,1,38.968,38968,2.9100,1.6200,-10.4400,10.9584,-0.9501,0.5945,0.4178,-0.06,-175.00,119.31,0.7509,0.2083,-10.0319,10.0621
11,7,0,1,1,39.141,39141,-0.6100,0.3000,-9.1200,9.1453,1.5086,-0.4222,-0.2542,-2.13,-179.44,120.94,0.5716,0.2204,-9.9117,9.9306
11,7,0,1,1,39.271,39271,0.9400,0.0200,-8.4600,8.5121,0.7505,-0.6076,0.2487,-6.44,171.06,118.75,0.6201,0.1940,-9.7204,9.7421
11,7,0,1,1,39.402,39402,-0.2800,-0.4800,-9.9400,9.9555,-0.6141,-0.3829,0.1680,-10.19,170.19,118.50,0.5015,0.1052,-9.7493,9.7628
11,7,0,1,1,39.532,39532,2.3700,2.3800,-8.2600,8.9168,-0.4909,0.5890,-0.0218,-5.75,176.25,119.63,0.7477,0.4049,-9.5531,9.5908
11,7,0,1,1,39.663,39663,1.5100,0.4400,-12.1200,12.2216,-0.1233,-0.5280,0.0545,-7.63,175.44,119.69,0.8482,0.4096,-9.8913,9.9361
11,7,0,1,1,39.794,39794,2.3200,1.7300,-8.0200,8.5262,1.1770,-0.7385,-0.3436,-10.94,171.75,121.56,1.0421,0.5836,-9.6447,9.7184
11,7,0,1,1,39.926,39926,1.4900,3.5400,-8.5600,9.3822,0.8323,-0.6360,0.0764,-16.38,164.25,123.81,1.1011,0.9731,-9.5018,9.6148
11,7,0,1,1,40.057,40057,0.7200,1.1600,-7.5600,7.6823,1.2610,0.6152,0.1680,-17.13,154.38,122.81,1.0509,0.9978,-9.2459,9.3588
11,8,0,1,1,40.231,40231,3.2600,2.6400,-9.8400,10.6969,-1.5457,0.8672,0.0676,-9.88,162.63,116.88,1.3420,1.2142,-9.3242,9.4982
11,8,0,1,1,40.362,40362,3.4400,4.3500,-9.3600,10.8796,0.0033,-0.3272,-0.1331,-8.00,168.44,117.44,1.6185,1.6274,-9.3289,9.6071
11,8,0,1,1,40.493,40493,1.7700,1.5100,-8.4400,8.7548,0.1865,-0.5672,-0.1756,-12.06,164.25,120.06,1.6384,1.6119,-9.2118,9.4942
11,8,0,1,1,40.623,40623,1.7700,2.3500,-8.8500,9.3262,-0.3283,0.1974,-0.1113,-13.06,164.63,121.94,1.6558,1.7092,-9.1641,9.4680
11,8,0,1,1,40.753,40753,2.2000,2.6800,-10.1100,10.6881,0.2182,0.3643,-0.1582,-10.38,165.25,122.69,1.7275,1.8371,-9.2888,9.6250
11,8,0,1,1,40.884,40884,2.7800,2.7600,-6.7500,7.8044,0.2825,-0.4429,0.0109,-10.50,163.81,122.38,1.8662,1.9587,-8.9542,9.3540
11,8,0,1,1,41.014,41014,1.0900,1.4400,-9.6600,9.8274,-0.6894,0.3567,-0.2149,-11.81,163.63,124.13,1.7639,1.8904,-9.0472,9.4094
11,8,0,1,1,41.145,41145,2.3700,2.3000,-8.1500,8.7937,-0.4931,0.1789,-0.2465,-8.38,168.88,125.88,1.8438,1.9443,-8.9290,9.3224
11,8,0,1,1,41.317,41317,0.9300,0.5000,-10.0200,10.0755,-0.5345,-0.0698,0.2607,-10.00,172.44,126.13,1.7234,1.7540,-9.0728,9.4001
11,8,0,1,1,41.447,41447,2.1000,1.5100,-9.6700,10.0099,-0.3403,0.4811,0.0164,-7.31,176.75,126.13,1.7730,1.7219,-9.1515,9.4793
11,8,0,1,1,41.577,41577,1.2200,0.2600,-9.1400,9.2247,0.1298,-0.3894,0.0447,-7.94,176.75,125.94,1.7001,1.5292,-9.1499,9.4314
11,8,0,1,1,41.707,41707,0.6900,-0.2800,-9.5200,9.5491,-0.1636,0.4091,0.0502,-7.44,176.44,126.25,1.5670,1.2908,-9.1987,9.4201
11,8,0,1,1,41.837,41837,1.9200,0.1700,-9.8000,9.9878,-0.4407,0.0785,-0.0938,-4.94,179.69,125.81,1.6135,1.1431,-9.2779,9.4863
11,8,0,1,1,41.967,41967,0.6800,-0.2700,-10.0200,10.0467,0.1385,-0.2225,0.1625,-6.44,-179.88,125.94,1.4905,0.9569,-9.3757,9.5416
11,8,0,1,1,42.098,42098,1.7500,0.2200,-8.4800,8.6615,0.1440,-0.0087,-0.0840,-6.19,179.44,125.38,1.5247,0.8598,-9.2577,9.4217
11,8,0,1,1,42.228,42228,0.0200,-1.1000,-10.3500,10.4083,-0.3458,0.0862,0.1407,-7.38,179.50,125.69,1.3264,0.6016,-9.4016,9.5138
11,8,0,1,1,42.401,42401,1.0400,1.2900,-9.1600,9.3087,0.7330,0.3131,-0.1396,-2.31,-179.44,125.81,1.2887,0.6923,-9.3698,9.4833
11,8,0,1,1,42.531,42531,-0.4600,-1.0900,-9.0600,9.1369,0.6316,0.1080,-0.1953,-1.88,173.63,126.00,1.0582,0.4574,-9.3290,9.3999
11,8,0,1,1,42.662,42662,-0.2800,0.1400,-9.8000,9.8050,-0.7156,1.0352,-0.0851,2.94,175.00,126.38,0.8819,0.4156,-9.3910,9.4415
11,8,0,1,1,42.792,42792,0.0100,0.1300,-10.1000,10.1008,-0.7429,0.2083,-0.0884,7.06,-179.25,125.63,0.7670,0.3780,-9.4845,9.5229
11,8,0,1,1,42.923,42923,-0.9500,-0.3000,-10.8800,10.9255,-0.5269,-0.0676,0.0567,7.13,-174.69,125.88,0.5408,0.2886,-9.6684,9.6878
11,8,0,1,1,43.054,43054,-0.9900,-0.5600,-9.8300,9.8956,0.2847,-0.2814,-0.0109,6.25,-174.13,125.50,0.3390,0.1768,-9.6897,9.6972
11,8,0,1,1,43.184,43184,-1.9800,-1.1500,-9.2900,9.5680,0.3283,-0.0829,0.2127,4.38,-177.06,124.25,0.0334,0.0020,-9.6370,9.6371
11,8,0,1,1,43.315,43315,-0.4900,-0.9100,-9.3000,9.3573,0.0644,0.0774,0.2847,5.56,-178.38,121.19,-0.0355,-0.1182,-9.5926,9.5934
11,8,0,1,1,43.491,43491,-0.5300,-0.0600,-9.8600,9.8744,0.0491,-0.0436,0.2443,4.81,-178.81,117.56,-0.1007,-0.1105,-9.6278,9.6290
11,8,0,1,1,43.622,43622,0.0600,0.1800,-10.9000,10.9017,0.1767,0.0491,0.2334,5.06,-179.75,115.56,-0.0795,-0.0723,-9.7955,9.7961
11,8,0,1,1,43.753,43753,-0.4000,-0.3700,-8.4400,8.4576,0.4560,-0.6949,0.1189,2.88,177.50,116.00,-0.1217,-0.1115,-9.6168,9.6183
11,8,0,1,1,43.883,43883,-0.5000,-0.6700,-10.0800,10.1146,-0.2836,-0.3022,0.4745,-2.25,176.50,114.38,-0.1716,-0.1851,-9.6779,9.6812
11,8,0,1,1,44.013,44013,1.1700,1.4700,-9.6800,9.8606,0.0022,0.1724,-0.1276,-0.81,179.44,113.94,0.0052,0.0330,-9.6782,9.6782
11,8,0,1,1,44.144,44144,1.0100,-0.7200,-10.8700,10.9405,0.1200,-0.4538,0.2367,-2.75,176.63,114.00,0.1376,-0.0662,-9.8352,9.8364
11,8,0,1,1,44.274,44274,-0.2000,1.6400,-8.3300,8.4923,0.4254,0.0785,-0.5760,-3.13,176.94,116.00,0.0931,0.1586,-9.6369,9.6386
11,8,0,1,1,44.405,44405,0.2000,-0.8000,-10.6900,10.7218,-0.2269,0.1734,0.0796,-2.44,173.50,116.44,0.1072,0.0323,-9.7756,9.7763
11,8,0,1,1,44.577,44577,2.1300,1.1000,-10.1500,10.4293,0.1342,-0.1407,0.1113,0.06,177.25,116.25,0.3738,0.1730,-9.8250,9.8336
11,8,0,1,1,44.707,44707,0.7700,0.1900,-10.2700,10.3006,0.5956,-1.0592,-0.0458,-6.63,173.94,115.75,0.4260,0.1752,-9.8836,9.8943
11,9,0,1,1,44.837,44837,0.4200,0.6300,-9.0200,9.0517,0.1560,-0.0676,-0.3709,-10.13,171.13,118.25,0.4252,0.2352,-9.7698,9.7819
11,9,0,1,1,44.967,44967,2.0500,0.9700,-8.2600,8.5657,-0.1996,-0.3033,-0.0327,-10.19,171.63,119.19,0.6393,0.3320,-9.5709,9.5979
11,9,0,1,1,45.097,45097,1.5600,0.8000,-10.0600,10.2116,-0.8770,-0.1669,0.2629,-13.69,176.31,117.13,0.7606,0.3937,-9.6353,9.6733
11,9,0,1,1,45.227,45227,-0.0300,2.8900,-9.2500,9.6910,1.2501,0.9501,-1.0723,-10.25,175.94,120.56,0.6564,0.7226,-9.5845,9.6341
11,9,0,1,1,45.358,45358,3.1000,0.1800,-10.6500,11.0935,-0.0022,0.1091,0.1254,-5.00,168.75,121.19,0.9784,0.6511,-9.7249,9.7957
11,9,0,1,1,45.488,45488,0.1300,1.5000,-9.8100,9.9249,0.3131,-0.8018,0.0905,-8.44,168.63,122.00,0.8666,0.7630,-9.7361,9.8044
11,9,0,1,1,45.661,45661,2.3400,1.1000,-8.0700,8.4741,0.1691,0.1407,0.2127,-9.63,167.75,119.75,1.0608,0.8074,-9.5166,9.6095
11,9,0,1,1,45.791,45791,1.5700,1.8400,-10.6700,10.9407,-1.0363,-0.4123,0.1942,-12.56,171.50,117.81,1.1279,0.9435,-9.6686,9.7798
11,9,0,1,1,45.922,45922,3.1300,2.5300,-9.2600,10.0968,0.6567,-0.0774,-0.2465,-11.81,171.81,120.13,1.3917,1.1525,-9.6147,9.7831
11,9,0,1,1,46.052,46052,1.6600,0.9700,-7.8800,8.1112,0.5727,-0.6949,0.0851,-15.38,165.63,121.50,1.4271,1.1285,-9.3861,9.5608
11,9,0,1,1,46.183,46183,2.8300,3.2300,-9.7800,10.6813,-0.0545,0.3611,0.2498,-16.63,164.88,121.63,1.6119,1.4054,-9.4380,9.6773
11,9,0,1,1,46.314,46314,2.7700,2.4900,-7.9100,8.7431,0.8650,-0.3142,0.3796,-17.06,162.44,118.00,1.7645,1.5483,-9.2367,9.5303
11,9,0,1,1,46.447,46447,2.7200,2.0900,-7.9400,8.6493,-0.2356,0.4123,0.1200,-16.94,160.50,116.63,1.8904,1.6197,-9.0658,9.4014
11,9,0,1,1,46.578,46578,3.0100,2.9700,-9.3200,10.2344,-0.3425,0.0000,-0.1527,-15.75,163.25,116.94,2.0380,1.7976,-9.0993,9.4964
11,9,0,1,1,46.751,46751,2.6500,2.4900,-8.2200,8.9884,0.3534,-0.0687,0.2083,-16.19,163.38,116.69,2.1186,1.8889,-8.9834,9.4212
11,9,0,1,1,46.882,46882,3.0400,2.6400,-8.9300,9.7957,-0.1963,0.2803,-0.0240,-15.44,163.31,115.81,2.2400,1.9879,-8.9764,9.4628
11,9,0,1,1,47.012,47012,2.5600,2.5300,-8.1800,8.9368,0.1647,-0.0589,0.0251,-14.81,163.56,116.25,2.2822,2.0593,-8.8715,9.3889
11,9,0,1,1,47.143,47143,2.5000,2.1300,-8.6900,9.2899,-0.1102,0.2585,0.0360,-14.94,163.19,115.13,2.3109,2.0686,-8.8475,9.3754
11,9,0,1,1,47.273,47273,2.7400,2.0100,-8.5200,9.1727,-0.1505,0.0229,-0.1713,-13.81,164.38,115.75,2.3674,2.0609,-8.8044,9.3471
11,9,0,1,1,47.403,47403,1.5200,2.4200,-8.4500,8.9202,-0.2149,0.1462,-0.0851,-13.94,166.06,116.56,2.2558,2.1082,-8.7577,9.2860
11,9,0,1,1,47.534,47534,1.9100,1.8300,-8.5300,8.9307,-0.1822,0.2629,-0.1374,-12.56,167.44,116.75,2.2102,2.0715,-8.7277,9.2384
11,9,0,1,1,47.665,47665,1.6400,1.5700,-10.9700,11.2025,-0.6370,0.4538,-0.0316,-9.56,170.25,117.56,2.1351,2.0055,-9.0232,9.4867
11,9,0,1,1,47.837,47837,1.7400,0.4400,-8.2100,8.4039,0.0338,-0.6796,-0.0949,-10.69,172.19,117.56,2.0830,1.7992,-8.9160,9.3312
11,9,0,1,1,47.968,47968,1.6300,0.9800,-10.2600,10.4348,-0.8628,0.0295,-0.1745,-12.94,175.69,119.38,2.0233,1.6912,-9.0931,9.4678
11,9,0,1,1,48.098,48098,1.7500,0.6900,-10.1300,10.3032,-0.1014,-0.2509,-0.1527,-12.88,178.81,121.19,1.9873,1.5593,-9.2297,9.5692
11,9,0,1,1,48.229,48229,0.9600,1.1200,-9.3200,9.4360,0.7101,0.5847,-0.1516,-12.69,176.25,121.31,1.8519,1.5014,-9.2416,9.5442
11,9,0,1,1,48.359,48359,2.0900,0.2200,-8.7500,8.9988,0.2694,0.4134,0.0905,-7.63,171.63,121.13,1.8833,1.3325,-9.1769,9.4624
11,9,0,1,1,48.490,48490,0.5800,1.0400,-8.7800,8.8604,-0.2509,-0.3229,0.0829,-8.50,172.94,120.69,1.7116,1.2940,-9.1246,9.3734
11,9,0,1,1,48.621,48621,0.4800,1.1300,-10.9000,10.9689,-0.1920,0.7341,0.2574,-7.63,174.75,119.50,1.5493,1.2724,-9.3585,9.5708
11,9,0,1,1,48.753,48753,2.1100,0.8500,-8.5100,8.8088,0.3327,0.2040,-0.1156,-2.69,174.25,118.56,1.6232,1.2167,-9.2467,9.4666
11,9,0,1,1,48.926,48926,-0.5400,-0.5500,-10.2200,10.2490,-0.7745,-0.1309,-0.0164,-6.00,175.13,118.88,1.3381,0.9839,-9.3750,9.5210
11,9,0,1,1,49.058,49058,0.6200,0.8400,-9.9800,10.0345,-0.5345,0.5072,-0.1102,-2.94,-178.50,118.38,1.2435,0.9650,-9.4547,9.5848
11,9,0,1,1,49.188,49188,0.1800,-0.7800,-10.5000,10.5305,-0.1036,-0.0153,0.0305,-2.25,-177.75,118.00,1.1033,0.7350,-9.5924,9.6836
11,9,0,1,1,49.319,49319,1.4100,0.1200,-10.4000,10.4958,-0.3818,-0.0033,0.0774,-1.00,-174.81,116.44,1.1438,0.6540,-9.6989,9.7879
11,10,0,1,1,49.450,49450,0.0600,-0.6900,-9.6000,9.6250,0.4167,-0.4843,-0.0349,-3.56,-175.44,116.31,1.0009,0.4769,-9.6858,9.7491
11,10,0,1,1,49.580,49580,0.2400,-1.1100,-9.4000,9.4684,0.1396,0.2356,-0.0469,-4.13,-178.19,116.00,0.9007,0.2678,-9.6482,9.6938
11,10,0,1,1,49.710,49710,1.0500,-0.4600,-9.5900,9.6583,-0.3043,0.0338,0.0447,-3.19,-176.94,116.19,0.9203,0.1719,-9.6405,9.6859
11,10,0,1,1,49.841,49841,0.0600,-0.1900,-9.1100,9.1122,0.4527,0.0611,0.0654,-2.94,-177.38,115.44,0.8070,0.1242,-9.5706,9.6054
11,10,0,1,1,50.014,50014,0.3400,-0.7900,-10.1500,10.1864,-0.6480,0.2149,0.1462,-2.06,-177.06,113.81,0.7454,0.0037,-9.6469,9.6757
11,10,0,1,1,50.145,50145,1.1800,-0.2000,-10.1800,10.2501,-0.1549,-0.2040,-0.0491,-1.63,-173.75,112.56,0.8027,-0.0231,-9.7172,9.7503
11,10,0,1,1,50.276,50276,-0.0700,-0.7400,-9.5400,9.5689,0.4985,-0.3862,-0.2214,-4.69,-175.56,113.44,0.6877,-0.1176,-9.6938,9.7189
11,10,0,1,1,50.408,50408,0.0900,-0.6900,-10.1900,10.2137,0.2487,0.5389,-0.3207,-3.81,-178.69,115.38,0.6089,-0.1930,-9.7592,9.7801
11,10,0,1,1,50.539,50539,0.1700,-0.5700,-10.3800,10.3970,-0.1331,0.3894,0.4680,0.00,-178.94,115.44,0.5511,-0.2427,-9.8410,9.8594
11,10,0,1,1,50.673,50673,0.0700,0.1500,-10.7000,10.7013,0.1582,-0.4505,0.0415,-0.38,-178.31,114.25,0.4877,-0.1910,-9.9542,9.9680
11,10,0,1,1,50.804,50804,-0.1300,-0.2900,-9.7700,9.7752,0.5018,-0.2803,0.0676,-3.56,177.81,115.06,0.4063,-0.2040,-9.9299,9.9403
11,10,0,1,1,50.934,50934,0.3300,-0.4600,-9.4300,9.4470,-0.0960,-0.0425,0.1494,-4.44,176.19,115.56,0.3963,-0.2377,-9.8641,9.8749
11,10,0,1,1,51.107,51107,0.3200,0.4000,-9.2400,9.2542,-0.0862,0.2345,0.0164,-2.94,179.06,114.31,0.3862,-0.1537,-9.7818,9.7907
11,10,0,1,1,51.238,51238,1.2700,0.1300,-9.4400,9.5259,-0.0753,-0.0742,0.5443,-2.38,179.31,112.19,0.5027,-0.1163,-9.7368,9.7504
11,10,0,1,1,51.368,51368,0.8000,0.5900,-9.6400,9.6911,0.6185,-0.1451,-0.3545,-3.75,177.81,111.06,0.5418,-0.0232,-9.7240,9.7391
11,10,0,1,1,51.499,51499,-0.0900,-0.5500,-8.4000,8.4185,0.5541,-0.4112,-0.1680,-5.94,172.50,112.81,0.4586,-0.0927,-9.5496,9.5610
11,10,0,1,1,51.630,51630,1.1600,1.7400,-8.4900,8.7438,-0.8236,0.0829,-0.2760,-6.31,174.50,114.06,0.5510,0.1488,-9.4099,9.4272
11,10,0,1,1,51.762,51762,0.7800,-0.0800,-11.2700,11.2972,0.6032,-0.1200,-0.0665,-6.56,174.50,116.38,0.5812,0.1187,-9.6550,9.6732
11,10,0,1,1,51.893,51893,1.6700,2.4500,-9.2900,9.7517,0.3687,-0.4887,0.2607,-7.94,173.44,116.44,0.7247,0.4259,-9.6069,9.6436
11,10,0,1,1,52.027,52027,0.9400,1.2300,-9.0400,9.1716,0.9054,-0.4680,0.5367,-12.19,168.06,114.25,0.7530,0.5319,-9.5322,9.5767
11,10,0,1,1,52.200,52200,2.8900,2.3100,-7.6600,8.5067,0.7123,0.0055,0.6196,-15.88,163.50,106.88,1.0346,0.7662,-9.2855,9.3743
11,10,0,1,1,52.330,52330,2.9100,1.2800,-8.1700,8.7667,-0.5171,0.1996,-0.0436,-15.88,162.81,104.13,1.2818,0.8339,-9.1385,9.2656
11,10,0,1,1,52.460,52460,3.1100,3.6000,-9.6400,10.7500,-0.1658,0.4276,-0.3611,-12.63,166.94,106.00,1.5227,1.1984,-9.2046,9.4063
11,10,0,1,1,52.590,52590,3.1800,3.0200,-9.1500,10.1467,0.4091,-0.4658,0.1036,-12.31,165.13,107.13,1.7411,1.4384,-9.1974,9.4706
11,10,0,1,1,52.720,52720,2.4300,1.7700,-7.6500,8.2195,0.3163,-0.6709,0.1233,-17.00,161.13,107.06,1.8319,1.4821,-8.9935,9.2971
11,10,0,1,1,52.850,52850,1.4700,2.5500,-8.7100,9.1939,-0.6960,0.2651,-0.1069,-18.88,163.19,108.00,1.7842,1.6228,-8.9561,9.2752
11,10,0,1,1,52.981,52981,3.5600,2.7700,-8.9700,10.0403,-0.2891,0.7745,-0.0535,-13.56,167.19,108.69,2.0182,1.7740,-8.9580,9.3523
11,10,0,1,1,53.111,53111,3.1200,2.5200,-9.3400,10.1647,0.2051,-0.6807,-0.1636,-13.31,167.06,109.69,2.1634,1.8723,-9.0083,9.4517
11,10,0,1,1,53.284,53284,1.3600,1.4800,-8.4200,8.6566,-0.4178,0.2378,-0.0982,-17.31,166.50,111.19,2.0575,1.8206,-8.9308,9.3438
11,10,0,1,1,53.414,53414,2.4600,2.4200,-9.4700,10.0791,-0.5072,0.7843,-0.2618,-11.63,171.19,112.38,2.1105,1.8996,-9.0018,9.4391
11,10,0,1,1,53.545,53545,2.6600,2.1000,-9.7300,10.3033,0.1865,-0.0087,0.1298,-9.56,171.75,112.06,2.1829,1.9260,-9.0978,9.5522
11,10,0,1,1,53.675,53675,1.8300,1.8200,-9.1700,9.5263,0.3829,-0.2345,-0.0960,-11.06,168.88,111.81,2.1364,1.9120,-9.1073,9.5479
11,10,0,1,1,53.806,53806,0.7400,1.5000,-8.5800,8.7415,0.4222,0.4287,-0.2051,-10.25,165.44,113.00,1.9524,1.8577,-9.0378,9.4311
11,10,0,1,1,53.937,53937,1.6700,0.4500,-8.8000,8.9684,-0.7778,0.2771,0.2073,-7.19,166.38,112.19,1.9152,1.6722,-9.0065,9.3585
11,10,0,1,1,54.069,54069,0.6100,2.3900,-10.0800,10.3774,-0.7996,0.3643,-0.0589,-5.69,173.75,111.75,1.7432,1.7668,-9.1479,9.4787
11,10,0,1,1,54.200,54200,1.6200,1.5300,-9.4900,9.7481,0.1811,0.4254,-0.0327,-1.94,175.13,111.69,1.7270,1.7356,-9.1930,9.5135
11,10,0,1,1,54.374,54374,0.0100,-0.6700,-9.4600,9.4837,-0.5029,-0.7570,0.0207,-6.00,174.50,111.50,1.5007,1.4186,-9.2282,9.4564
11,10,0,1,1,54.504,54504,0.6700,1.0800,-10.5500,10.6263,-0.6654,0.9218,-0.0785,-4.69,179.44,111.56,1.3913,1.3740,-9.4024,9.6036
11,10,0,1,1,54.635,54635,1.7400,-0.4900,-8.2400,8.4360,0.1789,-0.3687,-0.1418,-1.19,-179.50,112.81,1.4372,1.1284,-9.2492,9.4280
11,10,0,1,1,54.766,54766,-1.1300,-1.1200,-9.7300,9.8592,-0.3153,-0.1527,0.0164,-5.50,-178.94,112.88,1.0989,0.8321,-9.3126,9.4140
11,10,0,1,1,54.896,54896,0.4700,0.2600,-10.2200,10.2341,-0.2694,0.9545,-0.2247,-0.69,-176.00,113.75,1.0160,0.7567,-9.4321,9.5168
11,10,0,1,1,55.027,55027,-0.1000,0.1300,-10.1800,10.1813,0.7745,0.4952,-0.3883,3.88,-178.63,115.81,0.8690,0.6741,-9.5307,9.5939
11,10,0,1,1,55.157,55157,-0.6500,-1.1700,-9.4000,9.4948,0.0491,0.0491,-0.0764,5.81,177.75,117.94,0.6688,0.4311,-9.5135,9.5467
11,10,0,1,1,55.288,55288,-0.3800,0.2900,-10.7500,10.7606,-0.7199,0.0916,0.1058,5.94,-178.13,116.81,0.5306,0.4125,-9.6764,9.6997
11,10,0,1,1,55.460,55460,0.0000,-0.4300,-9.7400,9.7495,0.2749,-0.4342,-0.1244,5.13,-176.94,117.50,0.4607,0.3015,-9.6848,9.7004
11,10,0,1,1,55.590,55590,-1.0800,-0.9000,-8.7100,8.8227,0.0382,-0.7330,0.1865,-0.31,-178.19,116.63,0.2577,0.1432,-9.5563,9.5609
11,10,0,1,1,55.720,55720,-0.3300,-0.0700,-9.3500,9.3561,0.2203,0.0938,0.1374,-2.44,-178.75,115.31,0.1802,0.1151,-9.5291,9.5315
11,10,0,1,1,55.850,55850,1.4600,0.0000,-10.8200,10.9181,0.0545,0.4396,-0.0251,0.94,179.94,115.25,0.3489,0.0999,-9.6992,9.7060
11,10,0,1,1,55.980,55980,1.0700,0.5200,-9.2900,9.3659,0.1887,-0.5171,0.1167,0.13,179.50,114.81,0.4439,0.1553,-9.6453,9.6568
11,10,0,1,1,56.110,56110,-0.5800,0.1100,-9.8500,9.8677,0.3272,-0.3992,-0.0796,-4.75,177.19,114.38,0.3090,0.1493,-9.6723,9.6784
11,10,0,1,1,56.240,56240,1.1000,0.8800,-10.1500,10.2473,0.1604,0.7505,-0.1004,-2.25,176.00,115.50,0.4132,0.2456,-9.7352,9.7471
11,10,0,1,1,56.371,56371,2.3200,0.9500,-9.9000,10.2125,0.1909,-0.1374,0.1276,1.13,174.63,115.94,0.6645,0.3384,-9.7570,9.7854
11,11,0,1,1,56.544,56544,-0.0100,0.1200,-9.6500,9.6508,0.0589,-0.9403,-0.0524,-5.75,172.56,117.19,0.5756,0.3096,-9.7429,9.7648
11,11,0,1,1,56.674,56674,1.0200,0.1800,-9.7500,9.8049,-0.6327,0.1124,-0.0305,-8.88,174.06,118.69,0.6342,0.2926,-9.7438,9.7688
11,11,0,1,1,56.805,56805,1.3800,0.3200,-9.2700,9.3776,-0.3982,0.5181,-0.2760,-5.94,178.56,120.50,0.7324,0.2962,-9.6814,9.7135
11,11,0,1,1,56.935,56935,0.2000,0.2800,-9.4000,9.4063,0.0338,0.0371,-0.0753,-4.31,179.13,122.94,0.6623,0.2940,-9.6443,9.6715
11,11,0,1,1,57.066,57066,1.5300,1.8700,-9.7500,10.0449,0.6850,0.0502,0.4440,-3.69,177.06,121.63,0.7766,0.5017,-9.6582,9.7024
11,11,0,1,1,57.197,57197,2.7000,2.1200,-8.2700,8.9542,1.3057,-1.2937,0.0807,-8.31,169.56,119.00,1.0301,0.7150,-9.4753,9.5579
11,11,0,1,1,57.333,57333,0.5100,0.2500,-6.4700,6.4949,0.6567,-0.6698,0.0840,-17.50,160.44,118.88,0.9615,0.6537,-9.0793,9.1534
11,11,0,1,1,57.464,57464,3.0800,2.8200,-9.9500,10.7908,-0.9774,0.9610,0.1091,-14.88,165.06,117.31,1.2407,0.9392,-9.1940,9.3248
11,11,0,1,1,57.636,57636,2.4100,1.2900,-8.6100,9.0335,0.7854,-0.2814,0.4123,-9.44,165.75,118.06,1.3948,0.9854,-9.1170,9.2756
11,11,0,1,1,57.766,57766,1.9700,3.0300,-8.8000,9.5132,-0.1058,-0.2193,0.0262,-13.69,165.63,116.19,1.4706,1.2548,-9.0753,9.2789
11,11,0,1,1,57.897,57897,2.5800,2.3900,-8.5200,9.2173,0.1756,0.1920,-0.1156,-12.88,164.44,116.81,1.6168,1.4044,-9.0021,9.2533
11,11,0,1,1,58.028,58028,2.9300,2.3700,-9.6800,10.3877,-0.3916,0.0469,0.0404,-12.25,164.00,117.13,1.7898,1.5316,-9.0914,9.3917
11,11,0,1,1,58.159,58159,2.2800,2.5900,-8.5300,9.2015,0.2531,-0.2531,-0.0109,-12.63,164.50,118.69,1.8544,1.6711,-9.0174,9.3566
11,11,0,1,1,58.289,58289,2.0700,2.3300,-8.7300,9.2697,-0.2596,-0.0087,-0.0109,-13.81,164.25,118.88,1.8828,1.7579,-8.9796,9.3417
11,11,0,1,1,58.420,58420,2.3400,2.6900,-8.8300,9.5226,-0.3774,0.3774,-0.2869,-11.81,166.56,120.56,1.9431,1.8808,-8.9599,9.3591
11,11,0,1,1,58.551,58551,2.3000,1.1700,-8.9100,9.2762,-0.1058,-0.1538,0.0240,-9.88,167.19,122.56,1.9901,1.7871,-8.9533,9.3443
11,11,0,1,1,58.727,58727,2.6600,2.3700,-9.0000,9.6795,0.0469,0.3207,0.0545,-9.56,170.13,123.25,2.0784,1.8639,-8.9594,9.3843
11,11,0,1,1,58.857,58857,1.7000,1.0600,-8.2700,8.5092,0.0884,-0.2607,0.2073,-10.19,168.63,122.88,2.0285,1.7580,-8.8686,9.2659
11,11,0,1,1,58.988,58988,1.2000,1.2100,-9.3200,9.4745,-0.3949,0.2422,0.1200,-10.81,170.88,121.69,1.9193,1.6858,-8.9281,9.2863
11,11,0,1,1,59.118,59118,2.1800,1.3900,-9.7100,10.0483,-0.3305,0.5836,0.3731,-7.56,173.81,120.06,1.9537,1.6468,-9.0311,9.3856
11,11,0,1,1,59.249,59249,1.6900,0.3300,-8.8800,9.0454,0.1091,-0.3698,0.0862,-7.13,174.19,118.38,1.9189,1.4733,-9.0112,9.3303
11,11,0,1,1,59.380,59380,0.7900,0.2500,-9.6500,9.6855,-0.6501,0.1374,0.0862,-9.00,176.56,117.19,1.7702,1.3121,-9.0954,9.3585
11,11,0,1,1,59.510,59510,1.1000,1.2500,-9.3600,9.5069,0.1145,0.5661,-0.0982,-5.44,178.75,117.88,1.6819,1.3039,-9.1302,9.3750
11,11,0,1,1,59.640,59640,1.2700,-1.1400,-10.6700,10.8056,-0.3251,0.0753,-0.0011,-3.19,178.56,118.31,1.6276,0.9819,-9.3331,9.5247
11,11,0,1,1,59.813,59813,1.9800,0.5500,-8.7100,8.9491,0.2531,-0.4178,0.0076,-2.75,-177.56,117.31,1.6740,0.9249,-9.2510,9.4467
11,11,0,1,1,59.943,59943,0.0100,-1.4500,-8.5900,8.7115,-0.0273,-0.9861,0.3447,-9.75,-179.38,115.50,1.4548,0.6120,-9.1639,9.2988
11,11,0,1,1,60.073,60073,0.4400,0.1100,-9.7600,9.7705,-0.3229,0.8607,-0.1778,-9.50,-176.88,114.56,1.3210,0.5458,-9.2425,9.3523
11,11,0,1,1,60.203,60203,1.2100,-0.1200,-10.1700,10.2424,0.3687,0.8803,-0.3131,-2.19,-177.06,116.31,1.3064,0.4581,-9.3647,9.4665
11,11,0,1,1,60.333,60333,0.6600,0.4900,-9.9700,10.0038,0.3763,0.5432,-0.2989,2.75,-179.50,117.94,1.2212,0.4623,-9.4445,9.5343
11,11,0,1,1,60.463,60463,-1.1700,-0.4000,-9.0000,9.0845,0.6949,0.0480,-0.2760,4.19,176.31,120.00,0.9061,0.3487,-9.3859,9.4360
11,11,0,1,1,60.593,60593,-0.3200,-1.6900,-9.1000,9.2611,-0.7701,-0.2891,0.3927,3.38,175.69,118.25,0.7445,0.0800,-9.3482,9.3782
11,11,0,1,1,60.724,60724,0.2100,1.4800,-11.5100,11.6067,-0.9458,0.1211,0.1364,2.56,-175.69,114.38,0.6741,0.2645,-9.6331,9.6603
11,11,0,1,1,60.897,60897,0.7000,-0.7400,-9.4100,9.4650,0.6981,-0.4952,-0.0709,2.19,-177.38,115.00,0.6775,0.1321,-9.6037,9.6285
11,11,0,1,1,61.028,61028,-0.7400,-0.1600,-9.4800,9.5102,0.1549,-0.1833,-0.1669,-1.13,179.56,115.19,0.4907,0.0936,-9.5874,9.6004
11,11,0,1,1,61.159,61159,0.0600,-0.7100,-9.0100,9.0381,0.1789,-0.0033,-0.0022,-1.25,178.50,116.00,0.4340,-0.0123,-9.5113,9.5212
11,11,0,1,1,61.291,61291,0.3700,0.2800,-10.4600,10.4703,-0.3382,0.2476,0.0393,-0.44,179.38,115.75,0.4255,0.0263,-9.6363,9.6457
11,11,0,1,1,61.422,61422,1.3400,0.9300,-10.2800,10.4086,0.1996,-0.0284,-0.0873,0.88,-179.69,115.81,0.5460,0.1453,-9.7211,9.7375
11,11,0,1,1,61.556,61556,0.3400,-0.6700,-9.7800,9.8088,0.5138,-0.3982,-0.0098,-1.31,176.69,115.63,0.5189,0.0379,-9.7289,9.7428
11,11,0,1,1,61.687,61687,0.3700,0.0600,-9.7300,9.7372,-0.3545,0.0218,-0.0382,-2.69,177.25,114.63,0.4993,0.0408,-9.7290,9.7419
11,11,0,1,1,61.817,61817,-0.8400,0.3500,-10.3000,10.3401,-0.2509,0.3185,-0.1778,-1.31,178.75,115.25,0.3228,0.0816,-9.8043,9.8099
11,11,0,1,1,61.990,61990,1.2400,-1.5200,-8.3900,8.6163,-0.3851,-0.5640,0.5792,-1.06,179.75,112.75,0.4437,-0.1295,-9.6179,9.6290
11,11,0,1,1,62.121,62121,1.5700,0.0500,-9.9700,10.0930,-1.4028,-0.5520,0.8258,-6.38,-172.75,107.94,0.5921,-0.1058,-9.6643,9.6830
11,11,0,1,1,62.251,62251,0.7400,1.5800,-10.7700,10.9104,1.3984,0.2433,-0.5400,-7.44,-171.69,108.56,0.6116,0.1163,-9.8100,9.8297
11,11,0,1,1,62.382,62382,0.8800,-2.0300,-9.2300,9.4915,1.3570,0.1844,-0.1516,-5.50,174.69,110.38,0.6469,-0.1665,-9.7336,9.7565
11,11,0,1,1,62.513,62513,1.2000,1.2200,-10.5200,10.6583,-0.1734,0.6763,-0.3458,-3.25,173.06,109.63,0.7198,0.0162,-9.8372,9.8635
11,12,0,1,1,62.645,62645,2.0600,0.8300,-8.3400,8.6306,0.4025,-0.6970,-0.3076,-1.44,171.06,113.50,0.8964,0.1234,-9.6399,9.6823
11,12,0,1,1,62.776,62776,0.8000,1.5400,-8.6100,8.7831,0.0055,-1.1508,-0.2640,-9.94,169.94,115.19,0.8837,0.3101,-9.5042,9.5502
11,12,0,1,1,62.910,62910,0.9000,1.5600,-9.0200,9.1980,0.0087,0.0611,-0.0447,-12.44,168.94,118.69,0.8859,0.4748,-9.4404,9.4937
11,12,0,1,1,63.083,63083,2.3000,2.5600,-7.3500,8.1158,0.9370,0.4636,0.3109,-9.88,166.00,115.00,1.0722,0.7496,-9.1649,9.2578
11,12,0,1,1,63.213,63213,2.6700,2.2300,-9.3800,10.0043,-0.5061,0.2531,0.4952,-8.25,164.31,110.63,1.2828,0.9447,-9.1933,9.3303
11,12,0,1,1,63.343,63343,2.4200,2.7000,-8.7700,9.4900,0.6370,-0.4069,-0.1418,-9.63,164.38,108.75,1.4326,1.1760,-9.1375,9.3236
11,12,0,1,1,63.473,63473,1.8700,2.8200,-8.6100,9.2510,0.0425,-0.1854,-0.0687,-12.06,162.19,109.44,1.4903,1.3926,-9.0680,9.2945
11,12,0,1,1,63.603,63603,2.0400,2.1000,-8.6900,9.1699,-0.1702,0.1778,0.0022,-11.31,161.81,110.75,1.5627,1.4858,-9.0182,9.2724
11,12,0,1,1,63.733,63733,2.2000,3.3400,-9.1100,9.9493,-0.0960,0.1636,0.0644,-10.63,163.81,110.00,1.6467,1.7302,-9.0303,9.3408
11,12,0,1,1,63.864,63864,2.1900,2.3700,-8.8300,9.4012,0.0469,-0.0153,0.1233,-10.19,163.13,109.50,1.7183,1.8145,-9.0039,9.3442
11,12,0,1,1,63.994,63994,2.1900,2.5300,-8.6600,9.2840,-0.2171,-0.0284,-0.0469,-11.06,164.06,109.75,1.7804,1.9088,-8.9586,9.3311
11,12,0,1,1,64.167,64167,2.4800,1.2400,-8.3400,8.7888,-0.1734,0.0229,0.2814,-10.94,164.75,109.88,1.8726,1.8206,-8.8771,9.2533
11,12,0,1,1,64.297,64297,2.2500,2.8500,-8.7500,9.4735,-0.5934,-0.0644,-0.2105,-11.75,168.88,110.13,1.9223,1.9563,-8.8603,9.2751
11,12,0,1,1,64.428,64428,1.5800,2.0900,-9.6700,10.0187,-0.0676,-0.0851,-0.1222,-11.75,169.88,112.25,1.8772,1.9739,-8.9670,9.3716
11,12,0,1,1,64.558,64558,1.7200,1.6700,-8.7000,9.0243,0.1396,0.2203,0.1745,-11.63,169.50,111.50,1.8565,1.9339,-8.9318,9.3254
11,12,0,1,1,64.689,64689,2.3000,1.2100,-8.8400,9.2141,-0.1287,0.2771,-0.1560,-9.19,169.63,111.44,1.9150,1.8385,-8.9197,9.3064
11,12,0,1,1,64.820,64820,1.4800,1.3600,-9.0400,9.2608,-0.4123,-0.3131,0.1385,-10.00,172.06,111.13,1.8576,1.7754,-8.9356,9.2977
11,12,0,1,1,64.950,64950,1.6000,0.7700,-9.5900,9.7530,-0.1931,0.3229,-0.0065,-10.00,174.38,110.88,1.8237,1.6429,-9.0218,9.3498
11,12,0,1,1,65.081,65081,1.7800,0.6700,-9.6200,9.8062,-0.3011,0.0545,0.0185,-7.94,175.81,111.19,1.8179,1.5147,-9.1006,9.4032
11,12,0,1,1,65.257,65257,0.7700,0.0300,-9.7500,9.7804,-0.3011,-0.0316,-0.2083,-8.50,177.88,113.19,1.6798,1.3191,-9.1862,9.4312
11,12,0,1,1,65.388,65388,1.2100,0.4900,-10.0700,10.1543,-0.0894,0.3927,-0.1484,-6.69,179.56,113.94,1.6179,1.2098,-9.3027,9.5195
11,12,0,1,1,65.519,65519,1.0900,-0.7800,-9.2700,9.3664,0.0949,0.0589,-0.0916,-4.56,178.69,115.25,1.5484,0.9476,-9.2984,9.4739
11,12,0,1,1,65.649,65649,0.2500,0.0900,-10.1300,10.1335,-0.2498,0.1287,0.0796,-4.81,179.44,115.38,1.3773,0.8346,-9.4080,9.5448
11,12,0,1,1,65.779,65779,1.2200,0.4900,-9.7400,9.8283,0.0185,0.4712,-0.1451,-1.31,-179.81,115.63,1.3565,0.7892,-9.4517,9.5811
11,12,0,1,1,65.910,65910,-0.0600,-0.6300,-9.0300,9.0521,0.1527,-0.1538,0.0207,-1.00,178.69,116.13,1.1699,0.6022,-9.3961,9.4878
11,12,0,1,1,66.040,66040,0.1800,-0.3100,-10.5000,10.5061,-0.6632,0.5541,0.1516,0.63,-178.63,114.56,1.0394,0.4820,-9.5416,9.6101
11,12,0,1,1,66.171,66171,1.1100,0.0900,-9.1600,9.2274,-0.0513,-0.2902,0.1178,2.31,-175.75,112.69,1.0487,0.4303,-9.4913,9.5588
11,12,0,1,1,66.344,66344,0.1600,-0.7400,-11.2000,11.2256,-0.5094,-0.0295,-0.0600,-1.31,-175.06,111.00,0.9316,0.2761,-9.7165,9.7649
11,13,0,1,1,66.475,66475,0.5600,0.3400,-9.2000,9.2233,0.5923,-0.1167,-0.4472,-0.88,-174.56,113.06,0.8827,0.2845,-9.6484,9.6929
11,13,0,1,1,66.605,66605,-0.8200,-2.0000,-8.7600,9.0227,0.4178,-0.1342,0.0447,-2.88,179.81,114.00,0.6583,-0.0165,-9.5313,9.5541
11,13,0,1,1,66.736,66736,0.3000,-0.2400,-9.4300,9.4378,-0.5301,0.4996,-0.0807,-0.63,-178.25,113.75,0.6111,-0.0460,-9.5180,9.5377
11,13,0,1,1,66.866,66866,0.4800,-0.6400,-9.9300,9.9622,-0.1560,0.1298,0.0698,1.44,-175.94,113.56,0.5938,-0.1242,-9.5723,9.5915
11,13,0,1,1,67.000,67000,1.2700,-0.5200,-9.8600,9.9550,-0.1844,-0.2847,0.1833,0.56,-174.94,111.75,0.6829,-0.1764,-9.6102,9.6360
11,13,0,1,1,67.131,67131,0.0400,-0.6400,-9.9100,9.9307,0.0742,-0.4014,0.2029,-2.50,-174.56,111.06,0.5982,-0.2375,-9.6497,9.6711
11,13,0,1,1,67.264,67264,0.0800,-0.5100,-9.3400,9.3543,0.4298,0.2596,-0.2880,-2.56,-176.63,112.00,0.5299,-0.2734,-9.6089,9.6274
11,13,0,1,1,67.436,67436,1.0700,-0.2000,-11.3100,11.3623,-0.5770,0.2280,0.0578,-0.56,-175.69,109.88,0.6011,-0.2637,-9.8331,9.8549
11,13,0,1,1,67.566,67566,0.5300,-0.7200,-9.7400,9.7809,0.2465,-0.1844,-0.3796,-0.44,-174.44,110.69,0.5917,-0.3239,-9.8208,9.8439
11,13,0,1,1,67.697,67697,0.6000,-1.8600,-10.0600,10.2481,-0.1113,-0.2138,0.2389,-2.19,-175.38,110.50,0.5928,-0.5263,-9.8523,9.8842
11,13,0,1,1,67.827,67827,0.1800,-0.7100,-9.4200,9.4484,-0.2782,-0.1505,0.1691,-4.00,-173.13,109.50,0.5384,-0.5505,-9.7953,9.8256
11,13,0,1,1,67.957,67957,1.5800,1.1200,-9.8300,10.0190,0.8868,-0.1778,0.0076,-4.56,-174.81,108.81,0.6757,-0.3304,-9.7999,9.8287
11,13,0,1,1,68.087,68087,0.9200,-0.5100,-9.4400,9.4984,1.4475,-0.5541,-0.0196,-7.69,175.31,108.31,0.7079,-0.3540,-9.7525,9.7845
11,13,0,1,1,68.217,68217,0.5100,-1.3800,-7.5700,7.7116,-0.0469,0.0164,0.3251,-9.75,170.13,107.38,0.6818,-0.4892,-9.4649,9.5020
11,13,0,1,1,68.348,68348,1.6300,3.0100,-9.6200,10.2108,-0.3076,0.3022,-0.1102,-9.38,174.75,105.00,0.8067,-0.0281,-9.4853,9.5196
11,13,0,1,1,68.521,68521,2.8900,1.5700,-9.6900,10.2329,1.0799,-0.6665,-0.0120,-8.19,167.44,106.94,1.0813,0.1825,-9.5123,9.5753
11,13,0,1,1,68.653,68653,1.2600,2.0600,-7.7200,8.0889,0.4996,-1.0472,-0.1320,-15.19,161.63,108.13,1.1048,0.4299,-9.2761,9.3516
11,13,0,1,1,68.783,68783,1.6600,2.6800,-8.8800,9.4230,-0.3414,0.3676,0.0709,-16.75,160.50,109.56,1.1780,0.7264,-9.2239,9.3272
11,13,0,1,1,68.915,68915,3.0600,3.7700,-7.3700,8.8257,0.3818,0.4003,0.4200,-13.88,162.00,106.88,1.4260,1.1275,-8.9796,9.1618
11,13,0,1,1,69.045,69045,3.4600,2.5800,-9.1700,10.1349,-0.0393,0.0458,0.1320,-13.75,159.75,104.31,1.6940,1.3189,-9.0047,9.2571
11,13,0,1,1,69.180,69180,2.6200,3.1600,-8.2700,9.2327,0.0829,-0.1353,-0.2073,-13.81,160.31,104.56,1.8160,1.5615,-8.9079,9.2242
11,13,0,1,1,69.311,69311,2.1400,2.6900,-8.7500,9.4010,-0.1516,-0.0447,-0.1494,-14.44,160.06,106.31,1.8587,1.7102,-8.8871,9.2390
11,13,0,1,1,69.441,69441,2.1500,3.1100,-8.7000,9.4860,-0.2029,0.1058,-0.0240,-13.44,161.56,108.13,1.8971,1.8947,-8.8624,9.2591
11,13,0,1,1,69.614,69614,1.9100,2.7500,-8.9600,9.5652,-0.0785,-0.0971,0.1309,-14.19,162.56,108.38,1.8988,2.0074,-8.8753,9.2955
11,13,0,1,1,69.744,69744,2.7400,2.8900,-9.1700,9.9974,-0.1669,0.1189,-0.0905,-13.31,163.63,109.69,2.0097,2.1237,-8.9141,9.3814
11,13,0,1,1,69.874,69874,2.2600,2.8900,-8.4700,9.2304,0.0382,-0.0578,0.0262,-13.19,164.44,109.81,2.0426,2.2247,-8.8556,9.3564
11,13,0,1,1,70.004,70004,1.2100,1.5000,-9.5000,9.6935,-0.5171,0.2171,0.1614,-13.25,165.38,109.00,1.9329,2.1292,-8.9405,9.3916
11,13,0,1,1,70.134,70134,2.6800,2.7900,-8.7500,9.5671,-0.1494,0.4549,0.0393,-9.50,168.75,109.00,2.0314,2.2162,-8.9154,9.4087
11,13,0,1,1,70.264,70264,2.0700,1.0500,-8.8300,9.1300,-0.1473,-0.3545,0.1582,-10.13,169.06,108.06,2.0365,2.0626,-8.9042,9.3640
11,13,0,1,1,70.394,70394,1.5500,1.8700,-10.0500,10.3393,-0.3992,0.2127,0.0425,-10.69,172.13,108.13,1.9724,2.0372,-9.0551,9.4887
11,13,0,1,1,70.525,70525,1.8900,0.8800,-8.6300,8.8783,0.1309,-0.0098,-0.0425,-9.50,172.56,108.00,1.9615,1.8847,-8.9991,9.4013
11,13,0,1,1,70.698,70698,1.1200,0.7900,-9.6100,9.7072,-0.3174,0.3491,-0.3436,-8.69,173.25,109.31,1.8506,1.7404,-9.0796,9.4283
11,13,0,1,1,70.828,70828,1.9000,0.9200,-9.1200,9.3611,-0.1691,0.2116,-0.1516,-5.88,175.38,111.00,1.8571,1.6323,-9.0849,9.4154
11,13,0,1,1,70.959,70959,1.1800,0.5600,-8.7800,8.8766,-0.0840,-0.3883,-0.0229,-7.13,175.88,111.13,1.7679,1.4910,-9.0448,9.3358
11,13,0,1,1,71.090,71090,0.9300,0.4500,-9.5000,9.5560,-0.0535,0.1800,-0.1080,-7.31,176.25,112.31,1.6575,1.3538,-9.1047,9.3529
11,13,0,1,1,71.220,71220,1.0000,-0.2300,-9.7600,9.8138,-0.2607,0.0894,-0.1287,-6.00,177.19,113.38,1.5708,1.1451,-9.1911,9.3944
11,13,0,1,1,71.350,71350,0.6700,-0.6200,-10.4300,10.4699,-0.5094,0.0327,-0.1309,-5.63,-179.63,115.13,1.4521,0.9125,-9.3544,9.5103
11,13,0,1,1,71.480,71480,2.2300,-0.2600,-9.7000,9.9564,-0.3632,-0.4385,0.2138,-6.19,-176.19,114.50,1.5546,0.7580,-9.3999,9.5577
11,13,0,1,1,71.610,71610,-1.5900,-0.5200,-10.0900,10.2277,0.7767,0.5149,-0.5945,-7.88,-177.88,116.44,1.1403,0.5896,-9.4908,9.5773
11,13,0,1,1,71.788,71788,1.2200,0.0500,-9.3300,9.4096,-0.3349,0.0600,-0.1298,-1.81,-178.94,116.75,1.1508,0.5185,-9.4696,9.5534
11,13,0,1,1,71.919,71919,0.9700,-0.0600,-9.9200,9.9675,-0.0818,0.0982,0.0654,-1.88,-178.00,116.06,1.1269,0.4423,-9.5290,9.6056
11,13,0,1,1,72.049,72049,0.5700,-0.8900,-9.3200,9.3797,-0.0720,-0.0818,-0.1102,-2.19,-177.56,116.56,1.0536,0.2667,-9.5014,9.5634
11,13,0,1,1,72.180,72180,-0.2400,0.1000,-10.6800,10.6832,-0.2520,0.4080,-0.1636,-1.63,-175.75,116.75,0.8831,0.2447,-9.6568,9.7001
11,13,0,1,1,72.310,72310,0.8400,-0.1900,-9.1600,9.2004,0.3371,0.0404,-0.1854,1.00,-176.31,118.00,0.8774,0.1875,-9.5913,9.6332
11,13,0,1,1,72.441,72441,-0.2500,-1.9000,-9.1600,9.3583,-0.0676,-0.4102,0.5258,-1.25,-178.19,116.25,0.7289,-0.0876,-9.5345,9.5627
11,13,0,1,1,72.572,72572,0.2900,0.1000,-10.3800,10.3845,-0.4145,0.3502,-0.0633,-1.38,-174.38,114.25,0.6710,-0.0629,-9.6459,9.6694
11,13,0,1,1,72.702,72702,1.4100,-0.5300,-9.4000,9.5199,0.3632,-0.0633,-0.0469,0.56,-174.81,114.94,0.7684,-0.1244,-9.6135,9.6449
11,13,0,1,1,72.875,72875,-0.2100,-0.7100,-9.5900,9.6185,0.0349,-0.1407,-0.0425,-2.25,-176.81,114.75,0.6395,-0.2016,-9.6104,9.6337
11,13,0,1,1,73.006,73006,0.4300,-0.3400,-9.7000,9.7155,0.0949,0.4058,-0.1582,-0.81,-177.31,115.81,0.6119,-0.2198,-9.6222,9.6441
11,13,0,1,1,73.136,73136,0.6400,0.0200,-9.9600,9.9806,0.2236,0.0545,-0.1276,0.38,-178.63,117.56,0.6156,-0.1882,-9.6667,9.6881
11,13,0,1,1,73.266,73266,0.3700,-0.3500,-9.7900,9.8032,0.0207,-0.2138,0.2793,-0.44,-179.50,117.25,0.5832,-0.2096,-9.6830,9.7028
11,13,0,1,1,73.397,73397,0.6500,-0.5900,-9.6400,9.6799,-0.4854,-0.7636,0.2760,-4.13,-177.56,113.00,0.5920,-0.2597,-9.6773,9.6989
11,13,0,1,1,73.527,73527,-0.2400,0.1800,-10.0800,10.0845,0.5312,0.2149,-0.1680,-6.63,-177.13,113.19,0.4824,-0.2017,-9.7304,9.7444
11,13,0,1,1,73.658,73658,0.2800,0.4700,-7.8700,7.8890,0.8225,0.3305,-0.4516,-3.75,178.25,114.06,0.4557,-0.1132,-9.4852,9.4968
11,13,0,1,1,73.788,73788,1.9200,-0.3900,-11.7800,11.9418,-1.0483,0.2880,0.3731,-0.69,176.88,112.88,0.6487,-0.1497,-9.7876,9.8102
11,13,0,1,1,73.961,73961,-0.3200,-0.2900,-9.1400,9.1502,1.1126,-0.5258,-0.0676,-2.94,178.13,113.31,0.5210,-0.1682,-9.7023,9.7177
11,13,0,1,1,74.096,74096,0.7000,-0.1900,-10.7800,10.8044,-0.7145,-0.0469,0.1036,-5.50,176.94,111.44,0.5446,-0.1711,-9.8443,9.8608
11,14,0,1,1,74.227,74227,0.3900,0.9400,-8.9800,9.0375,0.6927,0.2018,-0.1549,-4.38,178.06,112.88,0.5242,-0.0247,-9.7304,9.7445
11,14,0,1,1,74.357,74357,1.7700,-0.8600,-9.2900,9.4961,-0.2738,-0.0262,0.2618,-3.69,175.50,111.63,0.6884,-0.1347,-9.6724,9.6978
11,14,0,1,1,74.487,74487,0.7000,1.2000,-10.4800,10.5717,-0.1920,-0.1440,0.2105,-5.13,178.94,110.50,0.6899,0.0412,-9.7788,9.8032
11,14,0,1,1,74.618,74618,0.4700,0.1300,-9.8700,9.8820,0.6763,0.1364,-0.1451,-4.63,175.81,111.44,0.6609,0.0529,-9.7908,9.8132
11,14,0,1,1,74.748,74748,1.3000,1.0800,-9.2300,9.3835,0.3022,-0.1113,-0.2793,-3.56,172.63,113.00,0.7452,0.1882,-9.7169,9.7473
11,14,0,1,1,74.879,74879,0.8300,1.9700,-7.2500,7.5586,0.2749,-0.6185,-0.0447,-6.75,170.19,114.75,0.7563,0.4230,-9.3918,9.4317
11,14,0,1,1,75.052,75052,1.2500,2.6400,-10.3300,10.7350,-0.1331,0.0524,-0.0960,-9.44,168.56,115.81,0.8214,0.7151,-9.5155,9.5776
11,14,0,1,1,75.182,75182,2.4400,2.8400,-6.7100,7.6840,1.1028,-0.1265,0.3251,-9.38,165.50,115.38,1.0347,0.9952,-9.1458,9.2578
11,14,0,1,1,75.313,75313,1.4500,2.7300,-8.9500,9.4688,-0.2847,0.1156,0.4211,-11.38,162.50,112.63,1.0894,1.2238,-9.1200,9.2660
11,14,0,1,1,75.443,75443,2.4900,2.3700,-8.8700,9.5128,0.2662,0.1898,0.3229,-10.75,162.88,109.75,1.2740,1.3748,-9.0870,9.2783
11,14,0,1,1,75.574,75574,2.3800,2.7200,-8.9500,9.6522,-0.0807,0.0033,-0.0524,-10.63,162.88,108.44,1.4197,1.5521,-9.0690,9.3097
11,14,0,1,1,75.705,75705,2.1600,3.0300,-8.0500,8.8684,0.0349,-0.0458,-0.1134,-10.69,162.88,109.69,1.5173,1.7468,-8.9347,9.2294
11,14,0,1,1,75.837,75837,1.3000,2.4400,-9.3600,9.7598,-0.2356,0.0556,-0.1429,-10.50,162.88,111.00,1.4886,1.8382,-8.9907,9.2967
11,14,0,1,1,75.968,75968,2.1400,3.2700,-8.5500,9.4008,0.1734,0.2062,-0.0436,-9.13,163.81,110.94,1.5745,2.0268,-8.9327,9.2941
11,14,0,1,1,76.142,76142,1.2700,1.6000,-9.0800,9.3069,-0.5912,-0.1342,0.1996,-8.88,163.63,111.31,1.5343,1.9706,-8.9521,9.2939
11,14,0,1,1,76.272,76272,1.3200,2.7700,-8.9000,9.4141,-0.3469,0.0840,-0.1538,-8.63,167.38,112.25,1.5061,2.0759,-8.9452,9.3056
11,14,0,1,1,76.404,76404,1.0200,1.3000,-9.5500,9.6919,-0.0251,0.1571,-0.0076,-7.75,167.75,113.06,1.4420,1.9737,-9.0249,9.3501
11,14,0,1,1,76.535,76535,2.0300,2.0700,-9.0400,9.4935,-0.3087,-0.0513,-0.0349,-6.81,169.94,113.25,1.5195,1.9864,-9.0269,9.3669
11,14,0,1,1,76.666,76666,0.6900,1.2600,-10.3700,10.4690,-0.1004,-0.2683,-0.1233,-8.56,170.75,114.31,1.4102,1.8907,-9.2039,9.5013
11,14,0,1,1,76.796,76796,2.4100,0.5200,-8.0300,8.4000,-0.2596,-0.3992,0.3163,-9.75,172.13,114.50,1.5420,1.7100,-9.0492,9.3376
11,14,0,1,1,76.926,76926,1.5800,1.0500,-10.1400,10.3159,-0.8858,-0.4123,0.3883,-14.63,177.75,111.69,1.5470,1.6231,-9.1929,9.4624
11,14,0,1,1,77.056,77056,1.4600,1.0900,-8.9800,9.1630,0.5160,1.0265,-0.3872,-11.19,178.38,113.56,1.5355,1.5528,-9.1649,9.4215
11,14,0,1,1,77.229,77229,2.2000,-0.3100,-9.5600,9.8148,-0.0982,0.0436,-0.0153,-5.50,175.25,113.56,1.6231,1.3073,-9.2169,9.4496
11,14,0,1,1,77.360,77360,1.1100,0.0400,-8.6900,8.7607,-0.5443,-0.2989,-0.0480,-7.25,178.06,113.75,1.5555,1.1403,-9.1475,9.3486
11,14,0,1,1,77.491,77491,0.8400,-0.6700,-9.5500,9.6103,-0.7243,-0.0109,0.1756,-8.63,-177.63,113.75,1.4612,0.9018,-9.2005,9.3594
11,14,0,1,1,77.622,77622,1.6400,-0.2500,-9.8600,9.9986,-0.1047,0.4680,0.0175,-6.13,-174.13,113.19,1.4847,0.7500,-9.2874,9.4352
11,14,0,1,1,77.757,77757,0.8500,-0.2200,-9.6500,9.6899,0.4211,-0.0556,-0.1178,-5.06,-175.81,113.56,1.4011,0.6222,-9.3352,9.4603
11,14,0,1,1,77.888,77888,0.7900,-0.5100,-9.8800,9.9246,0.3600,0.2138,-0.1244,-4.13,-179.50,114.38,1.3206,0.4730,-9.4070,9.5110
11,14,0,1,1,78.018,78018,0.3400,-0.2500,-8.2600,8.2708,0.2542,-0.0622,-0.0676,-3.69,178.38,114.50,1.1914,0.3777,-9.2559,9.3399
11,14,0,1,1,78.149,78149,0.1400,-0.8000,-9.4600,9.4948,-0.4243,0.3763,-0.2160,-2.63,178.94,114.94,1.0528,0.2225,-9.2828,9.3449
11,14,0,1,1,78.321,78321,0.0200,-0.5000,-9.8100,9.8228,-0.1287,0.2476,-0.1811,1.13,-177.31,117.13,0.9167,0.1273,-9.3522,9.3979
11,14,0,1,1,78.451,78451,-0.0700,-0.7600,-10.0900,10.1188,-0.2465,0.0415,0.0327,1.69,-176.13,117.00,0.7867,0.0104,-9.4495,9.4822
11,14,0,1,1,78.581,78581,-0.0700,-1.1100,-10.2200,10.2803,-0.2891,0.1167,0.0393,2.63,-174.19,117.25,0.6738,-0.1372,-9.5510,9.5757
11,14,0,1,1,78.711,78711,0.1500,-0.5900,-10.2100,10.2281,-0.0807,-0.2105,0.0829,1.88,-172.88,116.00,0.6048,-0.1969,-9.6378,9.6588
11,14,0,1,1,78.841,78841,-0.0700,-1.2000,-9.5000,9.5757,0.3033,-0.2716,0.0349,-0.50,-174.38,115.69,0.5159,-0.3291,-9.6197,9.6391
11,14,0,1,1,78.971,78971,0.0700,-1.0600,-9.2100,9.2711,0.0611,-0.3120,0.0196,-2.69,-175.88,115.81,0.4571,-0.4254,-9.5657,9.5860
11,14,0,1,1,79.102,79102,0.4500,-0.7100,-9.4700,9.5072,-0.1429,0.0458,0.0011,-3.81,-175.63,115.63,0.4562,-0.4629,-9.5531,9.5752
11,14,0,1,1,79.232,79232,0.1700,-0.3300,-9.7500,9.7571,0.2803,0.4647,-0.0273,-0.69,-176.00,115.38,0.4185,-0.4454,-9.5790,9.5985
11,14,0,1,1,79.405,79405,1.0100,-1.2000,-10.3900,10.5077,0.0131,-0.4614,0.1669,-0.19,-178.56,114.69,0.4964,-0.5448,-9.6859,9.7139
11,14,0,1,1,79.536,79536,0.2900,1.4300,-9.8900,9.9971,0.4614,-0.1353,-0.3185,-2.13,-178.06,115.06,0.4692,-0.2846,-9.7128,9.7283
11,14,0,1,1,79.667,79667,-0.1400,-1.9000,-9.4200,9.6107,0.4091,-0.1876,-0.0600,-3.69,175.81,116.44,0.3889,-0.4975,-9.6742,9.6948
11,14,0,1,1,79.797,79797,1.2200,1.9400,-9.9600,10.2203,0.0742,-0.1440,-0.0393,-4.06,176.75,116.31,0.4984,-0.1763,-9.7119,9.7262
11,14,0,1,1,79.928,79928,0.0100,-0.2300,-8.4000,8.4032,0.6763,-0.4145,0.0545,-6.69,172.06,116.63,0.4341,-0.1834,-9.5390,9.5506
11,14,0,1,1,80.059,80059,1.2000,1.7200,-10.0400,10.2567,0.0676,0.4025,-0.2913,-6.44,170.38,117.25,0.5350,0.0675,-9.6050,9.6201
11,14,0,1,1,80.194,80194,-0.0100,1.8300,-8.7200,8.9100,0.4734,-0.4658,-0.2574,-7.13,168.75,118.63,0.4632,0.2997,-9.4884,9.5044
11,14,0,1,1,80.325,80325,1.7000,2.4800,-9.5900,10.0503,-0.0098,-0.0949,-0.1200,-7.44,166.81,119.81,0.6262,0.5870,-9.5018,9.5405
11,14,0,1,1,80.498,80498,0.8400,2.7000,-7.5600,8.0715,0.3469,-0.2782,-0.0251,-8.88,164.50,121.63,0.6543,0.8655,-9.2459,9.3093
11,14,0,1,1,80.628,80628,2.3000,2.6300,-9.3700,10.0002,0.2411,-0.3458,-0.2825,-10.81,162.75,123.75,0.8712,1.0980,-9.2623,9.3677
11,14,0,1,1,80.758,80758,1.8400,2.5300,-6.6700,7.3672,0.8443,-0.1222,-0.2040,-11.75,158.69,125.56,0.9989,1.2867,-8.9207,9.0682
11,15,0,1,1,80.888,80888,1.6600,2.1000,-11.9200,12.2169,-0.6043,-0.0164,0.0862,-13.19,155.88,125.00,1.0860,1.3939,-9.3159,9.4820
11,15,0,1,1,81.018,81018,2.1800,4.2200,-7.8800,9.2008,0.2498,-0.2934,0.0022,-14.69,159.25,125.94,1.2301,1.7663,-9.1267,9.3771
11,15,0,1,1,81.148,81148,2.3800,1.9300,-8.5300,9.0637,0.3862,0.4581,0.3229,-14.38,155.38,124.69,1.3817,1.7878,-9.0481,9.3259
11,15,0,1,1,81.278,81278,3.6100,4.1700,-7.4500,9.2695,-0.4898,-0.0524,0.4614,-13.81,157.56,122.06,1.6753,2.1018,-8.8375,9.2372
11,15,0,1,1,81.409,81409,2.2100,4.1700,-8.3900,9.6263,0.3851,-0.3709,-0.1953,-14.63,156.94,122.69,1.7458,2.3743,-8.7785,9.2600
11,15,0,1,1,81.582,81582,2.6300,3.5500,-6.4900,7.8511,0.1189,-0.0131,0.3283,-17.25,152.88,121.19,1.8623,2.5292,-8.4769,9.0401
11,15,0,1,1,81.712,81712,3.5200,4.5200,-8.2500,10.0441,-0.1887,0.2902,0.0589,-16.56,154.50,120.13,2.0807,2.7916,-8.4470,9.1364
11,15,0,1,1,81.843,81843,2.8500,3.9100,-8.4200,9.7112,0.2051,-0.0687,-0.0022,-15.94,154.63,120.00,2.1821,2.9389,-8.4435,9.2028
11,15,0,1,1,81.974,81974,2.3200,3.3600,-8.0300,9.0085,-0.0524,0.0153,-0.0393,-16.75,153.75,119.94,2.2003,2.9944,-8.3890,9.1751
11,15,0,1,1,82.104,82104,3.1800,4.2300,-8.6200,10.1148,-0.2989,0.0338,-0.0884,-15.75,155.75,120.25,2.3294,3.1572,-8.4194,9.2888
11,15,0,1,1,82.235,82235,2.2900,3.5600,-8.4800,9.4778,0.0556,0.0000,-0.0480,-16.00,156.25,120.69,2.3242,3.2103,-8.4274,9.3129
11,15,0,1,1,82.365,82365,2.7900,3.6200,-8.4300,9.5892,-0.0480,0.1473,0.1080,-15.31,156.56,120.25,2.3856,3.2643,-8.4278,9.3474
11,15,0,1,1,82.500,82500,2.5600,3.3200,-8.4500,9.4328,-0.0011,-0.0654,0.0873,-15.56,156.50,119.50,2.4086,3.2716,-8.4307,9.3585
11,15,0,1,1,82.673,82673,2.2400,3.3700,-8.5600,9.4683,-0.0807,0.0567,-0.0687,-15.44,157.69,119.75,2.3863,3.2846,-8.4477,9.3727
11,15,0,1,1,82.803,82803,2.6100,3.5200,-8.1500,9.2534,-0.0916,0.0338,0.0720,-15.19,158.38,119.50,2.4158,3.3156,-8.4085,9.3559
11,15,0,1,1,82.933,82933,2.5500,3.2000,-8.9500,9.8410,-0.1145,0.1276,0.0709,-14.63,158.88,119.13,2.4335,3.3004,-8.4798,9.4193
11,15,0,1,1,83.064,83064,2.1700,3.4200,-8.7300,9.6238,-0.0436,-0.0393,0.2683,-15.00,159.88,118.19,2.3988,3.3161,-8.5128,9.4456
11,15,0,1,1,83.194,83194,2.4500,2.5500,-8.1300,8.8658,-0.0044,-0.0404,-0.0589,-15.38,159.50,117.94,2.4055,3.2152,-8.4624,9.3667
11,15,0,1,1,83.325,83325,2.3800,2.9200,-8.6200,9.4072,-0.3894,0.1309,0.1189,-15.19,161.69,117.94,2.4022,3.1763,-8.4831,9.3714
11,15,0,1,1,83.455,83455,2.7800,2.6800,-9.4200,10.1807,-0.1320,0.0720,0.0818,-14.38,163.69,117.25,2.4520,3.1109,-8.6066,9.4743
11,15,0,1,1,83.585,83585,2.3000,2.3100,-8.9400,9.5158,-0.0687,0.0011,0.0120,-14.56,164.63,116.94,2.4319,3.0054,-8.6505,9.4751
11,15,0,1,1,83.758,83758,2.5100,2.7200,-9.8800,10.5505,-0.3207,0.4963,-0.0338,-11.56,166.56,117.06,2.4422,2.9678,-8.8125,9.6142
11,15,0,1,1,83.889,83889,2.3100,1.2200,-9.1000,9.4676,-0.0360,-0.4985,-0.0622,-11.88,166.75,117.31,2.4248,2.7374,-8.8504,9.5762
11,15,0,1,1,84.019,84019,1.7900,2.1000,-9.5100,9.9022,-0.4396,0.2182,0.0305,-13.25,169.13,118.44,2.3411,2.6534,-8.9373,9.6124
11,15,0,1,1,84.150,84150,2.0800,1.5400,-9.3800,9.7305,0.0894,-0.1527,0.1451,-12.94,170.31,118.19,2.3067,2.5067,-8.9957,9.6191
11,15,0,1,1,84.281,84281,2.3400,1.4900,-8.8900,9.3128,-0.0240,0.1702,0.0556,-12.94,170.50,117.75,2.3111,2.3727,-8.9817,9.5730
11,15,0,1,1,84.414,84414,2.0300,1.0000,-9.0000,9.2801,-0.0055,-0.0425,-0.0196,-12.50,170.31,117.69,2.2741,2.1919,-8.9841,9.5232
11,15,0,1,1,84.545,84545,1.7100,1.5100,-9.6000,9.8673,-0.3894,0.1353,0.0033,-12.19,172.38,117.63,2.1997,2.1020,-9.0653,9.5623
11,15,0,1,1,84.678,84678,1.9200,0.7100,-8.9400,9.1714,-0.0251,0.1080,0.0600,-10.94,173.44,117.50,2.1629,1.9186,-9.0488,9.4995
11,15,0,1,1,84.851,84851,1.7400,1.2000,-9.7900,10.0156,-0.4014,0.1200,0.0142,-9.81,176.63,116.25,2.1072,1.8239,-9.1465,9.5616
11,15,0,1,1,84.981,84981,1.6300,0.0100,-9.0200,9.1661,0.1844,0.0120,0.0185,-9.25,176.63,116.13,2.0443,1.5849,-9.1298,9.4892
11,15,0,1,1,85.111,85111,1.1000,-0.1800,-9.2300,9.2971,-0.3611,0.1200,0.0949,-9.25,177.50,115.81,1.9198,1.3523,-9.1430,9.4398
11,15,0,1,1,85.241,85241,0.8200,0.6200,-9.7700,9.8239,-0.2585,0.5967,-0.1822,-6.25,-179.38,116.13,1.7749,1.2558,-9.2256,9.4784
11,15,0,1,1,85.371,85371,0.7200,0.1000,-10.1700,10.1959,0.1494,0.5051,-0.2596,-2.31,-179.75,117.50,1.6359,1.1035,-9.3501,9.5560
11,15,0,1,1,85.501,85501,1.0700,0.1200,-9.7600,9.8192,0.0949,-0.0316,0.1244,-0.81,179.06,118.69,1.5613,0.9739,-9.4041,9.5824
11,15,0,1,1,85.632,85632,-0.3200,0.1700,-9.2900,9.2971,0.2182,-0.4287,-0.2018,-3.69,177.94,118.38,1.3134,0.8680,-9.3891,9.5201
11,15,0,1,1,85.762,85762,0.1700,0.2000,-9.8600,9.8635,0.1342,0.3709,-0.2858,-2.81,176.50,118.94,1.1627,0.7799,-9.4511,9.5543
11,15,0,1,1,85.935,85935,0.7900,0.4800,-9.6200,9.6643,-0.1058,-0.2869,0.2454,-1.88,176.88,118.50,1.1136,0.7404,-9.4734,9.5673
11,15,0,1,1,86.065,86065,-0.1800,-0.0500,-9.9800,9.9817,-0.2378,-0.3087,0.0185,-4.94,177.94,117.00,0.9432,0.6363,-9.5401,9.6077
11,15,0,1,1,86.196,86196,1.3400,0.2100,-9.6700,9.7647,-0.1364,0.2793,0.0284,-3.44,179.50,117.38,0.9955,0.5801,-9.5572,9.6264
11,15,0,1,1,86.326,86326,0.1700,0.0600,-9.5100,9.5117,-0.0251,-0.2836,-0.0044,-4.63,-179.63,116.50,0.8867,0.5116,-9.5510,9.6057
11,15,0,1,1,86.457,86457,1.3800,0.1600,-9.3400,9.4428,-0.1396,-0.1091,0.0382,-5.00,-178.63,114.94,0.9517,0.4652,-9.5232,9.5819
11,15,0,1,1,86.588,86588,0.0200,-1.2400,-10.3900,10.4638,-0.0295,-0.3862,0.0436,-8.31,-179.25,113.63,0.8289,0.2405,-9.6374,9.6760
11,15,0,1,1,86.718,86718,0.4300,1.3500,-9.0100,9.1207,0.6021,0.6250,-0.5847,-5.75,-179.81,116.44,0.7763,0.3867,-9.5548,9.5940
11,15,0,1,1,86.849,86849,1.2700,-0.6200,-10.5200,10.6145,-0.1920,-0.1429,0.1571,-4.25,176.69,116.31,0.8414,0.2541,-9.6819,9.7218
11,15,0,1,1,87.025,87025,-0.5200,-0.1600,-9.1900,9.2061,0.3447,-0.0251,0.1418,-5.19,176.75,115.63,0.6620,0.1995,-9.6171,9.6419
11,15,0,1,1,87.156,87156,0.3600,0.3200,-8.9800,8.9929,-0.3851,0.2585,-0.1178,-3.88,178.25,114.44,0.6222,0.2154,-9.5332,9.5559
11,15,0,1,1,87.287,87287,1.6000,0.4100,-10.7500,10.8761,0.0120,0.0753,-0.0916,-2.44,179.69,114.75,0.7511,0.2410,-9.6935,9.7256
11,15,0,1,1,87.417,87417,0.8000,0.3800,-9.7100,9.7503,0.7003,-0.7679,-0.1571,-5.63,177.31,115.50,0.7575,0.2593,-9.6957,9.7287
11,15,0,1,1,87.548,87548,0.2900,-0.7000,-9.2500,9.2810,-0.1538,-0.2476,0.1702,-8.94,175.94,114.88,0.6959,0.1329,-9.6370,9.6630
11,15,0,1,1,87.678,87678,0.2800,0.4300,-9.6300,9.6437,-0.3829,0.5116,-0.0327,-6.94,179.31,115.06,0.6411,0.1721,-9.6360,9.6589
11,15,0,1,1,87.809,87809,0.4100,0.7000,-10.0800,10.1126,0.3742,0.4712,0.0884,-2.50,179.50,115.06,0.6106,0.2416,-9.6945,9.7168
11,15,0,1,1,87.939,87939,1.8200,-0.0900,-9.1800,9.3591,0.4516,-0.2793,0.1789,-1.00,176.13,113.38,0.7700,0.1979,-9.6267,9.6595
11,15,0,1,1,88.112,88112,0.3600,0.2600,-8.8600,8.8711,-0.1189,-0.6381,-0.3305,-7.75,175.94,113.56,0.7160,0.2061,-9.5257,9.5548
11,15,0,1,1,88.243,88243,0.5400,2.5600,-9.4800,9.8344,-0.4451,-0.3949,0.0360,-10.50,178.25,114.63,0.6928,0.5163,-9.5197,9.5588
11,15,0,1,1,88.373,88373,1.8500,1.5100,-10.9500,11.2074,1.5632,0.6316,-0.1560,-7.44,172.38,117.88,0.8453,0.6472,-9.7082,9.7664
11,15,0,1,1,88.504,88504,2.0500,1.3800,-8.0800,8.4495,0.2563,-0.8061,0.4069,-9.19,166.06,114.56,1.0040,0.7438,-9.4936,9.5755
11,15,0,1,1,88.634,88634,1.2500,1.8000,-9.8200,10.0616,-0.4680,-0.2793,0.5476,-14.56,165.94,112.88,1.0364,0.8830,-9.5366,9.6333
11,15,0,1,1,88.765,88765,2.4100,1.9900,-9.2000,9.7164,0.4505,0.2683,-0.2869,-13.31,166.88,112.44,1.2174,1.0289,-9.4923,9.6252
11,15,0,1,1,88.896,88896,2.4800,3.6400,-9.1800,10.1820,0.1680,-0.1287,-0.2214,-12.31,165.69,113.31,1.3838,1.3729,-9.4511,9.6500
11,15,0,1,1,89.028,89028,0.8300,2.7900,-9.4200,9.8595,0.9414,0.3905,-0.2149,-11.19,160.31,115.88,1.3108,1.5597,-9.4470,9.6642
11,15,0,1,1,89.201,89201,3.7500,2.7000,-7.7300,9.0059,0.1429,-0.5083,0.5618,-12.31,157.19,109.50,1.6323,1.7099,-9.2208,9.5190
11,15,0,1,1,89.333,89333,2.8000,3.8600,-8.1600,9.4512,-0.1844,-0.6545,-0.1189,-18.06,157.50,110.13,1.7861,1.9933,-9.0810,9.4672
11,15,0,1,1,89.464,89464,2.7400,3.6200,-7.2100,8.5203,-0.0404,-0.0142,-0.2891,-19.44,157.38,112.44,1.9118,2.2076,-8.8344,9.3046
11,15,0,1,1,89.595,89595,2.9100,3.4100,-8.7300,9.8137,-0.3752,0.5160,0.1276,-16.94,159.00,112.88,2.0434,2.3661,-8.8207,9.3583
11,15,0,1,1,89.725,89725,3.0500,3.3800,-8.2600,9.4316,-0.0207,0.1658,0.1287,-15.63,160.19,111.75,2.1760,2.4997,-8.7468,9.3536
11,15,0,1,1,89.855,89855,3.1400,2.8800,-7.8900,8.9669,-0.2651,0.0458,0.0229,-15.25,161.06,111.31,2.3030,2.5498,-8.6339,9.2924
11,15,0,1,1,89.986,89986,2.4200,2.8200,-8.5600,9.3318,-0.1734,0.0785,-0.0851,-14.63,162.88,112.19,2.3185,2.5854,-8.6241,9.2971
11,15,0,1,1,90.116,90116,1.9700,2.1500,-8.6200,9.0999,-0.3207,0.0022,-0.0011,-14.38,164.38,112.81,2.2725,2.5280,-8.6236,9.2694
11,16,0,1,1,90.289,90289,1.8500,1.7400,-9.4400,9.7757,-0.3905,0.1789,-0.0905,-12.81,168.06,113.88,2.2169,2.4242,-8.7312,9.3287
11,16,0,1,1,90.420,90420,2.0200,1.5400,-8.6500,9.0152,-0.2836,-0.0175,-0.0065,-12.44,170.56,114.75,2.1909,2.3077,-8.7205,9.2829
11,16,0,1,1,90.551,90551,1.7800,1.5400,-10.3100,10.5753,-0.3567,0.1800,0.1374,-11.94,172.94,114.81,2.1368,2.2065,-8.9299,9.4434
11,16,0,1,1,90.681,90681,2.4400,1.0700,-9.0700,9.4532,0.1276,0.0207,0.0098,-10.63,173.31,114.44,2.1767,2.0567,-8.9484,9.4362
11,16,0,1,1,90.812,90812,1.6100,0.7100,-9.0900,9.2587,-0.0698,-0.2171,-0.0458,-11.75,172.88,114.69,2.1020,1.8793,-8.9671,9.3999
11,16,0,1,1,90.942,90942,1.5300,0.9500,-9.7900,9.9543,-0.2891,0.1527,-0.0055,-11.94,174.50,114.94,2.0267,1.7568,-9.0755,9.4635
11,16,0,1,1,91.073,91073,2.1600,1.2100,-9.5800,9.8948,0.0131,0.1527,-0.0065,-10.56,175.75,114.88,2.0442,1.6848,-9.1420,9.5180
11,16,0,1,1,91.204,91204,1.6800,0.9000,-8.9600,9.1605,0.2793,-0.0916,-0.0971,-10.56,173.69,115.31,1.9962,1.5814,-9.1180,9.4670
11,16,0,1,1,91.380,91380,1.1500,0.4100,-9.2700,9.3501,-0.2258,0.2367,0.0393,-10.50,172.81,115.38,1.8847,1.4270,-9.1380,9.4389
11,16,0,1,1,91.510,91510,1.5700,0.7600,-9.7600,9.9146,-0.3436,0.3982,0.0982,-8.00,175.19,114.94,1.8433,1.3391,-9.2200,9.4973
11,16,0,1,1,91.641,91641,1.2900,0.5300,-9.3300,9.4337,-0.1233,0.1091,0.0393,-6.06,177.38,114.13,1.7703,1.2325,-9.2345,9.4831
11,16,0,1,1,91.772,91772,0.6300,-0.5700,-9.5300,9.5678,-0.1974,0.0905,0.1920,-5.44,178.13,112.94,1.6201,0.9950,-9.2734,9.4663
11,16,0,1,1,91.902,91902,0.6000,0.0400,-10.1700,10.1878,-0.2520,0.3862,-0.1374,-4.00,-179.31,111.94,1.4857,0.8691,-9.3916,9.5480
11,16,0,1,1,92.033,92033,0.6200,-0.5000,-9.6300,9.6629,0.1364,0.2694,-0.1080,-1.56,-179.38,112.19,1.3716,0.6887,-9.4230,9.5472
11,16,0,1,1,92.163,92163,0.3500,-0.7400,-9.7400,9.7743,-0.2193,0.1385,0.0862,-0.31,-178.75,112.38,1.2370,0.5004,-9.4648,9.5584
11,16,0,1,1,92.293,92293,0.2700,-0.5400,-10.1600,10.1779,-0.2793,-0.0807,0.1167,-0.44,-176.44,111.50,1.1095,0.3633,-9.5564,9.6274
11,16,0,1,1,92.466,92466,0.4500,0.0900,-10.4000,10.4101,0.3676,0.1036,-0.0622,-0.31,-176.94,111.19,1.0226,0.3273,-9.6675,9.7270
11,16,0,1,1,92.596,92596,0.0500,-0.6900,-8.5500,8.5779,0.6360,-0.3392,-0.0273,-1.44,178.75,111.19,0.8945,0.1933,-9.5203,9.5642
11,16,0,1,1,92.726,92726,-0.4900,-1.0300,-9.4600,9.5285,-0.2782,-0.1287,0.0218,-3.63,177.38,110.31,0.7120,0.0321,-9.5123,9.5390
11,16,0,1,1,92.856,92856,1.0500,1.2300,-10.2200,10.3472,-0.0033,0.3709,-0.0709,-2.00,179.88,110.38,0.7566,0.1899,-9.6056,9.6372
11,16,0,1,1,92.986,92986,0.2400,0.1000,-9.8700,9.8734,0.6196,-0.1549,-0.1385,-1.75,176.63,111.00,0.6885,0.1781,-9.6404,9.6666
11,16,0,1,1,93.116,93116,-0.0600,0.7800,-9.4800,9.5122,0.4352,0.1833,-0.1974,-1.56,172.88,112.00,0.5899,0.2574,-9.6193,9.6408
11,16,0,1,1,93.246,93246,-0.2300,1.0200,-10.0100,10.0645,-0.0055,0.4025,-0.4222,0.44,171.50,113.50,0.4818,0.3579,-9.6708,9.6894
11,16,0,1,1,93.377,93377,0.1400,1.0800,-9.4600,9.5225,0.1189,-0.0611,-0.1614,2.69,171.38,115.31,0.4368,0.4530,-9.6430,9.6635
11,16,0,1,1,93.550,93550,1.0600,0.1200,-8.9600,9.0233,-0.5890,-0.8999,0.7439,-2.69,173.00,113.19,0.5189,0.4092,-9.5530,9.5758
11,16,0,1,1,93.681,93681,-0.5800,2.1300,-10.7200,10.9449,-0.1364,-0.4800,-0.1582,-10.56,177.31,111.44,0.3741,0.6359,-9.7068,9.7348
11,16,0,1,1,93.812,93812,2.1400,0.2300,-8.9300,9.1857,0.8007,0.4254,-0.0829,-7.06,172.63,113.44,0.6068,0.5824,-9.6044,9.6412
11,16,0,1,1,93.944,93944,0.7900,0.9300,-10.3200,10.3919,-0.4440,-0.8116,0.2378,-11.25,172.69,111.13,0.6309,0.6282,-9.6987,9.7395
11,16,0,1,1,94.075,94075,1.2700,1.8000,-10.0400,10.2788,-0.0556,0.5247,-0.0709,-10.81,174.56,110.94,0.7152,0.7826,-9.7437,9.8012
11,16,0,1,1,94.209,94209,1.5500,0.6500,-9.0800,9.2343,0.5618,-0.0185,-0.1582,-8.25,171.69,111.69,0.8252,0.7652,-9.6562,9.7216
11,16,0,1,1,94.340,94340,1.4600,1.2000,-9.5000,9.6862,-0.1069,-0.3382,-0.0120,-10.25,170.31,112.13,0.9088,0.8225,-9.6356,9.7133
11,16,0,1,1,94.470,94470,1.3000,0.2300,-9.3100,9.4031,-0.4407,-0.2662,0.1822,-12.50,172.38,112.13,0.9604,0.7444,-9.5927,9.6694
11,16,0,1,1,94.643,94643,2.3800,1.1500,-9.3100,9.6780,0.2400,0.4069,-0.0065,-10.75,175.94,111.31,1.1474,0.7978,-9.5555,9.6571
11,16,0,1,1,94.774,94774,1.6800,-0.8300,-8.9200,9.1147,-0.0829,-0.4200,0.1484,-12.19,174.00,110.94,1.2176,0.5833,-9.4717,9.5675
11,16,0,1,1,94.904,94904,3.0500,1.3400,-8.9300,9.5312,-0.2553,-0.0447,-0.5051,-13.25,176.50,113.06,1.4591,0.6830,-9.4003,9.5374
11,16,0,1,1,95.035,95035,0.8700,0.6200,-10.2100,10.2657,0.3447,-0.5716,-0.3294,-16.50,175.06,115.81,1.3815,0.6747,-9.5070,9.6306
11,16,0,1,1,95.166,95166,1.8500,2.2500,-8.5500,9.0326,0.8072,0.2782,-0.1702,-16.19,170.19,118.00,1.4432,0.8823,-9.3809,9.5322
11,16,0,1,1,95.297,95297,2.6700,0.7600,-9.1800,9.5906,0.1582,0.0175,0.3120,-15.06,165.50,115.94,1.6049,0.8662,-9.3545,9.5306
11,16,0,1,1,95.428,95428,2.6600,3.2500,-7.0700,8.2233,0.3251,-0.1418,0.2520,-15.69,165.88,114.38,1.7439,1.1803,-9.0534,9.2951
11,17,0,1,1,95.563,95563,3.2300,1.8700,-10.2700,10.9272,0.0545,0.0022,0.3556,-18.31,163.38,110.56,1.9397,1.2712,-9.2137,9.5011
11,17,0,1,1,95.736,95736,3.3000,2.6700,-8.2800,9.3047,0.4112,-0.2727,0.2400,-19.25,161.25,108.75,2.1190,1.4555,-9.0907,9.4472
11,17,0,1,1,95.866,95866,3.5500,3.3000,-7.8000,9.1833,0.3272,-0.1320,0.2258,-20.88,159.75,107.13,2.3075,1.6986,-8.9206,9.3695
11,17,0,1,1,95.996,95996,2.8300,1.8300,-8.0900,8.7639,0.0316,0.3403,0.0785,-20.63,157.50,106.69,2.3764,1.7159,-8.8112,9.2859
11,17,0,1,1,96.126,96126,3.5400,3.2800,-8.6100,9.8703,-0.4974,0.4396,-0.0698,-18.06,161.31,106.44,2.5297,1.9220,-8.7846,9.3415
11,17,0,1,1,96.256,96256,3.7100,2.8300,-8.9100,10.0579,0.0120,-0.1516,-0.1091,-16.50,162.50,107.75,2.6853,2.0417,-8.8012,9.4255
11,17,0,1,1,96.386,96386,2.7800,2.6700,-8.6400,9.4608,0.0251,-0.2782,-0.1680,-18.50,161.94,108.50,2.6977,2.1245,-8.7799,9.4275
11,17,0,1,1,96.517,96517,2.4800,2.4900,-8.5200,9.2163,-0.0731,0.1353,0.0295,-18.50,162.13,109.19,2.6690,2.1726,-8.7457,9.3985
11,17,0,1,1,96.647,96647,3.2000,2.0900,-8.8200,9.6125,-0.1844,0.2498,0.0164,-16.81,163.44,108.81,2.7390,2.1617,-8.7555,9.4252
11,17,0,1,1,96.820,96820,2.9700,2.0600,-8.3000,9.0529,-0.2509,-0.2454,-0.2094,-17.81,166.00,109.94,2.7695,2.1483,-8.6955,9.3753
11,17,0,1,1,96.950,96950,2.7500,1.9600,-8.2900,8.9514,-0.3163,-0.0796,0.0120,-19.13,167.75,110.94,2.7669,2.1235,-8.6420,9.3193
11,17,0,1,1,97.081,97081,3.0500,1.7600,-8.6200,9.3115,-0.3632,0.1113,-0.3534,-18.38,169.63,113.88,2.8042,2.0756,-8.6391,9.3170
11,17,0,1,1,97.211,97211,2.2800,1.5300,-9.2000,9.6010,-0.3938,0.0884,0.0076,-17.44,171.88,115.44,2.7351,2.0037,-8.7130,9.3495
11,17,0,1,1,97.342,97342,2.1000,0.7400,-9.3200,9.5823,0.0295,0.3196,0.1222,-15.75,173.06,115.31,2.6514,1.8372,-8.7930,9.3660
11,17,0,1,1,97.472,97472,2.9900,0.5800,-9.7100,10.1765,-0.2978,0.2771,0.0753,-13.38,174.31,114.38,2.6960,1.6715,-8.9138,9.4615
11,17,0,1,1,97.602,97602,2.3600,1.2400,-9.2900,9.6650,-0.0033,-0.3316,-0.0196,-13.63,175.94,114.50,2.6518,1.6147,-8.9634,9.4859
11,17,0,1,1,97.732,97732,1.7100,-0.0800,-8.8600,9.0239,0.1996,-0.1287,0.0447,-15.69,174.38,114.50,2.5277,1.3913,-8.9498,9.4034
11,17,0,1,1,97.910,97910,2.8300,-0.4600,-9.2200,9.6555,-0.5912,0.4909,0.2400,-13.19,177.13,113.31,2.5675,1.1474,-8.9854,9.4152
11,17,0,1,1,98.040,98040,2.2900,0.4800,-10.1100,10.3772,-0.5607,-0.1484,0.0273,-12.50,-177.69,112.63,2.5309,1.0594,-9.1336,9.5368
11,17,0,1,1,98.172,98172,1.8100,-0.2600,-9.2200,9.3996,0.3392,-0.1222,-0.1931,-13.44,-177.94,112.44,2.4359,0.8856,-9.1450,9.5052
11,17,0,1,1,98.302,98302,1.0200,-0.7500,-9.6300,9.7129,0.1625,0.2116,-0.1189,-13.50,-179.88,112.88,2.2493,0.6700,-9.2089,9.5033
11,17,0,1,1,98.433,98433,2.1300,0.1500,-8.9900,9.2401,0.0633,0.7047,-0.1178,-8.69,179.50,113.69,2.2336,0.6015,-9.1800,9.4670
11,17,0,1,1,98.563,98563,1.0900,-0.8300,-9.4400,9.5389,-0.1767,-0.0524,0.0894,-7.13,179.44,113.94,2.0829,0.4129,-9.2143,9.4558
11,17,0,1,1,98.694,98694,1.7900,-0.5100,-10.0900,10.2602,-0.6545,0.2847,0.1920,-6.00,-176.63,112.50,2.0443,0.2913,-9.3297,9.5555
11,17,0,1,1,98.824,98824,1.8500,-0.7300,-8.8200,9.0414,-0.2225,-0.6818,0.0687,-7.25,-173.50,111.44,2.0187,0.1567,-9.2625,9.4813
11,17,0,1,1,98.997,98997,-0.2900,-0.1900,-10.0100,10.0160,0.2673,0.4342,-0.5727,-11.63,-173.63,112.50,1.7145,0.1110,-9.3610,9.5174
11,17,0,1,1,99.128,99128,1.0800,-1.0900,-10.2500,10.3642,0.7221,1.2883,-0.4472,-4.00,-178.88,116.75,1.6309,-0.0473,-9.4782,9.6176
11,17,0,1,1,99.258,99258,1.8900,-0.4700,-10.0600,10.2468,-0.3774,-0.0196,0.1734,0.69,-179.94,117.06,1.6650,-0.1030,-9.5548,9.6994
11,17,0,1,1,99.389,99389,0.1400,0.6100,-9.6900,9.7102,0.0218,-0.4505,0.0185,-2.06,-177.75,115.75,1.4641,-0.0090,-9.5727,9.6840
11,17,0,1,1,99.519,99519,0.2500,-1.2100,-9.2300,9.3123,0.2793,-0.0305,-0.0185,-3.44,179.94,116.25,1.3041,-0.1673,-9.5275,9.6178
11,17,0,1,1,99.652,99652,-0.7200,0.1000,-9.4400,9.4679,-0.2378,0.4560,-0.1287,-2.56,-178.75,116.38,1.0374,-0.1321,-9.5160,9.5733
11,17,0,1,1,99.783,99783,1.0700,-0.3000,-10.0900,10.1510,0.2520,0.6480,0.0120,2.81,-179.31,117.63,1.0417,-0.1542,-9.5916,9.6492
11,17,0,1,1,99.917,99917,0.0400,-0.0400,-9.1200,9.1202,0.1931,-0.6512,0.1309,2.31,179.25,115.75,0.9097,-0.1391,-9.5295,9.5738
11,17,0,1,1,100.090,100090,0.1200,0.5100,-10.3900,10.4032,-0.1942,0.3033,-0.2356,-0.38,179.69,115.44,0.8056,-0.0536,-9.6429,9.6766
11,17,0,1,1,100.220,100220,0.1500,-0.4900,-10.1300,10.1430,-0.1909,-0.0229,0.1713,0.56,-179.44,115.38,0.7192,-0.1111,-9.7071,9.7343
11,17,0,1,1,100.350,100350,0.5500,-1.0900,-9.0600,9.1419,-0.5945,-0.8476,0.7690,-2.63,-176.81,111.19,0.6969,-0.2401,-9.6218,9.6500
11,17,0,1,1,100.480,100480,0.7000,0.5300,-10.5800,10.6164,-0.0349,0.0665,0.0109,-5.38,-173.31,109.38,0.6973,-0.1386,-9.7481,9.7739
11,17,0,1,1,100.610,100610,1.0300,-0.2700,-9.7500,9.8080,1.1345,-0.1069,-0.1440,-4.94,-178.56,111.38,0.7412,-0.1559,-9.7483,9.7777
11,17,0,1,1,100.740,100740,0.6900,-0.5300,-10.1700,10.2071,0.0884,-0.0371,0.2814,-5.56,176.44,110.69,0.7344,-0.2052,-9.8039,9.8335
11,17,0,1,1,100.870,100870,0.5500,0.8600,-8.6100,8.6703,0.1396,-0.1353,0.0807,-5.63,176.31,110.56,0.7101,-0.0649,-9.6466,9.6729
11,17,0,1,1,101.001,101001,1.7800,-0.9800,-9.9100,10.1162,-0.3774,0.2651,1.0134,-5.00,176.50,107.75,0.8511,-0.1854,-9.6813,9.7204
11,17,0,1,1,101.174,101174,1.1300,1.1000,-10.1800,10.3014,-0.1724,-1.3603,-0.4625,-12.25,-177.38,102.50,0.8879,-0.0161,-9.7470,9.7874
11,17,0,1,1,101.305,101305,0.3200,0.4800,-9.5400,9.5574,1.0472,0.3796,-0.8727,-15.69,176.75,107.31,0.8130,0.0493,-9.7197,9.7538
11,17,0,1,1,101.436,101436,2.9200,0.5200,-9.3800,9.8377,0.3600,0.5051,-0.1931,-10.00,170.44,110.88,1.0907,0.1113,-9.6749,9.7369
11,17,0,1,1,101.568,101568,1.9000,0.0300,-7.7400,7.9698,0.2171,-0.9228,0.1985,-12.19,167.94,110.75,1.1973,0.1006,-9.4200,9.4963
11,17,0,1,1,101.699,101699,2.9100,3.0100,-10.3400,11.1554,-0.5389,0.2542,-0.2727,-13.88,171.75,111.81,1.4230,0.4840,-9.5412,9.6589
11,17,0,1,1,101.833,101833,1.5500,2.7600,-8.8700,9.4179,0.9228,-0.2836,-0.5541,-13.81,169.06,115.13,1.4397,0.7839,-9.4528,9.5939
11,17,0,1,1,101.964,101964,1.1900,1.8500,-8.2000,8.4899,0.7603,0.6272,0.6774,-12.81,161.13,114.81,1.4068,0.9244,-9.2877,9.4390
11,17,0,1,1,102.094,102094,3.5000,2.5000,-8.2500,9.3039,-0.0207,0.5269,0.7418,-10.75,160.94,108.25,1.6827,1.1320,-9.1509,9.3730
11,18,0,1,1,102.267,102267,2.6300,3.1300,-9.5600,10.3975,-0.1516,-0.4178,-0.2367,-10.75,162.88,107.63,1.8075,1.3953,-9.2048,9.4838
11,18,0,1,1,102.398,102398,1.4500,2.6300,-8.6900,9.1943,0.1734,-0.3829,-0.3000,-13.38,161.50,110.75,1.7604,1.5580,-9.1370,9.4346
11,18,0,1,1,102.528,102528,1.7000,2.1400,-9.3000,9.6933,-0.2694,0.2531,0.2214,-13.31,161.38,111.38,1.7524,1.6347,-9.1585,9.4668
11,18,0,1,1,102.659,102659,2.6800,3.3800,-8.8600,9.8543,0.0382,0.1811,0.3567,-11.75,163.88,109.25,1.8747,1.8647,-9.1191,9.4947
11,18,0,1,1,102.790,102790,2.7500,1.8900,-9.3600,9.9370,-0.0829,-0.2509,0.2258,-13.00,162.75,106.31,1.9900,1.8680,-9.1509,9.5493
11,18,0,1,1,102.920,102920,1.9400,3.0700,-9.1200,9.8165,-0.0884,-0.0295,-0.3294,-13.44,163.81,108.31,1.9834,2.0264,-9.1468,9.5762
11,18,0,1,1,103.051,103051,2.3200,2.5200,-8.8200,9.4618,0.1724,0.0295,0.0218,-13.00,163.13,109.06,2.0278,2.0915,-9.1037,9.5585
11,18,0,1,1,103.181,103181,2.2300,2.0700,-7.8700,8.4377,-0.1331,0.1200,0.1527,-13.19,162.94,108.25,2.0544,2.0886,-8.9412,9.4089
11,18,0,1,1,103.354,103354,2.4500,2.4500,-9.4800,10.0933,-0.4167,0.0524,-0.3360,-12.06,167.06,109.19,2.1065,2.1362,-9.0122,9.4984
11,18,0,1,1,103.488,103488,2.7200,0.9500,-8.6700,9.1362,-0.2291,-0.4974,0.5334,-14.38,168.81,108.31,2.1874,1.9799,-8.9671,9.4400
11,18,0,1,1,103.619,103619,1.0000,2.0000,-10.1400,10.3836,-0.6000,0.4145,-0.4014,-16.31,173.88,107.63,2.0309,1.9826,-9.1216,9.5530
11,18,0,1,1,103.749,103749,2.3600,0.8600,-9.5300,9.8555,0.2662,0.9577,-0.2367,-9.81,174.06,110.13,2.0743,1.8346,-9.1755,9.5842
11,18,0,1,1,103.880,103880,2.8400,0.6400,-8.2800,8.7769,0.0633,-0.3709,0.0120,-8.38,173.25,109.06,2.1752,1.6772,-9.0575,9.4648
11,18,0,1,1,104.010,104010,1.2300,0.2500,-9.7400,9.8205,-0.5618,-0.3262,-0.1560,-12.63,175.50,108.75,2.0506,1.4892,-9.1474,9.4920
11,18,0,1,1,104.142,104142,2.1500,0.3700,-8.5600,8.8336,-0.2629,0.3022,-0.2149,-10.94,178.38,110.94,2.0637,1.3417,-9.0700,9.3981
11,18,0,1,1,104.272,104272,2.3400,-0.5300,-9.1400,9.4497,-0.4407,-0.1625,-0.0687,-10.88,-179.38,111.38,2.1001,1.0950,-9.0792,9.3831
11,18,0,1,1,104.445,104445,1.5800,-0.0200,-9.7400,9.8673,-0.0404,0.1756,-0.1505,-11.63,-175.94,112.19,2.0316,0.9481,-9.1663,9.4365
11,18,0,1,1,104.575,104575,1.4300,-0.3700,-9.5300,9.6438,0.2149,0.1298,-0.0916,-10.50,-177.25,112.94,1.9523,0.7744,-9.2142,9.4506
11,18,0,1,1,104.706,104706,1.8600,-0.1600,-9.1600,9.3483,0.3000,0.3098,0.0295,-8.56,-178.88,112.75,1.9402,0.6513,-9.2071,9.4318
11,18,0,1,1,104.837,104837,1.1500,-0.5600,-9.3100,9.3975,0.2182,-0.1669,0.1145,-8.44,179.06,112.38,1.8360,0.4917,-9.2206,9.4145
11,18,0,1,1,104.972,104972,1.0700,0.1700,-9.6100,9.6709,-0.0142,0.2618,0.1069,-7.88,179.13,111.38,1.7351,0.4493,-9.2719,9.4436
11,18,0,1,1,105.102,105102,1.3000,-0.4400,-8.7400,8.8471,-0.0884,0.2062,-0.0011,-5.94,179.44,110.94,1.6778,0.3321,-9.2018,9.3594
11,18,0,1,1,105.234,105234,-0.2600,-0.9600,-10.0500,10.0991,-0.3698,0.1571,0.4331,-5.88,-178.38,109.56,1.4224,0.1618,-9.3136,9.4230
11,18,0,1,1,105.364,105364,0.8700,0.4600,-10.9700,11.0141,0.0905,1.0341,-0.2280,-0.38,-176.75,109.25,1.3496,0.2011,-9.5319,9.6291
11,18,0,1,1,105.537,105537,0.4300,-0.3100,-9.7400,9.7544,0.0622,-0.2280,0.0971,3.00,-179.19,111.31,1.2284,0.1338,-9.5593,9.6388
11,18,0,1,1,105.667,105667,-0.0300,-0.1900,-10.1400,10.1418,-0.1942,-0.4036,0.0873,0.19,-178.50,110.25,1.0626,0.0911,-9.6358,9.6947
11,18,0,1,1,105.797,105797,-0.2700,-0.2000,-9.3800,9.3860,0.0055,-0.0884,-0.0425,-1.56,-177.63,109.81,0.8870,0.0527,-9.6021,9.6431
11,18,0,1,1,105.927,105927,0.5400,-0.9900,-9.6700,9.7355,0.0349,0.2618,-0.0109,-0.19,-178.50,110.44,0.8413,-0.0847,-9.6111,9.6482
11,18,0,1,1,106.057,106057,0.5600,0.2800,-9.9500,9.9697,-0.2934,0.0905,-0.1440,1.19,-176.44,110.25,0.8042,-0.0366,-9.6557,9.6892
11,18,0,1,1,106.187,106187,-0.0700,-0.5600,-10.1900,10.2056,0.3065,-0.0284,-0.2389,0.81,-177.25,110.63,0.6890,-0.1056,-9.7261,9.7511
11,18,0,1,1,106.337,106337,0.2000,-0.0600,-9.1500,9.1524,0.2978,-0.0273,-0.2847,1.06,-179.25,111.88,0.6246,-0.0996,-9.6502,9.6709
11,18,0,1,1,106.467,106467,0.4000,-0.8800,-10.0400,10.0864,-0.4974,-0.3622,0.1244,-0.63,-179.25,111.00,0.5950,-0.2024,-9.7016,9.7219
11,18,0,1,1,106.640,106640,0.0700,-0.5900,-11.0300,11.0460,0.6992,0.5890,-0.0884,-1.88,-179.69,112.00,0.5258,-0.2535,-9.8766,9.8939
11,19,0,1,1,106.770,106770,1.1800,0.6000,-8.1200,8.2272,0.5967,-0.3840,0.0545,0.06,176.88,112.50,0.6120,-0.1410,-9.6451,9.6656
11,19,0,1,1,106.900,106900,-0.5700,-0.2700,-10.0700,10.0897,-0.3218,-0.2509,0.3807,-4.56,174.94,110.88,0.4562,-0.1580,-9.7011,9.7131
11,19,0,1,1,107.030,107030,2.2700,0.4400,-9.4300,9.7093,-0.3360,-0.0622,0.5203,-3.88,177.94,108.06,0.6953,-0.0792,-9.6654,9.6907
11,19,0,1,1,107.161,107161,0.4900,0.5700,-9.2400,9.2705,0.1691,-0.5236,0.0360,-7.63,179.38,105.69,0.6682,0.0063,-9.6093,9.6326
11,19,0,1,1,107.291,107291,0.9100,-0.1400,-9.2100,9.2559,0.2760,0.7429,-0.0687,-6.06,176.63,106.38,0.7001,-0.0129,-9.5567,9.5823
11,19,0,1,1,107.421,107421,2.0500,1.0200,-9.6600,9.9277,-0.0720,0.2585,0.0371,-1.75,176.50,106.44,0.8780,0.1232,-9.5703,9.6113
11,19,0,1,1,107.552,107552,1.1400,0.9400,-9.8100,9.9207,0.1582,-0.3851,0.1200,-3.31,175.69,106.06,0.9125,0.2308,-9.6019,9.6479
11,19,0,1,1,107.724,107724,1.2100,-0.8500,-9.0900,9.2095,-0.1364,-0.2182,0.2193,-6.19,173.31,106.00,0.9517,0.0884,-9.5345,9.5822
11,19,0,1,1,107.854,107854,1.5600,0.4500,-9.8500,9.9829,-0.8061,-0.1636,0.2749,-8.06,178.31,104.13,1.0319,0.1360,-9.5760,9.6324
11,19,0,1,1,107.984,107984,0.6600,0.8300,-10.5100,10.5634,0.3567,0.2683,-0.2760,-7.75,-179.56,105.31,0.9829,0.2275,-9.6991,9.7514
11,19,0,1,1,108.114,108114,1.9800,0.5400,-10.0200,10.2280,0.4320,0.1265,-0.0622,-5.38,177.00,106.25,1.1142,0.2687,-9.7414,9.8086
11,19,0,1,1,108.244,108244,1.5200,1.1200,-9.1600,9.3526,0.6065,-0.4952,-0.2182,-7.25,173.06,107.63,1.1677,0.3808,-9.6648,9.7425
11,19,0,1,1,108.374,108374,2.6500,2.1500,-9.2700,9.8782,0.5465,-0.4920,-0.1636,-10.75,168.69,108.94,1.3630,0.6140,-9.6128,9.7283
11,19,0,1,1,108.505,108505,2.1000,1.3800,-7.9800,8.3663,0.7232,-0.7243,-0.0371,-15.25,162.56,110.19,1.4602,0.7149,-9.3976,9.5372
11,19,0,1,1,108.635,108635,2.0100,3.0000,-7.9300,8.7135,-0.1767,0.0382,-0.0949,-17.25,160.69,111.69,1.5326,1.0160,-9.2042,9.3861
11,19,0,1,1,108.808,108808,2.6400,3.0000,-8.3100,9.2209,0.4058,0.3436,0.3676,-14.56,160.31,110.00,1.6785,1.2775,-9.0864,9.3280
11,19,0,1,1,108.938,108938,2.9500,2.8700,-9.0000,9.8964,0.1516,0.1713,0.2182,-13.88,158.94,107.06,1.8461,1.4873,-9.0750,9.3795
11,19,0,1,1,109.068,109068,2.9400,4.0300,-7.0700,8.6527,0.2389,-0.2629,0.0894,-14.56,159.13,105.81,1.9902,1.8224,-8.8108,9.2148
11,19,0,1,1,109.198,109198,2.7100,2.1200,-8.5500,9.2163,-0.4374,-0.3043,-0.0011,-17.00,157.38,105.88,2.0851,1.8616,-8.7764,9.2108
11,19,0,1,1,109.328,109328,2.8100,3.8700,-8.5800,9.8229,-0.1113,0.5127,-0.1167,-15.81,161.38,107.38,2.1806,2.1263,-8.7505,9.2654
11,19,0,1,1,109.458,109458,2.8900,2.8800,-8.9400,9.8270,-0.1734,0.0502,0.2040,-13.88,161.56,106.38,2.2741,2.2256,-8.7755,9.3346
11,19,0,1,1,109.588,109588,2.4800,3.1600,-8.3300,9.2480,0.1800,0.0480,0.0011,-13.88,161.38,105.88,2.3012,2.3487,-8.7168,9.3164
11,19,0,1,1,109.719,109719,2.3900,2.9600,-8.0400,8.8947,0.0098,0.1898,0.0480,-13.25,160.81,105.19,2.3129,2.4293,-8.6276,9.2567
11,19,0,1,1,109.892,109892,2.3600,3.6900,-8.5900,9.6423,-0.1582,0.0873,-0.1538,-11.75,163.25,104.63,2.3191,2.5954,-8.6227,9.2986
11,19,0,1,1,110.023,110023,2.1900,1.8900,-9.3100,9.7491,-0.0971,-0.1494,-0.0862,-11.25,162.38,106.13,2.3021,2.5024,-8.7132,9.3532
11,19,0,1,1,110.153,110153,1.5000,3.7600,-8.5000,9.4148,0.1211,0.1429,-0.1374,-12.00,164.06,106.44,2.1964,2.6682,-8.6851,9.3475
11,19,0,1,1,110.287,110287,2.2900,1.1200,-8.8400,9.2002,0.0556,0.3262,0.1985,-9.31,161.25,106.25,2.2087,2.4642,-8.7055,9.3133
11,19,0,1,1,110.418,110418,2.4500,3.6600,-9.3200,10.3083,-0.3894,-0.0295,-0.2345,-9.00,165.13,106.06,2.2405,2.6217,-8.7865,9.4391
11,19,0,1,1,110.551,110551,2.3200,2.0800,-8.2200,8.7907,0.3982,-0.4952,-0.0927,-10.69,163.25,107.81,2.2510,2.5503,-8.7119,9.3524
11,19,0,1,1,110.681,110681,1.4300,1.8500,-8.9100,9.2117,-0.5051,-0.1145,-0.1178,-14.00,164.13,108.31,2.1428,2.4581,-8.7380,9.3266
11,19,0,1,1,110.812,110812,2.0600,2.8000,-9.0300,9.6760,-0.2083,0.7898,-0.0065,-10.50,167.25,109.31,2.1319,2.5031,-8.7765,9.3721
11,19,0,1,1,110.985,110985,1.0700,3.2100,-8.9300,9.5496,0.2520,-0.0774,0.2083,-7.81,168.25,107.25,1.9920,2.5963,-8.7967,9.3856
11,19,0,1,1,111.116,111116,1.1700,0.9800,-9.2900,9.4145,0.5661,0.3622,0.1167,-6.88,163.69,105.63,1.8837,2.3833,-8.8617,9.3679
11,19,0,1,1,111.246,111246,1.8700,1.2400,-9.6500,9.9074,-0.7909,-0.0622,0.1124,-6.06,165.38,103.75,1.8819,2.2326,-8.9656,9.4291
11,19,0,1,1,111.377,111377,0.7800,2.0500,-10.2000,10.4332,-0.4756,-0.1276,-0.1582,-7.13,170.75,104.94,1.7367,2.2086,-9.1282,9.5508
11,19,0,1,1,111.507,111507,1.7200,1.6400,-8.8400,9.1539,0.0938,0.1865,-0.1887,-5.75,171.56,105.81,1.7345,2.1336,-9.0903,9.4970
11,19,0,1,1,111.638,111638,0.5400,0.5200,-9.5600,9.5893,-0.2618,-0.3316,0.1298,-7.06,171.38,106.38,1.5771,1.9210,-9.1522,9.4836
11,19,0,1,1,111.769,111769,1.6400,1.9700,-10.5900,10.8958,-0.3043,0.5465,-0.0753,-5.25,174.31,106.75,1.5854,1.9275,-9.3416,9.6693
11,20,0,1,1,111.900,111900,1.3800,0.6300,-8.1800,8.3195,0.4440,-0.3829,-0.1178,-4.31,172.88,108.00,1.5583,1.7565,-9.1886,9.4838
11,20,0,1,1,112.073,112073,0.6600,0.8600,-9.9600,10.0188,-0.8029,0.3840,-0.0567,-5.31,175.00,108.63,1.4399,1.6384,-9.2902,9.5428
11,20,0,1,1,112.206,112206,1.3000,0.0000,-10.1400,10.2230,-0.2323,0.1756,-0.1102,-2.63,178.63,109.88,1.4215,1.4225,-9.4022,9.6148
11,20,0,1,1,112.336,112336,2.2600,0.1000,-9.0300,9.3091,-0.3971,-0.8716,0.1080,-5.00,-179.06,107.44,1.5320,1.2482,-9.3531,9.5596
11,20,0,1,1,112.468,112468,-1.0300,-0.1800,-9.4000,9.4580,0.1036,0.0676,-0.4014,-10.56,-178.19,109.31,1.1944,1.0600,-9.3593,9.4946
11,20,0,1,1,112.598,112598,0.8200,0.0200,-9.7400,9.7745,0.1942,1.4017,-0.3065,-3.06,-179.75,111.75,1.1450,0.9229,-9.4095,9.5237
11,20,0,1,1,112.728,112728,1.1300,-0.4900,-10.1700,10.2443,0.0044,0.4811,-0.0862,3.56,179.31,113.25,1.1431,0.7368,-9.5097,9.6064
11,20,0,1,1,112.859,112859,0.6500,0.0900,-10.5700,10.5903,-0.7090,-0.4789,0.2662,2.06,-177.25,111.69,1.0781,0.6515,-9.6494,9.7313
11,20,0,1,1,112.989,112989,0.2300,0.1400,-9.9800,9.9836,0.2073,-0.3949,-0.0142,-1.13,-175.38,110.50,0.9663,0.5841,-9.6930,9.7585
11,20,0,1,1,113.162,113162,0.1600,-0.4200,-9.3500,9.3608,0.1134,0.1636,-0.0644,-2.31,-177.94,110.63,0.8601,0.4518,-9.6478,9.6966
11,20,0,1,1,113.293,113293,0.4700,-0.6900,-8.5200,8.5608,0.2051,-0.0927,0.0654,-1.75,-179.06,110.75,0.8087,0.3013,-9.4992,9.5383
11,20,0,1,1,113.424,113424,0.5100,-0.3600,-10.2700,10.2890,-0.2913,0.3916,-0.0404,-1.06,-178.69,110.06,0.7693,0.2142,-9.6007,9.6339
11,20,0,1,1,113.554,113554,1.0900,0.3800,-9.9000,9.9671,0.1767,-0.1560,-0.1265,0.25,-177.75,110.25,0.8116,0.2360,-9.6402,9.6772
11,20,0,1,1,113.685,113685,0.0900,-0.4900,-9.9400,9.9525,0.2040,-0.2716,-0.0360,-2.00,-179.94,110.31,0.7165,0.1404,-9.6797,9.7072
11,20,0,1,1,113.815,113815,0.9600,1.0900,-10.5600,10.6594,0.1996,0.1080,-0.1440,-2.13,179.56,110.63,0.7486,0.2655,-9.7957,9.8278
11,20,0,1,1,113.950,113950,0.9100,0.1500,-9.4200,9.4650,0.6338,-0.1800,0.0371,-2.69,175.81,110.94,0.7699,0.2503,-9.7462,9.7797
11,20,0,1,1,114.080,114080,1.0300,0.1900,-9.0600,9.1203,0.0284,0.1069,0.1778,-2.94,173.56,110.25,0.8041,0.2423,-9.6558,9.6922
11,20,0,1,1,114.253,114253,0.5900,1.0200,-9.8600,9.9302,-0.0011,-0.1636,-0.0654,-3.19,174.06,109.69,0.7759,0.3448,-9.6827,9.7198
11,20,0,1,1,114.383,114383,0.8200,1.3700,-9.5900,9.7220,0.1167,-0.2094,0.0022,-4.44,173.81,109.69,0.7817,0.4799,-9.6705,9.7139
11,20,0,1,1,114.514,114514,1.3900,1.3100,-9.7800,9.9648,0.3360,-0.1909,-0.0065,-5.94,172.19,109.75,0.8619,0.5893,-9.6849,9.7410
11,20,0,1,1,114.644,114644,0.9600,1.2600,-9.6700,9.7989,0.3665,-0.1985,0.0415,-7.69,169.38,109.81,0.8748,0.6777,-9.6829,9.7460
11,20,0,1,1,114.775,114775,1.9300,1.9600,-8.4200,8.8579,0.2040,-0.1178,0.0513,-7.94,167.44,109.75,1.0139,0.8467,-9.5165,9.6077
11,20,0,1,1,114.905,114905,1.8900,2.1100,-8.9200,9.3590,0.0284,-0.3600,0.1069,-10.56,166.69,109.00,1.1293,1.0131,-9.4379,9.5591
11,20,0,1,1,115.036,115036,1.9700,1.7900,-9.1000,9.4813,-0.1996,-0.0480,0.1996,-11.88,167.56,108.75,1.2401,1.1155,-9.3934,9.5403
11,20,0,1,1,115.166,115166,2.3200,1.9300,-9.4400,9.9106,0.4483,-0.3196,-0.1036,-12.88,166.94,108.56,1.3824,1.2228,-9.3995,9.5790
11,20,0,1,1,115.339,115339,2.1800,3.4300,-8.8600,9.7477,0.5247,-0.1800,-0.0927,-15.31,164.31,108.69,1.4875,1.5137,-9.3284,9.5668
11,20,0,1,1,115.469,115469,2.6900,2.6000,-8.3800,9.1772,0.7625,-0.1647,0.2640,-16.56,159.13,107.25,1.6460,1.6568,-9.2034,9.4951
11,20,0,1,1,115.599,115599,2.7600,2.6400,-7.2700,8.2122,0.3720,0.0545,0.3087,-17.31,156.13,105.06,1.7928,1.7864,-8.9487,9.2997
11,20,0,1,1,115.729,115729,3.0500,4.2500,-7.6900,9.3006,-0.4036,0.3632,0.1396,-16.00,158.31,104.13,1.9584,2.1110,-8.7828,9.2428
11,20,0,1,1,115.859,115859,3.4000,3.8700,-9.6300,10.9213,-0.0513,-0.0425,-0.0240,-15.25,159.31,103.00,2.1484,2.3428,-8.8944,9.4454
11,20,0,1,1,115.989,115989,2.9400,3.2400,-8.1300,9.2324,0.6720,-0.2694,0.1309,-16.81,156.94,102.56,2.2527,2.4610,-8.7937,9.4054
11,20,0,1,1,116.119,116119,2.8600,2.6400,-7.1800,8.1671,-0.1396,0.0535,-0.0065,-18.06,154.69,101.63,2.3327,2.4846,-8.5811,9.2331
11,21,0,1,1,116.249,116249,3.6400,4.1100,-9.1100,10.6364,-0.6698,0.3971,-0.0971,-16.13,159.44,102.50,2.5050,2.6988,-8.6508,9.4018
11,21,0,1,1,116.422,116422,2.6600,3.2000,-8.1400,9.1419,0.3632,-0.1025,0.0622,-15.63,158.88,102.75,2.5254,2.7649,-8.5835,9.3647
11,21,0,1,1,116.552,116552,2.4400,2.9600,-8.6800,9.4899,-0.3098,0.2367,-0.1571,-15.00,158.75,103.19,2.5142,2.7906,-8.5962,9.3810
11,21,0,1,1,116.682,116682,2.4900,3.6600,-8.9300,9.9670,-0.0731,0.1254,-0.0382,-13.69,160.50,103.69,2.5110,2.9051,-8.6402,9.4550
11,21,0,1,1,116.812,116812,2.4800,2.9200,-8.6100,9.4238,0.0349,0.0229,-0.0185,-13.25,160.13,103.44,2.5069,2.9071,-8.6362,9.4509
11,21,0,1,1,116.942,116942,2.3500,2.8600,-8.8600,9.6022,-0.1822,0.0055,-0.1396,-13.50,160.81,103.81,2.4862,2.9009,-8.6657,9.4705
11,21,0,1,1,117.072,117072,2.4100,2.9300,-8.7100,9.5004,-0.0927,-0.0491,-0.1374,-13.50,161.63,104.88,2.4762,2.9047,-8.6715,9.4744
11,21,0,1,1,117.203,117203,2.3800,2.7700,-8.6200,9.3617,-0.0764,0.0425,-0.0916,-13.50,162.19,105.69,2.4635,2.8870,-8.6647,9.4594
11,21,0,1,1,117.333,117333,2.2500,2.6700,-8.9400,9.5977,-0.1789,0.0829,-0.0840,-12.75,162.94,106.25,2.4354,2.8584,-8.7010,9.4768
11,21,0,1,1,117.506,117506,2.2500,2.5600,-8.6300,9.2786,-0.0349,-0.1549,-0.0371,-12.81,163.94,107.19,2.4109,2.8191,-8.6917,9.4501
11,21,0,1,1,117.637,117637,2.7200,2.1100,-8.6400,9.3005,-0.3240,-0.3131,0.2094,-14.63,164.81,106.94,2.4517,2.7256,-8.6848,9.4269
11,21,0,1,1,117.767,117767,1.7600,2.2000,-8.5800,9.0307,-0.2313,-0.0033,-0.0251,-16.63,167.06,106.81,2.3605,2.6564,-8.6710,9.3710
11,21,0,1,1,117.898,117898,2.8500,1.9600,-9.1100,9.7445,-0.0873,0.4636,0.0436,-14.13,168.44,106.63,2.4250,2.5646,-8.7289,9.4155
11,21,0,1,1,118.028,118028,2.7500,1.7400,-9.1300,9.6926,0.0567,-0.0480,0.0076,-13.13,168.56,106.06,2.4678,2.4559,-8.7817,9.4467
11,21,0,1,1,118.160,118160,1.9600,1.3800,-9.0500,9.3621,-0.0807,-0.1931,-0.0840,-14.50,168.50,106.19,2.4009,2.3142,-8.8171,9.4266
11,21,0,1,1,118.291,118291,2.1000,1.2700,-9.0200,9.3479,-0.3458,0.2509,-0.0404,-13.81,170.44,106.81,2.3613,2.1766,-8.8438,9.4088
11,21,0,1,1,118.424,118424,1.9800,1.4800,-9.7200,10.0294,-0.2389,0.4865,-0.1222,-10.56,172.75,107.88,2.3110,2.0848,-8.9593,9.4845
11,21,0,1,1,118.597,118597,1.3500,0.5800,-9.0300,9.1488,0.0185,0.0676,-0.0305,-8.38,172.63,108.00,2.1844,1.8865,-8.9686,9.4216
11,21,0,1,1,118.727,118727,0.9600,0.4100,-10.1300,10.1836,-0.5378,0.2902,-0.0087,-7.13,174.75,108.13,2.0230,1.6919,-9.1216,9.4952
11,21,0,1,1,118.858,118858,1.3000,1.1800,-9.6100,9.7691,-0.0774,0.0458,-0.0993,-5.75,177.31,108.75,1.9278,1.6245,-9.1860,9.5256
11,21,0,1,1,118.989,118989,0.9700,0.1700,-9.3300,9.3818,-0.0644,-0.1702,-0.0818,-6.75,177.31,109.00,1.8016,1.4328,-9.2050,9.4884
11,21,0,1,1,119.119,119119,0.5100,0.0200,-9.0800,9.0943,-0.0284,0.0796,-0.1527,-6.63,177.75,109.88,1.6314,1.2466,-9.1885,9.4151
11,21,0,1,1,119.249,119249,0.6400,-0.3100,-9.7900,9.8158,-0.2967,0.3436,0.0349,-4.44,179.19,110.31,1.5007,1.0415,-9.2678,9.4461
11,21,0,1,1,119.380,119380,0.7300,0.0500,-9.6700,9.6976,-0.2258,0.3251,-0.0305,-1.94,-178.50,110.38,1.3992,0.9109,-9.3208,9.4691
11,21,0,1,1,119.510,119510,0.2700,-0.4100,-9.7200,9.7324,-0.0622,0.2465,-0.0415,-0.31,-177.88,110.19,1.2504,0.7368,-9.3734,9.4851
11,21,0,1,1,119.683,119683,0.1600,-0.4100,-9.8600,9.8698,-0.0971,-0.0709,0.0360,0.00,-176.75,110.31,1.1067,0.5857,-9.4375,9.5202
11,21,0,1,1,119.813,119813,0.2000,-0.4600,-9.8500,9.8628,-0.0240,-0.0851,-0.0404,-0.56,-176.38,110.44,0.9872,0.4479,-9.4919,9.5536
11,21,0,1,1,119.943,119943,0.0900,-0.3900,-9.8500,9.8581,0.1254,-0.1374,0.1124,-1.50,-176.75,110.56,0.8690,0.3375,-9.5391,9.5845
11,21,0,1,1,120.073,120073,0.6800,-0.3600,-9.6400,9.6707,0.2716,-0.0349,0.1091,-1.56,-178.50,109.06,0.8441,0.2456,-9.5524,9.5927
11,21,0,1,1,120.203,120203,0.2200,-0.5900,-9.3800,9.4011,0.0087,-0.1429,0.0229,-2.56,-179.06,108.38,0.7618,0.1355,-9.5296,9.5610
11,21,0,1,1,120.333,120333,-0.2500,-0.2400,-9.8800,9.8861,0.0284,0.3043,0.1396,-2.13,-178.81,108.38,0.6285,0.0860,-9.5758,9.5968
11,21,0,1,1,120.463,120463,1.2800,0.6600,-9.6900,9.7964,0.4985,0.3556,0.4243,1.00,179.06,104.75,0.7144,0.1616,-9.5909,9.6188
11,21,0,1,1,120.594,120594,-0.0300,0.0500,-8.4100,8.4102,0.0720,-0.4920,-0.0044,0.00,176.56,104.19,0.6163,0.1469,-9.4353,9.4565
11,21,0,1,1,120.766,120766,-0.4100,0.3800,-9.8400,9.8559,-0.4363,0.1451,0.0305,-2.50,179.81,104.44,0.4810,0.1776,-9.4886,9.5024
11,21,0,1,1,120.896,120896,0.7500,0.3800,-9.9100,9.9456,-0.0654,0.2378,0.0305,-0.31,-178.50,104.69,0.5165,0.2043,-9.5441,9.5603
11,21,0,1,1,121.026,121026,0.1700,-0.1100,-9.6400,9.6421,0.0916,-0.0720,-0.0622,-0.63,-179.06,104.50,0.4708,0.1629,-9.5568,9.5697
11,21,0,1,1,121.156,121156,0.0900,0.2700,-10.4500,10.4539,0.1200,0.1593,-0.2214,-0.06,-179.94,105.06,0.4206,0.1770,-9.6745,9.6852
11,21,0,1,1,121.286,121286,0.7800,0.3800,-9.9700,10.0077,0.5181,0.0251,-0.2520,0.31,177.81,106.69,0.4680,0.2037,-9.7134,9.7268
11,21,0,1,1,121.416,121416,1.2800,-0.1100,-9.0600,9.1506,0.2978,-0.5072,-0.0927,-1.50,174.63,107.44,0.5750,0.1624,-9.6273,9.6458
11,21,0,1,1,121.547,121547,0.4900,0.0700,-9.4300,9.4430,-0.2520,-0.3153,-0.2258,-5.00,174.50,108.63,0.5638,0.1502,-9.6013,9.6190
11,21,0,1,1,121.677,121677,0.4700,1.4800,-9.9400,10.0606,-0.2214,-0.1571,-0.2716,-6.13,176.69,110.31,0.5514,0.3255,-9.6459,9.6672
11,21,0,1,1,121.850,121850,2.0000,0.2400,-9.5400,9.7503,0.3011,-0.4178,0.3491,-7.94,176.00,110.25,0.7423,0.3142,-9.6320,9.6656
11,21,0,1,1,121.980,121980,0.5900,-0.0900,-8.4300,8.4511,-0.4167,-0.5378,0.3785,-12.06,176.56,109.44,0.7222,0.2609,-9.4736,9.5047
11,21,0,1,1,122.111,122111,0.0700,0.0600,-9.9900,9.9904,0.2247,0.8116,-0.3283,-11.25,177.69,110.75,0.6363,0.2345,-9.5416,9.5657
11,21,0,1,1,122.241,122241,2.4100,0.6200,-8.8100,9.1547,0.1080,0.3872,0.2236,-5.75,177.31,109.25,0.8700,0.2853,-9.4452,9.4895
11,21,0,1,1,122.372,122372,1.4500,0.0700,-8.8400,8.9584,-0.5847,-0.6545,0.7123,-8.31,179.00,104.88,0.9465,0.2569,-9.3655,9.4167
11,21,0,1,1,122.503,122503,1.6600,1.0500,-11.0400,11.2134,0.1745,0.2542,-0.1582,-9.31,-179.13,103.88,1.0405,0.3614,-9.5861,9.6492
11,21,0,1,1,122.633,122633,1.6700,1.1100,-10.2400,10.4345,1.2850,-0.1331,-0.3174,-9.00,174.94,105.00,1.1234,0.4601,-9.6723,9.7482
11,21,0,1,1,122.764,122764,1.9400,1.0200,-7.8500,8.1502,0.8618,-0.7592,-0.1604,-11.38,166.00,106.69,1.2310,0.5338,-9.4322,9.5271
11,21,0,1,1,122.940,122940,0.2100,3.1400,-9.0300,9.5627,0.1516,0.1473,0.1985,-17.00,162.31,106.56,1.0965,0.8773,-9.3792,9.4837
11,21,0,1,1,123.070,123070,2.1700,2.2100,-8.8100,9.3386,0.1124,1.0930,0.2487,-10.75,161.31,103.63,1.2380,1.0529,-9.3042,9.4450
11,21,0,1,1,123.202,123202,3.8900,2.6400,-8.8600,10.0300,0.0371,-0.6469,0.4734,-11.19,162.00,98.63,1.5874,1.2620,-9.2456,9.4654
11,21,0,1,1,123.332,123332,2.7200,3.4400,-8.1900,9.2902,0.1985,-0.8105,-0.1374,-17.44,161.00,97.88,1.7367,1.5490,-9.1065,9.3992
11,21,0,1,1,123.462,123462,1.6400,2.0600,-7.3900,7.8451,-0.0807,-0.0742,-0.5378,-19.19,158.00,102.19,1.7239,1.6164,-8.8803,9.1894
11,21,0,1,1,123.593,123593,2.6200,3.8100,-9.3900,10.4667,-0.7625,0.7363,-0.1178,-14.94,163.00,104.75,1.8420,1.9054,-8.9475,9.3317
11,21,0,1,1,123.723,123723,2.7800,3.4300,-8.9100,9.9439,0.4200,-0.0164,0.1473,-12.13,163.38,104.75,1.9656,2.1063,-8.9426,9.3952
11,21,0,1,1,123.854,123854,2.1800,2.3500,-9.0100,9.5632,0.0273,-0.3556,-0.0011,-14.13,160.88,104.25,1.9939,2.1384,-8.9514,9.4168
