participant,rep,equipment_code,exercise_code,quality_code,timestamp,timestamp_ms,accelX,accelY,accelZ,accelMag,gyroX,gyroY,gyroZ,roll,pitch,yaw,filteredX,filteredY,filteredZ,filteredMag
11,1,0,1,1,00.000,0,0.7900,1.1900,-9.4000,9.5079,-0.0229,0.0098,-0.0676,-0.63,173.00,154.38,0.6061,1.0019,-9.4854,9.5574
11,1,0,1,1,00.130,130,0.0000,1.1900,-10.0600,10.1301,0.0175,-0.2651,-0.1178,-1.94,172.81,156.38,0.5263,1.0267,-9.5611,9.6304
11,1,0,1,1,00.260,260,-0.1700,1.2500,-9.4900,9.5735,-0.0785,0.2487,-0.0960,-2.00,172.88,157.31,0.4345,1.0561,-9.5517,9.6197
11,1,0,1,1,00.390,390,1.3500,1.4000,-10.5500,10.7278,-0.1953,0.8476,0.3349,2.19,173.63,155.75,0.5551,1.1014,-9.6833,9.7615
11,1,0,1,1,00.520,520,1.8700,2.2000,-8.6700,9.1382,0.6763,-0.1342,-0.4091,4.81,173.75,155.94,0.7284,1.2462,-9.5497,9.6582
11,1,0,1,1,00.651,651,-0.0300,0.1300,-11.4400,11.4408,0.2553,-1.0265,-0.0469,0.38,166.44,158.38,0.6285,1.0991,-9.7988,9.8803
11,1,0,1,1,00.781,781,-2.0900,2.4400,-8.0100,8.6303,0.0447,-0.0404,-0.0436,-3.00,167.88,159.56,0.2702,1.2758,-9.5631,9.6516
11,1,0,1,1,00.954,954,0.6200,3.4400,-9.1700,9.8136,0.0109,0.8214,-0.0153,0.44,166.88,156.13,0.3163,1.5610,-9.5113,9.6437
11,1,0,1,1,01.085,1085,1.2700,2.1300,-9.7500,10.0604,0.9730,-0.3927,-0.2149,2.81,162.69,157.56,0.4420,1.6360,-9.5428,9.6921
11,1,0,1,1,01.215,1215,-0.8400,3.1100,-8.0000,8.6243,0.0033,-0.6240,-0.0535,-1.38,160.56,160.50,0.2731,1.8302,-9.3395,9.5210
11,1,0,1,1,01.346,1346,-0.1100,1.8800,-13.4700,13.6010,-0.1102,0.2356,0.6480,-4.56,159.88,158.81,0.2226,1.8368,-9.8838,10.0554
11,1,0,1,1,01.477,1477,1.9800,3.8700,-7.2300,8.4362,0.6185,-0.2738,0.2040,-4.13,162.25,155.88,0.4542,2.1047,-9.5341,9.7742
11,1,0,1,1,01.609,1609,0.1000,0.3500,-6.4700,6.4802,0.1625,-0.2978,-0.9992,-3.94,155.94,160.25,0.4075,1.8735,-9.1303,9.3294
11,1,0,1,1,01.740,1740,0.0000,5.2900,-7.5900,9.2516,-0.8934,0.5847,0.3327,-2.50,160.56,161.94,0.3538,2.3237,-8.9273,9.2316
11,1,0,1,1,01.874,1874,1.7000,3.3100,-9.0700,9.8036,0.2738,0.4767,0.4352,1.06,160.88,155.94,0.5312,2.4537,-8.9461,9.2917
11,1,0,1,1,02.047,2047,3.0900,3.3300,-8.1200,9.3044,0.2313,-0.4189,-0.6109,0.06,159.56,155.25,0.8684,2.5691,-8.8373,9.2440
11,1,0,1,1,02.177,2177,-1.2900,3.4000,-8.1300,8.9062,-0.1658,-0.2302,0.3992,-2.69,157.81,159.13,0.5840,2.6786,-8.7441,9.1638
11,1,0,1,1,02.307,2307,0.0200,4.0900,-9.5800,10.4166,-0.0698,0.6414,-0.1178,-0.69,159.81,156.63,0.5096,2.8646,-8.8542,9.3200
11,1,0,1,1,02.437,2437,1.2000,3.5500,-6.8400,7.7992,0.2825,0.1254,0.2793,0.31,157.75,152.44,0.6006,2.9549,-8.5888,9.1027
11,1,0,1,1,02.567,2567,1.0200,3.2600,-10.9000,11.4227,-0.3807,-0.7527,-1.2534,-0.56,158.25,154.63,0.6559,2.9951,-8.8934,9.4071
11,1,0,1,1,02.697,2697,-0.7600,3.6600,-7.8100,8.6585,0.2040,0.0873,0.2225,-1.94,158.13,159.50,0.4693,3.0827,-8.7506,9.2896
11,1,0,1,1,02.828,2828,0.5500,3.9200,-8.2000,9.1054,0.0022,0.2465,-0.0807,-0.88,157.69,158.75,0.4799,3.1931,-8.6780,9.2593
11,1,0,1,1,02.958,2958,1.7300,3.4100,-7.7100,8.6061,0.1385,-0.0905,0.2836,-1.63,156.44,155.19,0.6447,3.2217,-8.5505,9.1600
11,2,0,1,1,03.131,3131,-0.6400,3.6400,-9.8600,10.5299,-0.1167,0.3469,-0.4952,-1.31,157.94,156.06,0.4754,3.2768,-8.7230,9.3303
11,2,0,1,1,03.261,3261,0.5500,4.0200,-9.1900,10.0458,0.1811,0.0535,-0.0458,0.44,158.06,155.06,0.4852,3.3747,-8.7846,9.4230
11,2,0,1,1,03.392,3392,0.7600,3.2200,-8.3100,8.9444,0.5400,-0.2258,0.7385,-0.38,155.69,153.50,0.5214,3.3543,-8.7220,9.3593
11,2,0,1,1,03.522,3522,-0.5500,3.9600,-8.9200,9.7750,-0.2673,0.0578,-0.1364,-2.13,154.81,152.31,0.3802,3.4341,-8.7481,9.4057
11,2,0,1,1,03.653,3653,1.3400,4.2400,-8.7600,9.8240,0.0905,0.1418,-0.3916,0.94,156.19,153.94,0.5067,3.5403,-8.7497,9.4524
11,2,0,1,1,03.784,3784,-0.1600,3.5200,-8.7800,9.4607,0.0055,-0.7309,-0.1080,-1.19,155.75,156.56,0.4189,3.5377,-8.7537,9.4508
11,2,0,1,1,03.914,3914,0.2300,3.5800,-9.5000,10.1548,-0.0033,0.1953,0.3807,-4.31,155.69,155.38,0.3940,3.5432,-8.8520,9.5430
11,2,0,1,1,04.045,4045,1.4200,4.4300,-8.7800,9.9363,0.1451,0.4407,-0.1080,-1.56,155.81,154.31,0.5292,3.6601,-8.8425,9.5847
11,2,0,1,1,04.221,4221,0.0700,3.3400,-8.5000,9.1329,-0.1320,-0.8552,-0.2247,-2.69,153.44,157.88,0.4687,3.6179,-8.7974,9.5238
11,2,0,1,1,04.351,4351,-1.8300,4.5400,-9.5400,10.7225,-0.6174,-0.0436,0.3251,-5.31,157.13,158.25,0.1658,3.7394,-8.8953,9.6507
11,2,0,1,1,04.483,4483,1.3300,3.5700,-9.4000,10.1427,0.1822,0.8879,0.2345,-2.44,157.44,153.63,0.3192,3.7171,-8.9618,9.7073
11,2,0,1,1,04.613,4613,3.6000,4.0400,-9.0500,10.5444,-0.1756,0.0611,-0.0545,1.13,157.75,152.63,0.7515,3.7596,-8.9734,9.7581
11,2,0,1,1,04.743,4743,-0.0100,3.1900,-8.5100,9.0883,-0.0044,-1.0330,-0.2280,-2.44,157.44,156.31,0.6512,3.6846,-8.9123,9.6659
11,2,0,1,1,04.874,4874,-1.3900,3.4200,-9.2300,9.9409,-0.3982,0.0916,0.0349,-4.06,159.00,158.06,0.3822,3.6497,-8.9542,9.6770
11,2,0,1,1,05.004,5004,1.5900,3.3800,-9.3500,10.0685,-0.0644,0.6829,0.0971,-1.44,160.06,155.31,0.5413,3.6142,-9.0063,9.7195
11,2,0,1,1,05.135,5135,2.0000,3.4100,-8.8200,9.6654,0.0164,-0.0447,-0.0687,-0.13,160.25,154.56,0.7336,3.5873,-8.9818,9.6994
11,2,0,1,1,05.307,5307,-1.2800,2.6100,-8.6300,9.1064,-0.2520,-0.1974,-0.0873,-3.06,159.63,158.00,0.4682,3.4585,-8.9354,9.5928
11,2,0,1,1,05.437,5437,0.2900,3.0900,-9.3400,9.8421,-0.1614,0.5083,0.5509,-1.56,162.38,156.81,0.4447,3.4099,-8.9887,9.6241
11,2,0,1,1,05.567,5567,1.3700,2.7300,-9.4400,9.9219,-0.1440,0.4538,-0.0513,2.31,163.13,154.88,0.5667,3.3203,-9.0482,9.6548
11,2,0,1,1,05.697,5697,0.7400,2.4600,-9.2200,9.5712,0.0818,-0.5574,-0.4538,3.06,164.31,157.00,0.5895,3.2070,-9.0708,9.6391
11,2,0,1,1,05.827,5827,-1.5300,2.4400,-9.2000,9.6403,-0.2302,-0.5912,0.2771,-2.13,164.38,158.63,0.3102,3.1059,-9.0879,9.6090
11,2,0,1,1,05.957,5957,-0.9000,3.2600,-10.7800,11.2981,-0.0196,0.4374,0.3491,-2.31,166.38,156.56,0.1507,3.1262,-9.3108,9.8228
11,2,0,1,1,06.088,6088,1.4200,1.9800,-9.0900,9.4109,0.2858,0.6065,0.1374,1.75,163.94,154.00,0.3180,2.9752,-9.2817,9.7521
11,2,0,1,1,06.218,6218,1.2700,2.6300,-9.3400,9.7860,-0.3174,-0.3098,-0.2618,3.00,164.69,154.50,0.4434,2.9297,-9.2894,9.7505
11,2,0,1,1,06.391,6391,-1.0500,2.0100,-9.4200,9.6891,-0.0840,-0.2553,0.0556,-1.50,165.44,156.75,0.2466,2.8085,-9.3066,9.7243
11,2,0,1,1,06.521,6521,-0.4900,2.6600,-10.2000,10.5525,-0.0295,0.2716,0.2378,-0.69,166.63,156.19,0.1496,2.7889,-9.4244,9.8295
11,2,0,1,1,06.652,6652,1.4100,2.4300,-9.7500,10.1467,0.0360,0.1244,0.1800,0.44,165.88,153.69,0.3157,2.7416,-9.4673,9.8613
11,2,0,1,1,06.782,6782,0.0200,2.7700,-9.4500,9.8476,0.3818,-0.2214,-0.1985,-0.38,164.69,154.19,0.2767,2.7454,-9.4650,9.8590
11,2,0,1,1,06.913,6913,-0.2200,2.6500,-9.5300,9.8940,0.0545,-0.0393,0.0349,-1.00,162.94,154.88,0.2113,2.7328,-9.4736,9.8621
11,2,0,1,1,07.043,7043,-0.5300,3.5100,-10.1400,10.7434,0.2465,-0.0873,0.1778,-1.00,162.75,154.69,0.1136,2.8352,-9.5614,9.9735
11,2,0,1,1,07.173,7173,0.6300,2.9900,-9.1500,9.6467,0.3043,0.2007,-0.0698,-0.81,159.63,153.31,0.1816,2.8556,-9.5072,9.9284
11,2,0,1,1,07.303,7303,0.3700,3.6100,-9.5300,10.1975,0.1658,-0.1734,-0.3545,0.31,158.56,155.56,0.2064,2.9550,-9.5102,9.9608
11,2,0,1,1,07.481,7481,0.0600,3.3000,-8.8700,9.4642,0.1047,-0.0338,-0.0873,0.13,158.00,157.69,0.1871,3.0005,-9.4258,9.8936
11,2,0,1,1,07.611,7611,0.0600,3.1500,-9.2500,9.7718,0.3218,-0.0698,0.2945,-0.25,156.81,157.63,0.1704,3.0202,-9.4026,9.8773
11,2,0,1,1,07.743,7743,1.4300,3.4500,-9.0500,9.7903,0.0949,0.0927,0.2443,0.00,155.69,155.25,0.3364,3.0768,-9.3562,9.8548
11,2,0,1,1,07.873,7873,0.1800,3.2600,-8.4100,9.0215,0.0305,-0.6523,-0.2051,-1.63,154.63,156.75,0.3158,3.1010,-9.2315,9.7435
11,2,0,1,1,08.003,8003,-0.9800,3.4100,-7.6700,8.4509,-0.1985,-0.5869,-0.1036,-5.19,155.44,159.44,0.1450,3.1417,-9.0257,9.5580
11,2,0,1,1,08.134,8134,0.5100,3.2400,-9.4600,10.0125,-0.3185,0.7919,0.4920,-3.69,157.69,159.13,0.1931,3.1546,-9.0830,9.6171
11,2,0,1,1,08.264,8264,1.4400,4.1200,-8.0500,9.1570,0.1178,0.4156,0.1407,0.50,158.50,156.00,0.3574,3.2818,-8.9468,9.5365
11,2,0,1,1,08.395,8395,-0.3900,4.1500,-8.5000,9.4670,0.1494,-0.6447,0.0207,-1.00,156.94,156.75,0.2589,3.3962,-8.8880,9.5183
11,2,0,1,1,08.567,8567,0.3400,4.8200,-8.6300,9.8906,0.0862,0.4102,0.0349,-2.25,158.00,154.44,0.2696,3.5839,-8.8540,9.5556
11,2,0,1,1,08.697,8697,1.3800,3.2600,-8.6300,9.3279,0.3371,0.0305,0.0458,-0.81,155.00,153.19,0.4159,3.5412,-8.8245,9.5176
11,2,0,1,1,08.827,8827,0.5500,3.7900,-8.5600,9.3776,-0.1691,-0.1614,0.0000,-1.81,155.19,153.75,0.4336,3.5740,-8.7896,9.4983
11,2,0,1,1,08.957,8957,0.6400,4.2900,-8.6800,9.7034,-0.0731,-0.0360,-0.0415,-2.63,156.31,154.19,0.4608,3.6683,-8.7752,9.5222
11,2,0,1,1,09.087,9087,0.6900,3.8900,-9.2800,10.0860,0.1756,-0.0273,-0.1254,-2.50,155.44,155.25,0.4910,3.6975,-8.8417,9.5963
11,2,0,1,1,09.217,9217,0.5800,3.7800,-7.9900,8.8580,0.1614,0.0840,-0.0098,-2.38,154.06,155.81,0.5027,3.7084,-8.7295,9.4978
11,2,0,1,1,09.348,9348,0.5800,3.8600,-9.3000,10.0859,-0.2269,0.0654,0.0076,-1.94,154.38,156.06,0.5129,3.7284,-8.8046,9.5753
11,2,0,1,1,09.478,9478,1.1500,4.2600,-8.1500,9.2678,0.0218,0.0044,0.0458,-1.75,155.69,155.44,0.5969,3.7984,-8.7184,9.5286
11,2,0,1,1,09.651,9651,0.3300,3.9500,-7.8200,8.7672,-0.0447,0.2629,0.1320,-1.94,155.31,155.81,0.5617,3.8184,-8.6000,9.4263
11,2,0,1,1,09.781,9781,0.7500,3.9500,-8.5100,9.4120,-0.2509,0.0218,0.0153,-1.19,156.06,154.94,0.5865,3.8357,-8.5881,9.4241
11,3,0,1,1,09.911,9911,-0.0600,3.6000,-10.2400,10.8545,0.0491,-0.0491,0.0055,-1.94,156.69,155.19,0.5013,3.8047,-8.8058,9.6057
11,3,0,1,1,10.041,10041,2.0300,3.9100,-7.9500,9.0891,0.3698,0.0774,0.0240,-1.06,156.06,154.56,0.7028,3.8186,-8.6930,9.5207
11,3,0,1,1,10.171,10171,-1.6600,3.6300,-9.6000,10.3968,-0.0502,0.2138,-0.1985,-1.81,154.13,155.13,0.3914,3.7937,-8.8125,9.6024
11,3,0,1,1,10.301,10301,0.8800,3.9900,-8.9800,9.8658,0.1113,0.9730,0.0753,3.50,154.44,154.00,0.4558,3.8196,-8.8346,9.6357
11,3,0,1,1,10.431,10431,0.1800,3.7000,-7.7700,8.6079,-0.0938,-1.0101,-0.1484,1.69,154.69,153.38,0.4194,3.8038,-8.6943,9.4993
11,3,0,1,1,10.561,10561,-1.0100,4.0700,-9.1100,10.0288,-0.6065,-0.0175,-0.2803,-0.63,157.31,156.50,0.2311,3.8389,-8.7491,9.5571
11,3,0,1,1,10.735,10735,0.6000,3.3200,-8.6300,9.2660,-0.1527,-0.0982,0.0087,1.38,159.63,156.31,0.2797,3.7705,-8.7334,9.5167
11,3,0,1,1,10.866,10866,0.0000,2.9000,-9.7200,10.1434,-0.2716,0.0807,0.0502,1.19,160.50,156.31,0.2428,3.6558,-8.8634,9.5908
11,3,0,1,1,10.996,10996,0.3000,3.5100,-8.3300,9.0443,-0.0905,-0.0295,0.0622,1.13,162.94,155.75,0.2504,3.6366,-8.7931,9.5187
11,3,0,1,1,11.128,11128,0.1600,1.7300,-9.8000,9.9528,-0.0469,-0.2400,0.0033,0.00,161.81,155.44,0.2385,3.3854,-8.9258,9.5492
11,3,0,1,1,11.259,11259,-0.1600,3.1000,-8.5800,9.1243,-0.3447,-0.0502,0.0120,-1.06,165.00,155.31,0.1860,3.3478,-8.8802,9.4921
11,3,0,1,1,11.393,11393,0.3800,2.0500,-9.6400,9.8629,0.0480,-0.0131,0.0207,-1.19,165.06,154.88,0.2115,3.1767,-8.9804,9.5280
11,3,0,1,1,11.524,11524,-0.4800,2.8900,-9.2300,9.6838,-0.0862,0.3414,-0.0469,0.25,165.75,154.69,0.1204,3.1390,-9.0133,9.5450
11,3,0,1,1,11.655,11655,0.7500,1.5400,-9.5100,9.6630,0.0785,-0.1287,0.1953,1.31,164.13,153.50,0.2034,2.9283,-9.0787,9.5414
11,3,0,1,1,11.828,11828,0.3800,2.7400,-8.6500,9.0815,-0.1113,0.1331,-0.0065,1.44,166.50,152.81,0.2266,2.9034,-9.0222,9.4806
11,3,0,1,1,11.959,11959,-0.0300,1.1100,-9.7900,9.8528,0.0000,0.5214,-0.3632,4.38,165.25,154.31,0.1928,2.6671,-9.1234,9.5072
11,3,0,1,1,12.089,12089,-0.0200,3.3300,-10.7400,11.2444,-0.5912,-0.4047,-0.0251,5.06,169.38,155.56,0.1648,2.7545,-9.3364,9.7357
11,3,0,1,1,12.220,12220,-0.7800,1.8600,-9.0200,9.2427,0.7079,-0.2553,0.0076,2.06,168.00,155.56,0.0403,2.6366,-9.2947,9.6615
11,3,0,1,1,12.350,12350,0.0000,1.2000,-9.2700,9.3473,-0.2160,0.2574,-0.0535,3.38,165.50,155.38,0.0350,2.4473,-9.2915,9.6084
11,3,0,1,1,12.481,12481,-0.2600,2.3100,-9.3500,9.6346,-0.3589,-0.2138,0.1200,3.00,168.88,154.88,-0.0039,2.4292,-9.2992,9.6112
11,3,0,1,1,12.612,12612,-0.9700,2.3300,-10.6100,10.9060,-0.1680,0.3382,-0.3371,3.06,170.13,155.25,-0.1312,2.4161,-9.4719,9.7761
11,3,0,1,1,12.744,12744,-0.2400,1.9000,-8.7000,8.9083,0.4058,0.2258,-0.0807,6.19,169.81,156.31,-0.1455,2.3481,-9.3702,9.6610
11,3,0,1,1,12.917,12917,-1.2500,1.1100,-10.3300,10.4644,-0.3262,-0.5040,0.2836,2.94,166.75,155.31,-0.2911,2.1850,-9.4967,9.7491
11,3,0,1,1,13.049,13049,0.2700,2.5400,-11.4600,11.7412,-0.3720,0.1822,-0.1942,1.94,170.69,154.75,-0.2171,2.2317,-9.7554,10.0098
11,3,0,1,1,13.179,13179,-0.0600,2.6700,-10.1200,10.4665,0.3545,0.0665,0.0109,2.56,170.13,153.88,-0.1964,2.2895,-9.8034,10.0691
11,3,0,1,1,13.311,13311,0.2000,2.0300,-8.9300,9.1600,0.4701,-0.1865,0.1527,2.50,166.38,153.38,-0.1442,2.2553,-9.6883,9.9484
11,3,0,1,1,13.441,13441,0.4700,2.0800,-8.8500,9.1033,0.5400,-0.6938,0.1974,-1.19,162.56,152.25,-0.0633,2.2322,-9.5779,9.8347
11,3,0,1,1,13.571,13571,0.0100,1.8700,-9.4600,9.6431,-0.2683,-0.5443,0.1004,-6.38,161.56,150.81,-0.0536,2.1845,-9.5623,9.8088
11,3,0,1,1,13.702,13702,0.0100,3.8000,-9.0400,9.8062,0.0807,0.4691,-0.4156,-6.81,163.88,150.88,-0.0452,2.3974,-9.4935,9.7916
11,3,0,1,1,13.832,13832,2.2600,2.1800,-9.5400,10.0435,0.5596,0.1571,-0.0022,-3.44,159.56,151.19,0.2585,2.3687,-9.4996,9.7939
11,3,0,1,1,14.005,14005,0.2000,3.0100,-9.6200,10.0819,0.1473,0.1200,0.0240,-4.31,157.88,151.63,0.2508,2.4532,-9.5155,9.8298
11,3,0,1,1,14.136,14136,-0.2800,2.1000,-8.3500,8.6146,-0.1778,0.5672,-0.0142,-2.88,157.75,149.75,0.1809,2.4067,-9.3619,9.6680
11,3,0,1,1,14.267,14267,2.9100,3.6900,-6.4300,7.9642,-0.1604,0.4200,0.3796,0.06,159.19,146.31,0.5405,2.5758,-8.9756,9.3535
11,4,0,1,1,14.397,14397,0.5800,5.3900,-9.4800,10.9206,0.1145,-0.4963,-0.2280,-1.19,160.75,147.88,0.5457,2.9466,-9.0420,9.5257
11,4,0,1,1,14.528,14528,0.6900,3.3300,-8.8200,9.4529,0.7309,0.2127,0.0480,-1.25,156.63,149.81,0.5647,2.9971,-9.0128,9.5148
11,4,0,1,1,14.658,14658,1.2500,2.9700,-8.3200,8.9222,0.1898,-0.2967,0.0240,-2.56,153.31,149.06,0.6550,2.9936,-8.9215,9.4331
11,4,0,1,1,14.789,14789,0.2400,4.5300,-8.8000,9.9004,-0.2302,0.0109,-0.1058,-3.50,154.44,150.75,0.6003,3.1960,-8.9055,9.4806
11,4,0,1,1,14.920,14920,0.4000,4.2900,-9.9500,10.8428,0.0644,0.4603,-0.1800,-1.69,154.94,151.19,0.5739,3.3402,-9.0431,9.6573
11,4,0,1,1,15.096,15096,0.5500,3.8800,-8.0000,8.9082,0.2389,-0.1134,0.0927,-1.31,153.25,150.44,0.5708,3.4113,-8.9057,9.5537
11,4,0,1,1,15.226,15226,-0.1700,4.0900,-8.3400,9.2905,-0.1080,0.0796,0.2160,-1.88,153.13,149.75,0.4732,3.5008,-8.8311,9.5115
11,4,0,1,1,15.357,15357,1.3800,4.6100,-9.2400,10.4180,-0.0153,0.1647,-0.1276,0.06,153.94,149.13,0.5927,3.6469,-8.8850,9.6226
11,4,0,1,1,15.487,15487,0.1500,4.0800,-8.6700,9.5832,0.2454,-0.3109,-0.1593,-0.31,152.81,150.44,0.5343,3.7040,-8.8567,9.6149
11,4,0,1,1,15.619,15619,0.5600,3.9800,-7.2800,8.3158,-0.0098,-0.2225,-0.0175,-1.31,152.00,151.44,0.5377,3.7404,-8.6489,9.4384
11,4,0,1,1,15.749,15749,0.2800,4.5600,-9.0900,10.1735,-0.5040,-0.0065,-0.1680,-1.94,154.06,152.25,0.5038,3.8484,-8.7070,9.5329
11,4,0,1,1,15.879,15879,0.2400,4.3600,-9.0700,10.0664,0.0807,0.2225,-0.1364,-0.69,155.44,153.00,0.4690,3.9158,-8.7549,9.6021
11,4,0,1,1,16.010,16010,1.2200,3.8500,-6.5800,7.7206,0.0993,-0.1560,-0.0284,-0.19,154.81,153.13,0.5680,3.9071,-8.4683,9.3434
11,4,0,1,1,16.182,16182,0.1400,4.8900,-9.7000,10.8638,-0.5989,0.2051,0.1440,-1.13,158.63,153.69,0.5116,4.0366,-8.6306,9.5416
11,4,0,1,1,16.312,16312,0.0900,3.8100,-8.6300,9.4340,0.4931,-0.0654,0.2760,-1.44,158.06,151.81,0.4560,4.0068,-8.6305,9.5262
11,4,0,1,1,16.442,16442,0.6400,3.2100,-9.5300,10.0764,0.1440,0.4800,0.1036,-0.38,155.56,149.81,0.4803,3.9018,-8.7490,9.5917
11,4,0,1,1,16.572,16572,-0.0500,3.2900,-8.6000,9.2080,0.1004,-0.2073,0.1156,0.56,154.56,149.19,0.4104,3.8212,-8.7294,9.5379
11,4,0,1,1,16.702,16702,0.4400,3.7900,-9.4100,10.1541,-0.3382,0.0949,0.0720,0.38,155.81,149.25,0.4143,3.8171,-8.8191,9.6186
11,4,0,1,1,16.832,16832,0.8500,3.8700,-8.3200,9.2153,0.0404,-0.2367,-0.0480,-0.50,157.00,148.94,0.4717,3.8240,-8.7533,9.5638
11,4,0,1,1,16.963,16963,-0.5000,3.3800,-9.3800,9.9829,-0.3567,0.1571,-0.1658,-0.19,157.63,150.25,0.3437,3.7655,-8.8359,9.6109
11,4,0,1,1,17.093,17093,0.6400,3.3300,-7.8300,8.5327,-0.0774,0.1974,-0.0164,1.38,159.06,150.44,0.3827,3.7081,-8.7033,9.4681
11,4,0,1,1,17.266,17266,-0.4900,3.1400,-8.1200,8.7198,-0.1036,-0.2051,-0.0153,0.44,160.94,150.69,0.2677,3.6333,-8.6265,9.3642
11,4,0,1,1,17.397,17397,0.0200,3.1400,-10.7000,11.1512,-0.2891,0.0687,-0.0262,0.38,161.69,150.88,0.2351,3.5683,-8.8997,9.5913
11,4,0,1,1,17.528,17528,0.8100,2.9700,-8.0100,8.5812,0.4603,0.1276,0.1854,1.13,161.69,150.31,0.3108,3.4894,-8.7825,9.4554
11,4,0,1,1,17.658,17658,0.0300,2.0000,-9.3600,9.5713,-0.1833,-0.0578,-0.1276,1.19,159.63,150.63,0.2738,3.2932,-8.8586,9.4549
11,4,0,1,1,17.789,17789,0.2500,3.4400,-9.3300,9.9471,-0.4200,-0.2618,0.0425,0.81,162.81,150.88,0.2707,3.3125,-8.9207,9.5197
11,4,0,1,1,17.921,17921,0.6700,2.5900,-10.0900,10.4386,-0.1374,0.0458,0.1811,-0.44,164.13,150.50,0.3233,3.2173,-9.0748,9.6336
11,4,0,1,1,18.056,18056,-0.3800,2.4400,-8.1800,8.5446,0.1724,0.0491,-0.4429,-0.06,164.50,152.06,0.2306,3.1149,-8.9569,9.4858
11,4,0,1,1,18.186,18186,0.6100,2.1500,-10.8500,11.0778,-0.5760,0.0938,-0.1462,1.31,165.38,153.50,0.2806,2.9877,-9.2063,9.6831
11,4,0,1,1,18.359,18359,-0.1800,2.2000,-8.4800,8.7626,0.5541,-0.1789,-0.0665,-0.63,167.06,154.31,0.2199,2.8839,-9.1106,9.5587
11,4,0,1,1,18.489,18489,0.2600,1.9100,-10.1200,10.3019,-0.3785,0.0273,-0.0611,-0.31,165.81,154.13,0.2252,2.7556,-9.2436,9.6483
11,4,0,1,1,18.619,18619,1.4900,1.8500,-9.2500,9.5501,0.0535,-0.2083,0.2040,-0.44,167.19,153.31,0.3919,2.6363,-9.2445,9.6210
11,4,0,1,1,18.749,18749,-0.3300,2.9000,-9.4000,9.8427,0.0011,-0.0065,0.0262,-2.75,168.06,152.75,0.2967,2.6710,-9.2650,9.6469
11,4,0,1,1,18.879,18879,1.0400,1.1600,-8.9700,9.1043,0.3011,0.3938,-0.0273,-0.25,165.56,152.81,0.3947,2.4719,-9.2261,9.5597
11,4,0,1,1,19.009,19009,0.3400,2.5900,-9.9600,10.2969,-0.5661,0.0764,-0.1342,1.06,167.56,153.25,0.3875,2.4875,-9.3228,9.6567
11,4,0,1,1,19.140,19140,0.0800,2.5200,-9.3300,9.6647,0.4516,0.1494,-0.1800,2.44,168.13,154.44,0.3470,2.4917,-9.3238,9.6572
11,4,0,1,1,19.270,19270,-0.1200,1.9000,-10.3800,10.5531,0.0131,-0.2313,-0.0960,2.44,165.38,155.69,0.2854,2.4138,-9.4629,9.7701
11,4,0,1,1,19.443,19443,0.0900,1.6600,-8.8400,8.9950,0.5792,-0.2640,0.0840,0.88,163.56,155.50,0.2597,2.3144,-9.3809,9.6656
11,4,0,1,1,19.573,19573,-0.1800,3.6700,-9.5400,10.2232,0.0087,-0.0065,-0.0567,-0.31,163.00,155.06,0.2017,2.4931,-9.4018,9.7288
11,4,0,1,1,19.703,19703,1.5300,2.7600,-9.9500,10.4384,0.2367,-0.1178,0.0785,-0.25,160.81,154.63,0.3768,2.5282,-9.4741,9.8128
11,5,0,1,1,19.833,19833,-0.7500,2.7400,-7.9300,8.4235,0.3665,0.0589,-0.0742,-0.81,158.75,155.19,0.2283,2.5561,-9.2706,9.6192
11,5,0,1,1,19.963,19963,1.5200,2.0700,-10.2000,10.5183,-0.3720,0.0927,0.1407,0.38,158.69,154.63,0.3985,2.4921,-9.3931,9.7262
11,5,0,1,1,20.093,20093,-0.7000,3.9300,-8.8400,9.6995,0.3218,-0.5072,0.0742,-2.56,161.00,153.75,0.2537,2.6816,-9.3202,9.7016
11,5,0,1,1,20.223,20223,0.9100,2.6800,-9.0900,9.5204,0.1058,0.4352,0.1734,-2.13,158.31,153.06,0.3402,2.6814,-9.2899,9.6751
11,5,0,1,1,20.353,20353,1.4200,3.1200,-7.2500,8.0196,0.1145,0.0720,-0.2334,-0.13,158.00,153.25,0.4825,2.7392,-9.0211,9.4401
11,5,0,1,1,20.526,20526,0.4800,3.2800,-9.7900,10.3360,-0.3720,-0.4091,-0.2105,-1.88,160.25,155.56,0.4822,2.8104,-9.1224,9.5577
11,5,0,1,1,20.656,20656,0.1400,4.1000,-8.4000,9.3482,0.2225,0.1200,0.1287,-3.25,161.06,155.31,0.4371,2.9804,-9.0272,9.5165
11,5,0,1,1,20.786,20786,1.0400,2.8700,-10.6600,11.0885,0.3916,0.1211,0.1669,-1.56,157.69,154.56,0.5165,2.9658,-9.2424,9.7203
11,5,0,1,1,20.916,20916,-0.2800,4.0100,-6.1000,7.3054,0.5749,0.3011,-0.2476,-1.19,154.56,153.69,0.4116,3.1034,-8.8283,9.3669
11,5,0,1,1,21.046,21046,1.9000,3.7900,-10.4200,11.2495,-0.3829,0.0502,0.1440,0.88,153.69,153.19,0.6077,3.1939,-9.0380,9.6050
11,5,0,1,1,21.176,21176,-0.1600,4.5700,-8.3000,9.4763,0.2542,-0.2738,-0.3218,-1.31,155.19,153.69,0.5065,3.3752,-8.9408,9.5701
11,5,0,1,1,21.306,21306,0.6600,3.6100,-8.7600,9.4976,0.0873,0.0229,0.0524,-1.13,153.50,154.44,0.5268,3.4062,-8.9169,9.5599
11,5,0,1,1,21.437,21437,0.3400,4.5500,-7.7600,9.0020,-0.1113,-0.0240,0.0142,-1.13,154.31,154.50,0.5022,3.5569,-8.7645,9.4721
11,5,0,1,1,21.610,21610,1.4300,4.5400,-8.7600,9.9697,0.1167,-0.0535,0.2291,-0.06,153.94,153.56,0.6244,3.6864,-8.7639,9.5282
11,5,0,1,1,21.741,21741,1.0400,3.5600,-8.3500,9.1366,0.1069,-0.2563,0.0131,-0.94,152.25,153.88,0.6792,3.6698,-8.7094,9.4753
11,5,0,1,1,21.871,21871,0.0900,4.3100,-8.6800,9.6916,-0.1789,0.1025,-0.2193,-1.75,152.88,155.19,0.6015,3.7541,-8.7055,9.4995
11,5,0,1,1,22.002,22002,0.6500,4.6100,-8.5900,9.7705,0.0251,0.0545,0.0142,-1.13,153.63,155.19,0.6079,3.8669,-8.6903,9.5312
11,5,0,1,1,22.132,22132,0.9900,4.0200,-7.4500,8.5231,0.0404,-0.1200,0.2193,-0.63,152.88,155.00,0.6583,3.8871,-8.5268,9.3941
11,5,0,1,1,22.265,22265,0.5600,4.3100,-9.1800,10.1569,-0.3043,-0.0589,-0.0262,-2.00,154.31,154.38,0.6453,3.9428,-8.6129,9.4944
11,5,0,1,1,22.396,22396,1.2200,4.0900,-8.6200,9.6188,0.0120,0.2913,-0.3229,-0.56,155.25,155.19,0.7211,3.9622,-8.6138,9.5088
11,5,0,1,1,22.530,22530,-0.7000,4.0500,-9.5000,10.3510,-0.1287,-0.2454,-0.1200,-1.88,155.94,154.75,0.5338,3.9738,-8.7306,9.6073
11,5,0,1,1,22.702,22702,-1.1300,3.6500,-8.4900,9.3102,-0.1582,0.1200,-0.4014,-2.31,155.25,155.00,0.3145,3.9311,-8.6989,9.5511
11,5,0,1,1,22.832,22832,0.7400,3.4100,-8.8700,9.5317,-0.0524,-0.1473,-0.1429,-1.88,155.81,153.38,0.3706,3.8624,-8.7215,9.5457
11,5,0,1,1,22.962,22962,2.9000,3.9300,-8.2400,9.5788,0.3491,-0.0218,0.4811,-1.00,156.75,153.31,0.7039,3.8713,-8.6580,9.5102
11,5,0,1,1,23.092,23092,-2.3400,3.8200,-8.5200,9.6259,-0.5978,-0.1876,-0.4920,-3.00,155.81,156.06,0.3028,3.8646,-8.6398,9.4696
11,5,0,1,1,23.223,23223,1.1100,2.6700,-8.9300,9.3865,-0.4309,0.0916,-0.0687,-3.31,158.63,155.56,0.4092,3.7072,-8.6781,9.4456
11,5,0,1,1,23.353,23353,1.1600,3.3500,-10.2200,10.8174,-0.4003,-0.0764,0.1309,-3.38,162.56,156.13,0.5081,3.6601,-8.8812,9.6193
11,5,0,1,1,23.483,23483,0.8900,2.6800,-9.5200,9.9300,0.1462,-0.1473,-0.0262,-4.31,163.06,155.94,0.5584,3.5309,-8.9654,9.6519
11,5,0,1,1,23.614,23614,0.2100,2.4200,-8.9200,9.2448,-0.1571,-0.0644,0.8127,-5.63,163.13,155.13,0.5125,3.3846,-8.9594,9.5911
11,5,0,1,1,23.787,23787,1.4600,2.2600,-8.5400,8.9538,-0.0196,0.0436,-0.3142,-4.25,163.13,152.94,0.6374,3.2364,-8.9042,9.4955
11,5,0,1,1,23.918,23918,2.0800,2.6000,-8.9700,9.5680,-0.1822,-0.3065,0.4614,-5.38,165.00,153.38,0.8275,3.1525,-8.9128,9.4901
11,5,0,1,1,24.049,24049,-0.1000,1.9400,-9.4200,9.6182,-0.1636,-0.1745,-0.3229,-8.00,165.38,153.94,0.7053,2.9927,-8.9797,9.4915
11,5,0,1,1,24.182,24182,2.2400,2.9200,-10.7800,11.3909,-0.2956,0.6120,0.3316,-5.00,169.06,154.56,0.9075,2.9831,-9.2169,9.7301
11,5,0,1,1,24.313,24313,0.5100,1.4000,-8.4000,8.5311,0.4581,-0.3087,-0.0774,-5.63,166.94,154.19,0.8551,2.7745,-9.1093,9.5607
11,5,0,1,1,24.446,24446,0.5200,1.5000,-9.3200,9.4542,-0.2018,0.4865,0.0262,-4.81,166.63,153.75,0.8110,2.6066,-9.1370,9.5361
11,5,0,1,1,24.577,24577,2.1500,1.8200,-10.0500,10.4373,-0.2891,-0.0611,-0.0753,-2.00,168.75,154.00,0.9874,2.5029,-9.2573,9.6404
11,5,0,1,1,24.707,24707,0.2300,3.0500,-10.5800,11.0133,0.2814,-0.1462,-0.0938,-3.94,169.56,154.75,0.8876,2.5750,-9.4316,9.8170
11,5,0,1,1,24.880,24880,1.1200,0.8100,-8.6600,8.7696,-0.0044,-0.0142,-0.0098,-3.88,166.56,154.94,0.9182,2.3424,-9.3299,9.6632
11,5,0,1,1,25.011,25011,0.9900,2.6800,-9.8300,10.2368,-0.5934,-0.0087,-0.4843,-4.06,169.19,155.50,0.9277,2.3869,-9.3958,9.7386
11,5,0,1,1,25.141,25141,1.3800,2.9000,-10.5700,11.0471,0.5847,0.1942,-0.1604,-2.25,169.19,155.19,0.9873,2.4545,-9.5506,9.9102
11,6,0,1,1,25.272,25272,0.9400,1.4300,-8.7500,8.9158,0.3851,-0.1789,0.0894,-2.25,165.13,155.50,0.9811,2.3195,-9.4451,9.7751
11,6,0,1,1,25.403,25403,1.1400,1.9800,-8.8400,9.1305,0.0295,-0.0338,0.1091,-3.13,164.31,154.88,1.0020,2.2748,-9.3653,9.6896
11,6,0,1,1,25.533,25533,1.3600,2.7200,-10.2900,10.7300,-0.1909,-0.1484,-0.0207,-3.38,164.88,154.88,1.0492,2.3334,-9.4872,9.8261
11,6,0,1,1,25.664,25664,-0.0500,3.0600,-8.8900,9.4020,0.5803,-0.0611,-0.1549,-4.56,164.06,155.56,0.9043,2.4292,-9.4085,9.7590
11,6,0,1,1,25.794,25794,1.7600,1.7800,-8.4500,8.8130,0.0076,-0.2389,0.1571,-5.13,161.44,154.88,1.0171,2.3436,-9.2822,9.6274
11,6,0,1,1,25.967,25967,0.9500,3.7900,-10.1400,10.8667,-0.2422,-0.2149,-0.0513,-7.00,163.13,154.38,1.0082,2.5342,-9.3952,9.7831
11,6,0,1,1,26.101,26101,1.9400,2.2600,-9.3400,9.8034,0.5443,-0.0927,0.1080,-7.00,160.63,154.31,1.1310,2.4981,-9.3879,9.7803
11,6,0,1,1,26.232,26232,0.7000,2.7000,-9.1900,9.6040,0.0698,-0.0578,0.0709,-8.00,158.88,154.19,1.0742,2.5247,-9.3619,9.7556
11,6,0,1,1,26.362,26362,1.3900,2.6400,-8.5400,9.0462,0.2018,0.3283,-0.0535,-7.00,157.88,154.56,1.1158,2.5399,-9.2536,9.6605
11,6,0,1,1,26.493,26493,1.2200,4.2800,-10.1300,11.0645,-0.1244,0.2825,-0.0065,-4.25,158.44,154.38,1.1296,2.7692,-9.3691,9.8348
11,6,0,1,1,26.624,26624,0.9000,2.8700,-8.2800,8.8094,0.4603,0.0120,-0.0818,-3.25,156.50,154.50,1.0993,2.7825,-9.2255,9.6985
11,6,0,1,1,26.754,26754,0.1000,2.9900,-7.7800,8.3354,-0.1113,-0.2869,0.0862,-4.25,156.13,155.69,0.9676,2.8098,-9.0351,9.5112
11,6,0,1,1,26.884,26884,1.2000,4.8700,-8.2800,9.6807,-0.0164,0.4789,0.0393,-3.38,157.69,155.13,0.9983,3.0813,-8.9356,9.5045
11,6,0,1,1,27.057,27057,1.7100,4.6800,-7.2900,8.8301,0.3218,0.0065,0.3098,-2.19,155.56,152.75,1.0920,3.2920,-8.7187,9.3833
11,6,0,1,1,27.187,27187,0.9200,4.0400,-9.4800,10.3459,0.0698,0.0535,0.0905,-2.56,153.44,151.94,1.0694,3.3905,-8.8190,9.5087
11,6,0,1,1,27.317,27317,1.8600,4.0100,-8.5100,9.5896,0.2105,0.0022,-0.0076,-1.25,153.19,151.44,1.1736,3.4722,-8.7783,9.5127
11,6,0,1,1,27.447,27447,0.1000,4.2900,-8.7100,9.7097,-0.0055,-0.2182,-0.0273,-2.06,153.13,151.94,1.0321,3.5799,-8.7693,9.5280
11,6,0,1,1,27.577,27577,0.5000,4.1900,-8.1900,9.2132,0.0611,0.0938,0.1036,-2.44,152.69,151.44,0.9620,3.6603,-8.6930,9.4811
11,6,0,1,1,27.707,27707,0.8300,4.3900,-8.8300,9.8960,-0.1080,0.1538,0.0884,-1.88,153.25,150.56,0.9446,3.7565,-8.7110,9.5334
11,6,0,1,1,27.838,27838,1.0900,4.2000,-8.4200,9.4723,0.1254,-0.0785,-0.0044,-2.44,153.06,149.63,0.9637,3.8149,-8.6727,9.5235
11,6,0,1,1,27.968,27968,0.3700,4.2200,-8.2000,9.2296,-0.0360,-0.0185,-0.0840,-2.81,152.81,150.31,0.8855,3.8683,-8.6104,9.4809
11,6,0,1,1,28.141,28141,1.2800,4.2100,-8.6300,9.6871,-0.1920,-0.2782,-0.0131,-4.31,153.94,150.13,0.9375,3.9133,-8.6130,9.5067
11,6,0,1,1,28.272,28272,1.2600,4.4200,-8.8000,9.9279,0.0360,0.0153,0.1254,-5.19,155.00,150.00,0.9800,3.9801,-8.6376,9.5609
11,6,0,1,1,28.402,28402,0.8700,3.5100,-8.1000,8.8706,-0.0011,0.2182,-0.0251,-6.06,153.88,147.56,0.9655,3.9182,-8.5668,9.4696
11,6,0,1,1,28.534,28534,1.8100,4.5300,-9.7700,10.9202,-0.2378,0.1593,-0.1014,-4.31,155.81,147.38,1.0768,3.9988,-8.7253,9.6582
11,6,0,1,1,28.665,28665,0.9900,3.6700,-7.9400,8.8030,0.4691,-0.4494,-0.2869,-4.06,153.94,149.56,1.0653,3.9555,-8.6218,9.5455
11,6,0,1,1,28.800,28800,1.0700,3.6700,-9.1900,9.9534,-0.5651,-0.3785,-0.0676,-6.88,153.63,151.38,1.0660,3.9178,-8.6967,9.5978
11,6,0,1,1,28.930,28930,0.8200,4.6100,-9.1700,10.2963,-0.0393,0.3469,-0.2323,-5.56,156.56,153.50,1.0335,4.0090,-8.7591,9.6882
11,6,0,1,1,29.062,29062,1.7400,2.8100,-7.9800,8.6374,0.0578,-0.0022,-0.0698,-3.81,155.00,154.50,1.1266,3.8510,-8.6564,9.5411
11,6,0,1,1,29.234,29234,0.0000,4.1900,-9.2500,10.1547,-0.2880,0.1134,-0.1156,-3.88,158.00,155.44,0.9782,3.8957,-8.7346,9.6139
11,6,0,1,1,29.364,29364,0.9100,3.4000,-8.5400,9.2369,0.1156,0.1844,-0.0120,-2.13,158.19,155.13,0.9692,3.8304,-8.7090,9.5634
11,6,0,1,1,29.494,29494,-1.2600,2.8100,-8.5100,9.0501,-0.5923,0.1058,-0.5694,-1.81,158.44,155.56,0.6754,3.6959,-8.6828,9.4608
11,6,0,1,1,29.624,29624,0.1100,3.1200,-8.0400,8.6249,-0.0458,0.0840,-0.1713,-1.81,160.94,152.81,0.6009,3.6200,-8.5981,9.3484
11,6,0,1,1,29.754,29754,0.7100,3.5100,-10.3200,10.9237,-0.3272,0.2422,0.1691,0.13,162.06,153.75,0.6153,3.6055,-8.8250,9.5529
11,6,0,1,1,29.884,29884,0.2900,2.4400,-9.1400,9.4645,0.2094,0.1724,-0.1233,1.69,162.06,154.38,0.5724,3.4519,-8.8665,9.5320
11,6,0,1,1,30.015,30015,0.0000,1.9100,-9.8600,10.0433,-0.4625,-0.2302,0.2487,1.69,162.81,154.94,0.4970,3.2488,-8.9974,9.5789
11,6,0,1,1,30.145,30145,0.0800,2.6000,-9.7600,10.1007,-0.1462,-0.1102,0.2378,-0.56,166.06,152.69,0.4421,3.1633,-9.0979,9.6423
11,6,0,1,1,30.318,30318,0.2800,1.6800,-9.8500,9.9962,-0.2574,0.5192,-0.1069,2.50,166.56,154.06,0.4207,2.9678,-9.1970,9.6731
11,6,0,1,1,30.448,30448,-0.0300,2.3400,-9.3400,9.6287,-0.0393,-0.0284,-0.0589,4.44,168.50,154.13,0.3613,2.8851,-9.2158,9.6636
11,6,0,1,1,30.579,30579,-0.4200,1.8500,-10.1300,10.3061,-0.0207,-0.3796,0.1189,2.56,168.00,153.63,0.2584,2.7487,-9.3363,9.7359
11,6,0,1,1,30.709,30709,0.0300,2.5800,-9.7800,10.1146,-0.0065,-0.0295,-0.0175,1.31,168.50,153.31,0.2283,2.7265,-9.3948,9.7851
11,7,0,1,1,30.840,30840,0.1900,0.4900,-8.0900,8.1071,0.3425,-0.3262,-0.2454,0.00,166.50,153.88,0.2232,2.4317,-9.2228,9.5407
11,7,0,1,1,30.971,30971,0.1600,2.7300,-10.8300,11.1699,-0.8650,-0.0731,0.0687,-1.31,169.31,153.56,0.2149,2.4711,-9.4346,9.7552
11,7,0,1,1,31.101,31101,0.4600,2.0000,-9.4400,9.6605,0.4996,0.3327,-0.0851,0.00,170.44,153.69,0.2472,2.4090,-9.4353,9.7411
11,7,0,1,1,31.232,31232,0.3700,1.0300,-10.3700,10.4276,0.0207,0.1582,0.1364,2.19,167.50,153.75,0.2634,2.2273,-9.5585,9.8181
11,7,0,1,1,31.409,31409,0.3200,2.5700,-9.4500,9.7985,-0.1418,-0.1974,0.1331,1.50,170.13,152.00,0.2708,2.2724,-9.5442,9.8147
11,7,0,1,1,31.539,31539,0.1900,1.7300,-9.5400,9.6975,0.7199,-0.2673,0.0142,-0.81,166.06,151.94,0.2602,2.2009,-9.5436,9.7976
11,7,0,1,1,31.670,31670,0.4800,1.8200,-9.6000,9.7828,-0.0436,0.0382,0.0382,-1.19,164.56,152.25,0.2891,2.1508,-9.5511,9.7945
11,7,0,1,1,31.800,31800,1.0000,2.2500,-9.1400,9.4658,0.0000,-0.0393,-0.0131,-1.19,164.88,152.31,0.3828,2.1638,-9.4969,9.7478
11,7,0,1,1,31.930,31930,0.6000,3.0500,-10.3000,10.7588,0.3142,-0.0535,-0.1080,-1.63,164.00,152.56,0.4114,2.2806,-9.6027,9.8784
11,7,0,1,1,32.061,32061,0.5700,2.9900,-9.7100,10.1759,0.8585,0.0698,-0.0491,-1.56,159.44,152.06,0.4323,2.3741,-9.6169,9.9150
11,7,0,1,1,32.191,32191,0.4000,2.8600,-8.4500,8.9298,0.2138,0.0415,-0.0916,-0.50,155.44,152.63,0.4281,2.4381,-9.4631,9.7815
11,7,0,1,1,32.322,32322,0.4500,4.4500,-8.6500,9.7379,0.3392,-0.1560,0.0742,-0.75,154.25,153.38,0.4310,2.7032,-9.3560,9.7482
11,7,0,1,1,32.495,32495,0.6500,2.6300,-8.2500,8.6834,-0.7189,-0.3872,0.0055,-3.19,154.31,153.88,0.4598,2.6936,-9.2102,9.6070
11,7,0,1,1,32.626,32626,0.2700,4.2900,-8.4800,9.5072,-0.1494,0.2662,0.2105,-3.94,158.69,152.88,0.4348,2.9039,-9.1140,9.5753
11,7,0,1,1,32.756,32756,1.4800,3.4900,-9.2100,9.9596,-0.1124,0.1985,0.3251,-2.56,159.00,151.31,0.5725,2.9812,-9.1266,9.6183
11,7,0,1,1,32.887,32887,1.0500,4.4400,-8.5700,9.7088,0.4189,0.1331,0.2105,-2.19,158.25,149.63,0.6355,3.1734,-9.0533,9.6144
11,7,0,1,1,33.017,33017,0.3800,4.3000,-7.6900,8.8188,0.5552,-0.2182,0.2094,-3.69,155.19,148.69,0.6018,3.3219,-8.8736,9.4941
11,7,0,1,1,33.150,33150,1.3800,3.3400,-8.5900,9.3192,-0.1254,0.0764,0.0087,-3.44,153.06,148.38,0.7043,3.3243,-8.8363,9.4671
11,7,0,1,1,33.281,33281,0.9400,4.5100,-9.0900,10.1908,-0.1604,-0.2083,-0.2553,-3.44,154.81,149.69,0.7354,3.4805,-8.8697,9.5565
11,7,0,1,1,33.415,33415,1.0400,4.0000,-8.7300,9.6589,0.0458,0.1014,-0.1549,-3.94,154.75,150.06,0.7755,3.5490,-8.8513,9.5678
11,7,0,1,1,33.587,33587,1.0900,4.0100,-8.4400,9.4075,0.0480,-0.0873,0.0491,-3.94,154.63,150.69,0.8170,3.6097,-8.7971,9.5439
11,7,0,1,1,33.717,33717,0.8300,4.0000,-8.5000,9.4307,0.0796,-0.1844,0.1473,-4.94,154.25,150.31,0.8187,3.6611,-8.7579,9.5276
11,7,0,1,1,33.847,33847,1.0800,4.2300,-8.7000,9.7339,0.0633,0.1996,-0.1102,-5.50,153.75,149.38,0.8531,3.7361,-8.7503,9.5527
11,7,0,1,1,33.977,33977,1.0000,4.4400,-8.8500,9.9517,0.0305,0.1614,0.0022,-4.00,153.56,149.75,0.8725,3.8289,-8.7634,9.6031
11,7,0,1,1,34.108,34108,0.8200,4.2500,-8.3600,9.4141,0.3098,-0.0142,0.0938,-3.69,152.31,149.50,0.8656,3.8844,-8.7103,9.5763
11,7,0,1,1,34.238,34238,0.9000,3.9700,-8.0800,9.0475,-0.0785,-0.0960,0.1342,-4.69,151.31,148.50,0.8701,3.8956,-8.6272,9.5059
11,7,0,1,1,34.368,34368,0.6200,4.6600,-8.0500,9.3222,-0.3011,0.0109,-0.0338,-4.94,153.63,148.50,0.8371,3.9964,-8.5512,9.4760
11,7,0,1,1,34.498,34498,1.5300,4.2600,-9.1400,10.1994,-0.1996,0.0687,0.1527,-5.00,155.38,147.31,0.9284,4.0311,-8.6288,9.5691
11,7,0,1,1,34.671,34671,0.9600,3.0200,-8.1900,8.7817,0.0611,-0.2258,-0.2334,-5.31,154.75,149.13,0.9326,3.8979,-8.5709,9.4617
11,7,0,1,1,34.801,34801,1.9100,3.8200,-9.0100,9.9710,-0.4701,0.0873,-0.1854,-5.75,156.81,150.56,1.0614,3.8876,-8.6288,9.5235
11,7,0,1,1,34.931,34931,1.1300,3.9900,-8.8100,9.7372,-0.0578,-0.2258,0.0196,-5.88,158.63,152.00,1.0704,3.9011,-8.6527,9.5516
11,7,0,1,1,35.061,35061,0.9100,4.2100,-8.7300,9.7347,-0.1811,-0.3142,0.0338,-8.63,159.38,150.75,1.0493,3.9418,-8.6629,9.5752
11,7,0,1,1,35.191,35191,1.6200,2.5300,-8.6900,9.1946,0.0382,0.5847,0.1265,-6.88,158.31,150.56,1.1245,3.7558,-8.6664,9.5120
11,7,0,1,1,35.321,35321,1.6600,3.3700,-9.1000,9.8449,-0.2051,-0.0796,-0.0796,-5.00,159.63,150.25,1.1951,3.7049,-8.7236,9.5528
11,7,0,1,1,35.452,35452,0.9400,3.4700,-9.0600,9.7472,0.0753,-0.1549,0.0065,-6.19,160.13,151.06,1.1615,3.6740,-8.7679,9.5772
11,7,0,1,1,35.582,35582,-0.4000,2.5500,-8.7400,9.1132,0.4112,0.2694,-0.5378,-6.13,159.44,151.69,0.9557,3.5259,-8.7642,9.4951
11,7,0,1,1,35.755,35755,1.4100,3.1600,-9.0400,9.6796,-0.4538,0.0065,-0.0927,-3.75,160.19,151.19,1.0156,3.4777,-8.8006,9.5171
11,7,0,1,1,35.886,35886,1.0900,3.2700,-9.2600,9.8807,-0.1931,-0.1614,-0.1189,-4.63,162.69,151.69,1.0254,3.4503,-8.8611,9.5643
11,7,0,1,1,36.016,36016,0.3700,2.3600,-9.9400,10.2230,-0.1385,0.2062,-0.1909,-3.88,163.06,152.56,0.9390,3.3066,-9.0033,9.6371
11,7,0,1,1,36.147,36147,1.0600,2.8800,-9.6000,10.0786,-0.3447,-0.0240,0.0229,-3.44,165.38,152.81,0.9550,3.2504,-9.0819,9.6932
11,7,0,1,1,36.277,36277,0.4100,2.0700,-8.8700,9.1176,0.1124,0.0480,-0.0742,-3.56,165.81,153.19,0.8831,3.0949,-9.0540,9.6090
11,7,0,1,1,36.411,36411,0.6300,2.1200,-9.8700,10.1148,-0.2934,0.2378,-0.0676,-2.13,166.44,153.50,0.8498,2.9664,-9.1615,9.6672
11,7,0,1,1,36.542,36542,1.0800,2.0100,-9.3600,9.6341,0.0513,0.0436,0.0316,-0.75,167.25,153.75,0.8801,2.8404,-9.1877,9.6569
11,7,0,1,1,36.675,36675,0.2900,2.1200,-10.2700,10.4905,-0.2847,-0.2553,0.0644,-2.31,168.13,153.69,0.8024,2.7454,-9.3303,9.7589
11,7,0,1,1,36.848,36848,0.7600,1.1800,-9.0900,9.1977,0.1953,0.1691,0.0109,-2.44,168.38,153.56,0.7968,2.5392,-9.2986,9.6720
11,7,0,1,1,36.978,36978,1.0100,1.9100,-9.4900,9.7328,-0.2083,-0.3218,0.0229,-3.13,168.94,153.31,0.8249,2.4562,-9.3238,9.6772
11,7,0,1,1,37.108,37108,0.6300,2.0100,-9.7100,9.9358,0.1036,-0.1331,0.0153,-5.06,169.13,153.25,0.7992,2.3974,-9.3747,9.7094
11,7,0,1,1,37.238,37238,0.8500,1.6900,-9.9600,10.1381,0.2247,-0.0164,-0.3894,-4.88,168.06,154.31,0.8059,2.3042,-9.4519,9.7620
11,7,0,1,1,37.368,37368,0.7100,2.1100,-8.9500,9.2227,0.1440,0.1909,0.0131,-4.31,166.94,153.81,0.7933,2.2786,-9.3857,9.6909
11,7,0,1,1,37.498,37498,1.1100,2.0100,-10.1500,10.4065,-0.0142,0.2247,0.0611,-2.44,166.25,153.56,0.8350,2.2432,-9.4864,9.7837
11,7,0,1,1,37.629,37629,0.6400,2.6900,-10.0400,10.4138,-0.0371,0.1767,0.0524,-1.44,166.88,153.13,0.8093,2.3021,-9.5594,9.8659
11,7,0,1,1,37.759,37759,0.8400,2.7300,-9.6500,10.0638,0.3033,0.1091,-0.0851,-0.63,166.13,153.06,0.8133,2.3585,-9.5713,9.8911
11,7,0,1,1,37.932,37932,0.1600,2.3600,-9.1900,9.4895,0.5203,-0.4320,-0.2193,-2.31,161.25,153.38,0.7272,2.3587,-9.5211,9.8358
11,7,0,1,1,38.063,38063,0.5200,2.5300,-8.8400,9.2096,0.0273,-0.1920,0.0698,-4.63,158.94,153.38,0.6999,2.3813,-9.4313,9.7524
11,7,0,1,1,38.194,38194,0.0400,3.3200,-9.4500,10.0163,-0.2694,0.5225,0.0513,-3.88,160.50,153.38,0.6130,2.5050,-9.4338,9.7799
11,7,0,1,1,38.325,38325,0.9800,3.8800,-8.9300,9.7857,0.1287,0.7505,0.1822,0.06,160.94,150.19,0.6613,2.6862,-9.3674,9.7673
11,7,0,1,1,38.455,38455,1.4400,2.9800,-8.6700,9.2802,0.4636,0.0065,0.3338,1.69,158.63,147.81,0.7639,2.7249,-9.2755,9.6976
11,7,0,1,1,38.587,38587,0.8800,2.1400,-8.3900,8.7032,-0.1331,-0.4265,0.1233,-1.06,156.63,147.19,0.7792,2.6478,-9.1588,9.5657
11,7,0,1,1,38.722,38722,1.0000,3.5600,-9.1500,9.8689,-0.6185,-0.2596,-0.2171,-4.31,160.81,147.75,0.8083,2.7680,-9.1577,9.6009
11,7,0,1,1,38.852,38852,-0.3600,4.7700,-10.2700,11.3294,0.6316,-0.1058,-0.4091,-4.75,160.13,151.13,0.6544,3.0318,-9.3042,9.8076
11,7,0,1,1,39.025,39025,1.4000,2.5200,-5.7400,6.4232,0.6785,0.2422,0.6130,-3.38,150.69,149.25,0.7526,2.9644,-8.8346,9.3490
11,8,0,1,1,39.155,39155,0.4600,3.8100,-8.8200,9.6187,-1.1236,0.1767,-0.0295,-3.50,153.75,148.13,0.7141,3.0758,-8.8326,9.3801
11,8,0,1,1,39.285,39285,1.0500,5.0900,-9.4500,10.7849,-0.1920,0.0633,-0.0676,-1.56,159.31,148.19,0.7583,3.3412,-8.9140,9.5498
11,8,0,1,1,39.415,39415,0.6700,3.5200,-8.9700,9.6592,0.5040,-0.3949,-0.1516,-3.50,156.00,149.25,0.7467,3.3648,-8.9214,9.5640
11,8,0,1,1,39.545,39545,0.1300,3.5000,-8.5400,9.2303,-0.0927,0.0196,-0.0022,-3.94,154.75,150.69,0.6654,3.3826,-8.8711,9.5174
11,8,0,1,1,39.675,39675,0.8500,4.3400,-8.7000,9.7595,0.0862,-0.0207,0.2411,-3.13,155.38,151.00,0.6898,3.5088,-8.8486,9.5438
11,8,0,1,1,39.806,39806,0.6600,3.9100,-8.8200,9.6704,0.2182,0.1254,0.0022,-2.88,153.69,149.94,0.6858,3.5616,-8.8448,9.5596
11,8,0,1,1,39.936,39936,-0.1800,3.9700,-8.7300,9.5920,0.1876,-0.1996,-0.0905,-3.06,153.00,150.94,0.5717,3.6154,-8.8297,9.5583
11,8,0,1,1,40.109,40109,1.2800,4.1900,-9.0400,10.0457,-0.1636,-0.1407,0.2629,-3.88,153.06,149.25,0.6651,3.6912,-8.8574,9.6187
11,8,0,1,1,40.239,40239,0.1600,4.5200,-7.6300,8.8698,0.2553,-0.2476,0.1538,-5.81,152.69,150.13,0.5985,3.8004,-8.6957,9.5087
11,8,0,1,1,40.369,40369,1.3100,4.0300,-7.7500,8.8329,-0.3305,0.0360,0.1462,-6.19,152.25,149.13,0.6923,3.8306,-8.5710,9.4136
11,8,0,1,1,40.499,40499,1.0100,4.2500,-9.1200,10.1122,-0.4254,0.1233,0.3872,-6.50,154.88,148.44,0.7341,3.8859,-8.6434,9.5051
11,8,0,1,1,40.629,40629,0.9600,4.1500,-8.7400,9.7227,0.3000,-0.0316,-0.5018,-6.44,155.81,147.63,0.7639,3.9207,-8.6561,9.5333
11,8,0,1,1,40.759,40759,1.0800,3.6800,-8.7500,9.5536,-0.2454,0.2062,0.1484,-5.69,155.31,148.00,0.8056,3.8890,-8.6685,9.5350
11,8,0,1,1,40.889,40889,1.0400,3.7000,-9.2100,9.9798,-0.0447,-0.1189,-0.2716,-5.25,156.63,148.50,0.8364,3.8641,-8.7398,9.5925
11,8,0,1,1,41.019,41019,0.6800,3.3400,-8.1700,8.8525,0.0785,0.1069,-0.0993,-5.13,156.44,149.75,0.8158,3.7950,-8.6648,9.4945
11,8,0,1,1,41.192,41192,0.6100,4.5000,-8.8800,9.9738,-0.2160,0.0993,-0.0687,-4.38,158.50,150.38,0.7887,3.8879,-8.6931,9.5555
11,8,0,1,1,41.322,41322,0.9600,2.9100,-8.6600,9.1861,0.1004,-0.0818,0.0240,-4.00,157.94,150.25,0.8113,3.7591,-8.6888,9.5017
11,8,0,1,1,41.452,41452,1.0100,2.8200,-8.7600,9.2580,-0.2629,-0.0142,-0.0458,-4.56,158.69,150.69,0.8375,3.6353,-8.6981,9.4644
11,8,0,1,1,41.582,41582,0.5300,2.9300,-9.6400,10.0894,-0.3676,0.0709,-0.0873,-4.38,161.31,151.06,0.7970,3.5424,-8.8223,9.5402
11,8,0,1,1,41.712,41712,1.1000,2.7900,-9.9300,10.3730,-0.1069,0.1451,-0.0535,-3.38,163.25,151.44,0.8369,3.4432,-8.9682,9.6429
11,8,0,1,1,41.842,41842,1.2900,2.0600,-8.5900,8.9273,0.1669,-0.1047,0.1069,-3.00,162.50,151.19,0.8966,3.2610,-8.9184,9.5381
11,8,0,1,1,41.972,41972,0.7700,2.2200,-9.6600,9.9417,-0.3578,-0.3229,0.0600,-5.25,163.19,151.13,0.8799,3.1238,-9.0161,9.5824
11,8,0,1,1,42.103,42103,-0.3700,2.8800,-8.7200,9.1907,0.1636,0.5301,-0.1494,-4.44,164.31,151.38,0.7152,3.0917,-8.9771,9.5215
11,8,0,1,1,42.276,42276,0.4800,0.9100,-8.8600,8.9195,0.1113,0.4538,-0.1113,-0.38,163.69,150.81,0.6842,2.8042,-8.9617,9.4150
11,8,0,1,1,42.407,42407,1.1300,1.2700,-9.6600,9.8084,-0.5672,0.0087,-0.2891,2.25,165.31,152.13,0.7430,2.6020,-9.0537,9.4494
11,8,0,1,1,42.537,42537,0.6100,2.7200,-10.1600,10.5355,-0.4342,-1.0287,0.0207,-1.69,170.31,152.63,0.7254,2.6176,-9.1995,9.5921
11,8,0,1,1,42.668,42668,-0.1200,2.3900,-10.5000,10.7692,0.3916,-0.0033,-0.1647,-6.06,169.63,153.06,0.6140,2.5876,-9.3708,9.7409
11,8,0,1,1,42.798,42798,1.1200,0.6500,-8.5900,8.6871,0.3076,0.2203,0.0611,-3.88,166.50,153.25,0.6807,2.3322,-9.2680,9.5811
11,8,0,1,1,42.929,42929,1.1300,2.1100,-9.5300,9.8260,-0.3938,0.0207,0.1516,-3.13,167.50,152.44,0.7399,2.3030,-9.3025,9.6118
11,8,0,1,1,43.060,43060,0.6900,2.1300,-9.5000,9.7603,0.1811,-0.2629,0.0393,-5.19,168.06,151.25,0.7333,2.2802,-9.3285,9.6311
11,8,0,1,1,43.190,43190,0.3500,2.3400,-9.9700,10.2469,0.0654,0.4342,-0.2662,-4.13,167.00,151.81,0.6828,2.2881,-9.4130,9.7112
11,8,0,1,1,43.363,43363,-0.0400,0.6800,-8.8900,8.9161,0.6687,-0.2291,-0.5007,-1.38,165.06,152.50,0.5876,2.0762,-9.3441,9.5900
11,8,0,1,1,43.497,43497,-0.3400,2.8200,-10.3800,10.7616,-0.6120,0.0371,-0.1276,-3.00,165.81,151.88,0.4653,2.1742,-9.4806,9.7379
11,8,0,1,1,43.627,43627,1.1100,2.3400,-10.3200,10.6400,0.2596,0.4920,-0.0818,0.50,167.13,153.31,0.5503,2.1960,-9.5912,9.8548
11,8,0,1,1,43.759,43759,1.6000,0.9400,-8.9400,9.1306,0.0698,-0.4451,0.3414,0.00,165.69,152.44,0.6886,2.0305,-9.5054,9.7442
11,8,0,1,1,43.889,43889,-0.7500,2.4000,-10.2000,10.5054,-0.2083,-0.3371,-0.0295,-4.00,166.81,151.38,0.4990,2.0792,-9.5969,9.8323
11,8,0,1,1,44.019,44019,1.1500,2.9900,-7.6400,8.2845,0.9076,0.3796,-0.0415,-1.75,164.44,152.00,0.5848,2.1992,-9.3391,9.6123
11,8,0,1,1,44.150,44150,0.2300,2.0200,-9.7500,9.9597,0.0774,-0.2509,0.1440,-3.13,159.44,150.44,0.5381,2.1756,-9.3932,9.6569
11,8,0,1,1,44.280,44280,0.6500,2.7700,-8.8600,9.3056,0.0578,0.1811,0.0993,-3.19,160.00,149.50,0.5528,2.2539,-9.3230,9.6075
11,8,0,1,1,44.453,44453,-0.0200,3.6000,-10.0900,10.7130,0.1473,-0.1014,0.1604,-2.50,158.19,149.69,0.4773,2.4313,-9.4240,9.7443
11,8,0,1,1,44.584,44584,1.4700,2.7200,-7.6700,8.2697,0.0360,-0.1844,0.3458,-5.69,157.69,146.56,0.6081,2.4694,-9.1929,9.5382
11,8,0,1,1,44.715,44715,1.7500,3.0300,-8.8000,9.4701,-0.3371,0.0436,0.0687,-6.31,158.88,146.94,0.7586,2.5432,-9.1411,9.5186
11,8,0,1,1,44.845,44845,1.2000,4.2600,-8.8300,9.8771,-0.3927,-0.2869,0.3142,-7.44,161.56,147.00,0.8168,2.7695,-9.1001,9.5472
11,8,0,1,1,44.976,44976,2.7600,2.3100,-9.4700,10.1309,0.6174,0.1811,-0.1440,-6.50,158.38,146.44,1.0728,2.7089,-9.1489,9.6016
11,8,0,1,1,45.106,45106,-0.2400,3.9900,-6.8500,7.9310,0.1974,0.3872,0.1178,-5.63,156.13,147.25,0.8998,2.8777,-8.8459,9.3457
11,9,0,1,1,45.237,45237,2.3500,3.8500,-8.8800,9.9599,-0.1102,0.0993,0.2258,-3.50,155.94,146.00,1.0909,3.0058,-8.8504,9.4104
11,9,0,1,1,45.368,45368,-0.7600,5.4100,-7.7000,9.4412,0.1473,-0.7799,-0.5498,-5.63,157.44,146.25,0.8470,3.3227,-8.6988,9.3502
11,9,0,1,1,45.544,45544,1.9900,3.2800,-8.9900,9.7744,0.0011,0.6840,0.3163,-5.88,152.81,143.69,0.9976,3.3170,-8.7372,9.3988
11,9,0,1,1,45.674,45674,1.6800,4.4300,-8.8700,10.0561,0.0295,-0.0262,-0.3033,-4.06,153.50,144.06,1.0876,3.4637,-8.7547,9.4776
11,9,0,1,1,45.805,45805,1.2500,4.0000,-8.1700,9.1821,0.1745,-0.2247,-0.0709,-5.25,152.44,145.31,1.1090,3.5344,-8.6776,9.4352
11,9,0,1,1,45.936,45936,0.8900,4.4400,-8.2100,9.3760,-0.1233,0.0774,0.0545,-5.75,152.38,145.69,1.0801,3.6537,-8.6160,9.4208
11,9,0,1,1,46.066,46066,1.0200,4.3900,-7.9700,9.1561,0.0404,-0.1091,0.1276,-5.88,152.75,145.88,1.0722,3.7507,-8.5309,9.3805
11,9,0,1,1,46.197,46197,1.1900,3.7700,-8.6000,9.4651,-0.4887,0.0469,-0.0229,-6.13,153.94,145.63,1.0877,3.7533,-8.5400,9.3916
11,9,0,1,1,46.327,46327,1.2600,4.1900,-8.5200,9.5778,-0.2443,-0.0927,-0.3043,-5.63,156.75,146.44,1.1104,3.8108,-8.5374,9.4150
11,9,0,1,1,46.457,46457,0.5900,4.0800,-9.2400,10.1179,-0.0502,0.0480,-0.1167,-5.50,157.50,148.38,1.0418,3.8463,-8.6300,9.5056
11,9,0,1,1,46.630,46630,1.1600,3.1900,-8.0700,8.7548,0.3600,-0.0731,0.1134,-4.56,155.13,148.13,1.0574,3.7598,-8.5562,9.4054
11,9,0,1,1,46.760,46760,0.8400,2.6000,-9.2600,9.6547,-0.2629,0.0502,-0.2193,-5.13,154.50,148.63,1.0288,3.6070,-8.6489,9.4272
11,9,0,1,1,46.890,46890,0.1600,4.3300,-9.9200,10.8250,-0.2356,0.3043,-0.0971,-3.38,157.56,149.38,0.9143,3.7023,-8.8164,9.6058
11,9,0,1,1,47.020,47020,0.5200,2.4400,-7.8100,8.1988,0.3392,0.2465,-0.2040,-0.94,155.69,149.69,0.8623,3.5359,-8.6838,9.4157
11,9,0,1,1,47.150,47150,0.6900,2.8800,-9.8000,10.2377,-0.6600,-0.0349,-0.0458,0.63,157.06,150.44,0.8396,3.4495,-8.8309,9.5178
11,9,0,1,1,47.280,47280,0.5500,3.8300,-9.1300,9.9161,-0.1996,-0.5978,0.0905,-2.44,161.00,150.06,0.8015,3.4996,-8.8703,9.5693
11,9,0,1,1,47.411,47411,0.2900,2.4100,-8.9400,9.2637,0.1833,0.1963,0.0284,-3.88,160.00,150.00,0.7341,3.3560,-8.8795,9.5209
11,9,0,1,1,47.541,47541,0.4400,3.0500,-9.0500,9.5603,-0.1505,0.3327,-0.0480,-1.69,160.69,149.63,0.6953,3.3157,-8.9020,9.5248
11,9,0,1,1,47.714,47714,-0.4200,2.7000,-9.3100,9.7027,-0.1309,0.1342,-0.1462,0.00,161.00,149.69,0.5483,3.2346,-8.9557,9.5377
11,9,0,1,1,47.845,47845,0.4300,2.8600,-9.4300,9.8635,-0.1985,0.2476,-0.1625,2.13,162.44,150.50,0.5327,3.1852,-9.0182,9.5790
11,9,0,1,1,47.976,47976,-0.2700,2.3600,-9.5000,9.7925,-0.2203,-0.3294,0.0469,1.56,163.94,151.13,0.4270,3.0765,-9.0817,9.5981
11,9,0,1,1,48.107,48107,0.4500,2.6000,-10.0700,10.4100,-0.2225,-0.3676,-0.0273,-0.81,165.75,151.13,0.4300,3.0137,-9.2119,9.7019
11,9,0,1,1,48.238,48238,0.9700,2.0700,-9.1900,9.4701,0.1571,-0.4418,-0.1058,-3.38,165.88,151.44,0.5012,2.8893,-9.2090,9.6647
11,9,0,1,1,48.373,48373,0.6800,1.3400,-9.6100,9.7268,-0.2465,-0.3382,0.1614,-7.19,165.69,150.69,0.5247,2.6852,-9.2619,9.6575
11,9,0,1,1,48.504,48504,1.0100,3.1200,-10.1100,10.6286,-0.0862,0.3622,-0.0982,-6.69,168.50,150.56,0.5887,2.7425,-9.3736,9.7843
11,9,0,1,1,48.634,48634,0.6200,1.9200,-9.7500,9.9566,0.3076,0.6403,-0.0720,-2.81,166.81,150.63,0.5928,2.6341,-9.4232,9.8024
11,9,0,1,1,48.807,48807,-0.0500,2.0100,-9.1900,9.4074,0.1331,0.6087,-0.2105,2.81,164.81,150.44,0.5081,2.5519,-9.3925,9.7462
11,9,0,1,1,48.938,48938,0.5600,2.0300,-8.8500,9.0971,0.0458,-0.2607,0.1113,4.31,164.50,150.69,0.5149,2.4831,-9.3210,9.6598
11,9,0,1,1,49.068,49068,0.5400,0.6300,-10.0200,10.0543,-0.5912,-0.5247,0.3687,-0.44,166.06,149.38,0.5182,2.2389,-9.4131,9.6896
11,9,0,1,1,49.199,49199,1.1100,2.9500,-10.6900,11.1450,-0.6087,-0.4778,0.3185,-4.75,172.19,146.75,0.5962,2.3326,-9.5814,9.8792
11,9,0,1,1,49.330,49330,-0.3000,2.2600,-9.5600,9.8281,0.9937,0.1898,-0.1691,-5.69,169.56,147.00,0.4781,2.3230,-9.5786,9.8678
11,9,0,1,1,49.460,49460,0.5900,1.4900,-9.3400,9.4765,0.3698,0.3512,0.1200,-3.31,164.38,146.31,0.4929,2.2133,-9.5471,9.8127
11,9,0,1,1,49.591,49591,0.3700,2.6300,-9.5300,9.8932,0.0873,0.2313,0.0033,-1.88,163.25,145.44,0.4767,2.2682,-9.5449,9.8222
11,9,0,1,1,49.722,49722,1.8300,2.0200,-9.2000,9.5953,0.0349,-0.2138,-0.0513,-1.75,162.31,145.00,0.6550,2.2355,-9.4994,9.7809
11,9,0,1,1,49.896,49896,-1.2900,3.6100,-7.8600,8.7450,0.3218,-0.9272,-0.1200,-11.13,162.94,143.25,0.3987,2.4166,-9.2834,9.6011
11,9,0,1,1,50.028,50028,1.3700,2.3300,-9.6200,9.9925,0.0000,0.8825,0.1102,-7.25,160.31,144.25,0.5267,2.4052,-9.3277,9.6472
11,9,0,1,1,50.159,50159,1.8200,2.9600,-9.5200,10.1343,-0.1429,0.3153,0.0240,-4.31,161.38,143.06,0.6971,2.4783,-9.3531,9.7009
11,9,0,1,1,50.289,50289,0.6000,3.8600,-8.7700,9.6007,0.3185,-0.0273,0.0622,-4.38,161.63,142.50,0.6843,2.6604,-9.2762,9.6744
11,9,0,1,1,50.420,50420,1.0200,2.6100,-9.1800,9.5982,-0.1669,0.2487,-0.0589,-4.06,160.44,142.31,0.7286,2.6537,-9.2636,9.6637
11,9,0,1,1,50.550,50550,1.0900,2.6600,-8.7700,9.2291,-0.1963,0.0622,-0.5225,-2.19,161.69,144.50,0.7762,2.6546,-9.1985,9.6053
11,9,0,1,1,50.681,50681,-0.3700,2.2400,-9.7800,10.0401,-0.2716,-0.3229,-0.6076,-3.31,162.81,148.88,0.6251,2.5999,-9.2751,9.6529
11,9,0,1,1,50.811,50811,-0.2300,3.7300,-7.0500,7.9792,0.3338,-0.0185,0.2585,-4.00,163.06,150.75,0.5125,2.7488,-8.9819,9.4071
11,9,0,1,1,50.984,50984,0.3900,3.4500,-8.2000,8.9048,-0.2945,0.2280,0.4963,-3.13,161.19,147.25,0.4963,2.8412,-8.8789,9.3356
11,9,0,1,1,51.114,51114,1.1700,3.7000,-8.0200,8.9095,0.0065,-0.0120,0.2825,-2.13,161.88,144.56,0.5851,2.9544,-8.7657,9.2687
11,10,0,1,1,51.245,51245,0.4900,3.2200,-8.9700,9.5430,0.1996,-0.1484,-0.0131,-3.13,160.31,144.06,0.5726,2.9894,-8.7926,9.3046
11,10,0,1,1,51.375,51375,0.6000,3.6600,-9.0800,9.8083,-0.0654,0.0251,-0.0284,-2.69,159.81,144.69,0.5762,3.0778,-8.8305,9.3692
11,10,0,1,1,51.506,51506,0.1000,4.0400,-9.1800,10.0302,0.2476,-0.0382,0.1102,-3.06,159.19,144.44,0.5134,3.2046,-8.8766,9.4512
11,10,0,1,1,51.637,51637,0.0600,3.4500,-9.0400,9.6761,0.2945,0.2891,-0.0360,-2.13,156.75,144.94,0.4537,3.2369,-8.8981,9.4794
11,10,0,1,1,51.767,51767,0.5500,3.4500,-8.7000,9.3752,-0.1549,0.0076,0.0578,-1.56,156.38,144.13,0.4664,3.2650,-8.8720,9.4652
11,10,0,1,1,51.898,51898,0.1800,3.6000,-9.3800,10.0487,-0.0982,-0.0545,-0.1200,-1.81,157.63,144.00,0.4286,3.3091,-8.9389,9.5414
11,10,0,1,1,52.074,52074,0.5500,3.4700,-9.0500,9.7080,-0.0316,-0.1778,-0.0436,-3.19,158.25,144.38,0.4446,3.3303,-8.9536,9.5632
11,10,0,1,1,52.205,52205,0.6400,4.3400,-7.3500,8.5597,0.2618,-0.1102,0.0993,-3.75,157.88,144.44,0.4704,3.4634,-8.7423,9.4151
11,10,0,1,1,52.336,52336,0.7800,3.0300,-9.3300,9.8406,-0.1080,0.4636,0.5694,-4.56,156.44,140.56,0.5112,3.4063,-8.8197,9.4684
11,10,0,1,1,52.466,52466,1.0600,4.1300,-8.7800,9.7606,-0.0796,0.1734,-0.0567,-2.81,158.56,138.81,0.5835,3.5016,-8.8145,9.5025
11,10,0,1,1,52.596,52596,-0.5000,3.1400,-9.3500,9.8758,0.4374,0.0022,0.1265,-3.19,156.25,137.94,0.4407,3.4540,-8.8850,9.5430
11,10,0,1,1,52.727,52727,0.3800,3.7800,-7.7700,8.6490,-0.0764,0.0611,-0.0840,-2.94,155.88,137.44,0.4327,3.4969,-8.7381,9.4218
11,10,0,1,1,52.857,52857,0.0000,3.5400,-9.7200,10.3446,-0.3447,0.1178,-0.1931,-2.19,156.81,138.63,0.3757,3.5026,-8.8675,9.5416
11,10,0,1,1,52.988,52988,1.0600,3.9400,-8.3600,9.3025,-0.1091,-0.1549,0.0120,-1.75,158.88,138.56,0.4659,3.5603,-8.8006,9.5049
11,10,0,1,1,53.161,53161,-0.0700,3.6100,-8.7700,9.4842,-0.1887,-0.3480,-0.0916,-5.00,160.06,140.81,0.3953,3.5668,-8.7966,9.5004
11,10,0,1,1,53.292,53292,1.3000,2.7600,-9.0300,9.5314,0.0513,-0.0425,-0.1571,-5.69,159.69,141.44,0.5145,3.4605,-8.8273,9.4954
11,10,0,1,1,53.422,53422,1.8000,2.8300,-9.3200,9.9051,-0.4025,-0.8170,0.0120,-7.75,161.13,142.44,0.6839,3.3774,-8.8923,9.5366
11,10,0,1,1,53.553,53553,-0.0500,3.1900,-9.2900,9.8226,-0.1102,-0.3371,-0.0720,-13.50,163.13,143.38,0.5872,3.3527,-8.9447,9.5704
11,10,0,1,1,53.683,53683,1.6800,2.6800,-9.5200,10.0317,0.0022,0.9316,-0.1353,-9.56,163.13,143.56,0.7312,3.2641,-9.0205,9.6207
11,10,0,1,1,53.814,53814,1.6100,3.1300,-8.8400,9.5150,0.1004,0.1680,-0.0938,-5.69,163.13,143.06,0.8470,3.2464,-8.9967,9.6019
11,10,0,1,1,53.945,53945,0.7400,2.2700,-8.9500,9.2630,0.1429,0.0545,-0.1200,-5.00,161.00,144.00,0.8329,3.1177,-8.9906,9.5522
11,10,0,1,1,54.078,54078,1.0800,2.8000,-8.9000,9.3924,-0.1527,0.0513,-0.1287,-3.75,162.06,145.00,0.8654,3.0759,-8.9786,9.5302
11,10,0,1,1,54.251,54251,0.3300,3.2500,-9.6000,10.1406,-0.2094,-0.0305,-0.0513,-4.63,163.56,145.69,0.7949,3.0988,-9.0605,9.6087
11,10,0,1,1,54.397,54397,-0.1600,1.9200,-9.0200,9.2235,0.2913,0.4407,0.0644,-2.50,162.63,146.25,0.6691,2.9435,-9.0552,9.5450
11,10,0,1,1,54.532,54532,0.3700,2.9000,-10.3400,10.7453,-0.5214,0.5978,-0.0654,1.81,163.63,145.13,0.6297,2.9377,-9.2245,9.7014
11,10,0,1,1,54.662,54662,0.4800,3.0900,-9.0400,9.5656,0.0774,-0.3796,0.0938,2.50,166.00,144.81,0.6099,2.9578,-9.2002,9.6832
11,10,0,1,1,54.794,54794,-0.5000,1.3700,-9.5100,9.6212,-0.2073,-0.3043,0.1200,-1.13,165.38,144.44,0.4637,2.7486,-9.2410,9.6522
11,10,0,1,1,54.924,54924,-0.1400,3.2200,-10.3700,10.8593,-0.4407,0.3458,-0.1691,-0.63,169.06,144.38,0.3841,2.8107,-9.3898,9.8089
11,10,0,1,1,55.055,55055,0.6200,1.9900,-8.8300,9.0727,0.4963,0.0545,-0.0851,1.44,167.88,145.25,0.4152,2.7026,-9.3160,9.7090
11,10,0,1,1,55.185,55185,-0.6100,1.3600,-9.9000,10.0116,-0.0349,-0.2520,0.0153,0.13,165.56,145.81,0.2801,2.5256,-9.3930,9.7306
11,10,0,1,1,55.358,55358,0.1100,2.9900,-10.5500,10.9661,-0.3251,0.1211,0.0513,0.88,169.38,145.94,0.2577,2.5868,-9.5454,9.8931
11,10,0,1,1,55.488,55488,1.0800,2.7200,-10.3700,10.7750,-0.1407,-0.2760,0.1876,0.19,170.31,144.25,0.3661,2.6044,-9.6541,10.0059
11,10,0,1,1,55.618,55618,0.0900,0.9700,-8.6600,8.7146,0.4767,-0.3109,-0.0502,-2.63,168.38,144.88,0.3297,2.3890,-9.5231,9.8237
11,10,0,1,1,55.748,55748,3.5200,0.6400,-9.2100,9.8805,-0.4941,-1.4399,0.8268,-8.31,167.94,142.25,0.7501,2.1585,-9.4818,9.7533
11,10,0,1,1,55.878,55878,-2.1600,2.3800,-10.5600,11.0383,0.3338,1.1312,-0.2945,-10.88,168.94,143.94,0.3666,2.1877,-9.6239,9.8762
11,10,0,1,1,56.008,56008,2.7900,2.0600,-9.4800,10.0945,0.3043,0.7930,0.2422,-1.19,166.94,142.38,0.6859,2.1709,-9.6049,9.8711
11,10,0,1,1,56.138,56138,0.7300,1.6300,-8.6600,8.8423,0.2553,-0.7134,0.1418,-2.38,164.56,141.38,0.6918,2.0996,-9.4804,9.7347
11,10,0,1,1,56.269,56269,-0.1600,2.0600,-10.1500,10.3582,-0.2814,0.1342,0.0044,-4.56,165.44,141.50,0.5795,2.0944,-9.5687,9.8123
11,10,0,1,1,56.442,56442,0.3000,2.4300,-9.0700,9.3947,0.2040,-0.1571,-0.3807,-2.75,165.63,144.13,0.5427,2.1386,-9.5029,9.7557
11,10,0,1,1,56.573,56573,1.3500,2.8000,-9.9300,10.4052,-0.2520,-0.2193,-0.0774,-4.06,166.00,146.31,0.6491,2.2258,-9.5592,9.8364
11,10,0,1,1,56.704,56704,0.2900,1.4000,-8.6400,8.7575,0.4276,0.1047,-0.0829,-4.75,163.44,148.63,0.6017,2.1170,-9.4381,9.6913
11,10,0,1,1,56.837,56837,1.3800,2.6800,-9.0300,9.5199,0.2793,0.3262,-0.3720,-3.88,162.50,147.75,0.7043,2.1911,-9.3843,9.6624
11,10,0,1,1,56.968,56968,-0.1300,3.0700,-8.4300,8.9726,-0.0807,-0.2629,0.3862,-3.88,161.19,149.06,0.5944,2.3070,-9.2586,9.5601
11,10,0,1,1,57.101,57101,0.3700,3.6200,-7.8300,8.6342,0.1756,0.4701,0.4581,-4.06,161.88,145.38,0.5648,2.4800,-9.0703,9.4202
11,11,0,1,1,57.232,57232,1.7100,3.0700,-9.5700,10.1948,-0.0262,0.0916,0.3109,-2.69,161.75,142.38,0.7157,2.5577,-9.1362,9.5144
11,11,0,1,1,57.362,57362,0.7100,3.0100,-8.5800,9.1203,0.2651,-0.2978,-0.3872,-4.50,160.63,142.56,0.7150,2.6173,-9.0629,9.4603
11,11,0,1,1,57.535,57535,0.8600,3.3000,-8.8900,9.5216,-0.1462,-0.0415,0.1767,-5.13,160.81,144.38,0.7341,2.7073,-9.0401,9.4653
11,11,0,1,1,57.666,57666,0.6200,3.4500,-9.3900,10.0229,0.0894,0.1811,-0.0382,-4.81,161.19,143.88,0.7190,2.8052,-9.0862,9.5365
11,11,0,1,1,57.796,57796,0.9600,3.2900,-8.7100,9.3600,0.3098,0.0436,0.1953,-3.88,159.50,143.25,0.7508,2.8690,-9.0366,9.5108
11,11,0,1,1,57.926,57926,0.6800,3.4800,-8.1900,8.9246,0.1963,0.0731,0.0011,-4.00,157.69,142.63,0.7415,2.9496,-8.9251,9.4290
11,11,0,1,1,58.057,58057,0.9500,3.0700,-8.3500,8.9471,-0.0894,-0.1593,0.1571,-4.31,157.25,142.38,0.7689,2.9654,-8.8493,9.3646
11,11,0,1,1,58.187,58187,0.7600,3.4500,-9.6300,10.2575,-0.4516,-0.1974,-0.0785,-5.88,160.06,142.50,0.7678,3.0293,-8.9522,9.4819
11,11,0,1,1,58.318,58318,0.6500,3.4900,-8.5400,9.2485,0.2138,0.0349,-0.0796,-6.00,160.69,143.13,0.7522,3.0900,-8.8979,9.4491
11,11,0,1,1,58.448,58448,0.7400,2.7800,-9.9200,10.3287,-0.0687,0.1484,-0.0469,-4.94,159.75,143.75,0.7506,3.0491,-9.0325,9.5628
11,11,0,1,1,58.621,58621,0.2000,3.4400,-9.7200,10.3127,0.0829,-0.1244,-0.0011,-4.56,160.25,143.88,0.6781,3.1006,-9.1231,9.6595
11,11,0,1,1,58.756,58756,1.4300,3.0200,-7.3200,8.0466,0.4036,0.0742,0.0862,-4.25,158.50,143.38,0.7772,3.0900,-8.8855,9.4395
11,11,0,1,1,58.887,58887,1.1400,3.2000,-9.2900,9.8916,-0.6643,-0.0927,0.0360,-5.06,159.81,143.75,0.8250,3.1045,-8.9388,9.4985
11,11,0,1,1,59.017,59017,0.3100,3.3200,-8.6400,9.2611,-0.0229,-0.2782,-0.2203,-6.19,161.94,144.94,0.7571,3.1329,-8.8994,9.4651
11,11,0,1,1,59.147,59147,0.4900,2.4600,-9.6500,9.9707,-0.1178,0.2487,0.0240,-6.25,162.00,145.38,0.7219,3.0442,-8.9984,9.5267
11,11,0,1,1,59.278,59278,0.9100,3.0800,-9.5300,10.0566,0.1549,0.3698,0.1287,-3.75,162.13,144.19,0.7467,3.0489,-9.0684,9.5963
11,11,0,1,1,59.409,59409,2.1800,2.9200,-8.2400,9.0098,0.2367,-0.3174,0.2062,-3.38,160.88,143.25,0.9356,3.0320,-8.9592,9.5045
11,11,0,1,1,59.539,59539,-0.8100,2.7500,-9.3800,9.8083,0.1724,0.1909,-0.1451,-4.75,158.88,143.81,0.7055,2.9948,-9.0147,9.5253
11,11,0,1,1,59.712,59712,1.9300,3.3900,-8.6200,9.4616,-0.0338,-0.0469,0.0578,-1.63,159.75,143.25,0.8669,3.0469,-8.9627,9.5060
11,11,0,1,1,59.842,59842,-0.1400,2.5200,-8.8200,9.1740,-0.1963,-0.5072,-0.1342,-4.13,159.69,144.50,0.7342,2.9775,-8.9439,9.4550
11,11,0,1,1,59.973,59973,0.1600,3.3000,-9.6100,10.1621,-0.6196,0.3065,-0.2520,-4.31,163.81,145.50,0.6585,3.0200,-9.0317,9.5459
11,11,0,1,1,60.103,60103,0.8600,1.6700,-9.5700,9.7526,0.0185,0.2334,-0.1418,-0.81,164.75,146.63,0.6851,2.8421,-9.1026,9.5605
11,11,0,1,1,60.234,60234,0.2900,3.3200,-9.7800,10.3322,-0.3207,-0.1811,0.1811,-1.63,167.06,145.94,0.6330,2.9050,-9.1919,9.6608
11,11,0,1,1,60.365,60365,0.4000,1.6800,-8.8700,9.0366,0.4931,0.0676,-0.1996,-2.06,165.31,146.19,0.6023,2.7436,-9.1494,9.5709
11,11,0,1,1,60.497,60497,0.3100,2.4500,-10.3600,10.6503,-0.4691,0.1287,-0.1320,-0.88,165.19,147.13,0.5638,2.7049,-9.3090,9.7104
11,11,0,1,1,60.628,60628,0.5500,2.4700,-8.9500,9.3009,0.1844,-0.1342,0.0131,-0.69,166.69,147.44,0.5620,2.6740,-9.2617,9.6563
11,11,0,1,1,60.802,60802,-0.6100,2.7500,-10.5700,10.9389,-0.3076,0.1025,0.0360,-2.56,166.56,147.50,0.4075,2.6840,-9.4341,9.8169
11,11,0,1,1,60.932,60932,0.9500,2.2600,-9.0600,9.3858,0.2411,0.3720,0.1276,-0.31,166.63,146.50,0.4790,2.6281,-9.3848,9.7576
11,11,0,1,1,61.064,61064,1.1600,1.4400,-10.0100,10.1794,-0.3927,-0.3120,0.2509,-1.13,166.94,144.06,0.5688,2.4716,-9.4672,9.8010
11,11,0,1,1,61.194,61194,-0.4800,2.4500,-9.7900,10.1033,0.0556,0.3109,-0.0305,-1.63,168.63,143.63,0.4306,2.4687,-9.5097,9.8344
11,11,0,1,1,61.324,61324,1.4600,2.0400,-9.5500,9.8740,0.3414,0.0720,0.1124,0.25,166.69,142.88,0.5662,2.4122,-9.5150,9.8323
11,11,0,1,1,61.455,61455,0.3200,1.9300,-8.5200,8.7417,0.2411,-0.5967,0.0447,-3.00,164.94,142.31,0.5338,2.3487,-9.3839,9.6881
11,11,0,1,1,61.585,61585,0.0500,2.6500,-10.9900,11.3051,-0.1473,0.3163,-0.1233,-4.19,164.06,142.94,0.4700,2.3884,-9.5955,9.8995
11,11,0,1,1,61.716,61716,0.1500,2.7400,-8.9100,9.3230,0.4418,0.0818,0.0295,-2.44,162.63,143.00,0.4279,2.4347,-9.5052,9.8214
11,11,0,1,1,61.888,61888,-0.1500,2.7800,-8.8800,9.3062,0.1974,-0.3294,-0.0938,-4.94,161.25,143.50,0.3517,2.4802,-9.4228,9.7501
11,11,0,1,1,62.018,62018,0.9300,2.5100,-7.5600,8.0199,-0.1996,0.1778,-0.1080,-4.31,160.81,144.31,0.4279,2.4841,-9.1773,9.5172
11,11,0,1,1,62.148,62148,1.3400,3.1700,-9.7000,10.2924,-0.4112,-0.2367,-0.1898,-4.94,163.75,145.75,0.5481,2.5745,-9.2462,9.6136
11,11,0,1,1,62.278,62278,-0.3100,2.5900,-9.4000,9.7552,0.2683,0.0011,0.1113,-5.69,163.88,145.94,0.4350,2.5766,-9.2665,9.6279
11,11,0,1,1,62.408,62408,0.7300,1.8700,-8.4300,8.6657,0.0415,-0.2585,0.0262,-6.06,162.00,145.88,0.4739,2.4835,-9.1563,9.4989
11,11,0,1,1,62.538,62538,1.0000,2.4800,-9.3400,9.7152,-0.4516,0.3251,-0.0196,-4.81,163.75,145.94,0.5432,2.4830,-9.1805,9.5258
11,11,0,1,1,62.669,62669,0.1900,4.3500,-8.2300,9.3108,0.5400,0.3316,0.2694,-3.56,164.50,144.81,0.4967,2.7290,-9.0552,9.4705
11,11,0,1,1,62.799,62799,1.5300,2.7100,-7.1900,7.8346,0.3851,-0.2378,0.1985,-2.81,159.63,142.88,0.6328,2.7265,-8.8094,9.2434
11,12,0,1,1,62.972,62972,0.5000,3.9400,-8.6000,9.4728,-0.1364,-0.0109,-0.0305,-4.69,160.00,143.50,0.6153,2.8864,-8.7818,9.2645
11,12,0,1,1,63.102,63102,1.0000,3.1800,-9.5100,10.0773,0.2716,0.1734,-0.0240,-3.56,158.88,143.94,0.6660,2.9251,-8.8778,9.3710
11,12,0,1,1,63.233,63233,0.5900,3.5800,-8.7400,9.4632,0.1244,-0.0622,-0.0185,-3.88,157.75,143.63,0.6560,3.0114,-8.8596,9.3804
11,12,0,1,1,63.363,63363,0.6000,3.4500,-8.8200,9.4897,0.0709,0.1440,0.2193,-3.94,157.13,142.75,0.6486,3.0692,-8.8544,9.3937
11,12,0,1,1,63.493,63493,1.2700,3.7200,-8.8900,9.7203,0.0316,-0.0011,0.0229,-3.63,156.88,141.88,0.7305,3.1550,-8.8591,9.4324
11,12,0,1,1,63.624,63624,1.1200,4.1500,-8.1300,9.1964,0.1374,-0.1974,-0.1189,-4.75,156.31,142.44,0.7818,3.2861,-8.7630,9.3915
11,12,0,1,1,63.754,63754,0.4900,3.5700,-8.6500,9.3706,0.1865,-0.1724,0.2029,-6.56,154.50,142.63,0.7434,3.3235,-8.7481,9.3877
11,12,0,1,1,63.885,63885,1.1800,4.5000,-8.4800,9.6723,-0.1418,0.3251,0.1636,-5.31,155.31,141.81,0.8009,3.4785,-8.7128,9.4156
11,12,0,1,1,64.062,64062,0.7400,3.3200,-9.9800,10.5437,-0.0600,-0.1680,-0.0535,-6.13,155.38,140.56,0.7929,3.4576,-8.8798,9.5621
11,12,0,1,1,64.192,64192,1.1500,4.0900,-7.6300,8.7331,0.1724,0.0654,-0.0371,-6.31,155.81,140.63,0.8399,3.5410,-8.7151,9.4444
11,12,0,1,1,64.324,64324,0.4200,3.3200,-9.1400,9.7334,-0.2989,0.2302,0.1276,-5.69,155.38,140.19,0.7846,3.5118,-8.7711,9.4805
11,12,0,1,1,64.454,64454,1.5500,4.2700,-9.4100,10.4491,-0.0567,0.1767,-0.0894,-4.19,157.75,139.38,0.8855,3.6118,-8.8553,9.6044
11,12,0,1,1,64.584,64584,0.9200,2.8600,-8.9200,9.4124,0.2389,-0.3272,-0.1254,-5.00,156.63,140.13,0.8900,3.5127,-8.8638,9.5759
11,12,0,1,1,64.730,64730,0.6800,3.6400,-8.3600,9.1434,-0.1505,-0.0905,-0.1418,-6.69,156.50,140.94,0.8623,3.5295,-8.7974,9.5182
11,12,0,1,1,64.864,64864,1.1300,3.0800,-9.2700,9.8334,-0.2520,0.3916,0.0829,-5.31,157.88,141.75,0.8976,3.4702,-8.8597,9.5573
11,12,0,1,1,64.995,64995,1.4200,4.0100,-9.0700,10.0181,-0.0753,-0.2574,0.0055,-4.56,159.94,141.06,0.9664,3.5414,-8.8874,9.6157
11,12,0,1,1,65.168,65168,-0.2900,3.0900,-9.2900,9.7947,-0.0524,-0.1233,-0.1963,-8.81,159.50,141.69,0.8009,3.4819,-8.9405,9.6279
11,12,0,1,1,65.298,65298,2.0600,3.2200,-9.4000,10.1475,-0.0087,0.4887,0.0524,-6.00,159.88,141.75,0.9668,3.4474,-9.0010,9.6870
11,12,0,1,1,65.428,65428,1.6500,2.8500,-7.8300,8.4943,0.3927,-0.0142,-0.0436,-4.88,158.88,142.25,1.0568,3.3687,-8.8467,9.5252
11,12,0,1,1,65.558,65558,0.5600,3.0700,-10.0200,10.4947,-0.4505,0.0393,-0.0567,-4.63,158.56,143.00,0.9914,3.3293,-9.0013,9.6484
11,12,0,1,1,65.688,65688,0.1700,3.5600,-9.4800,10.1278,-0.1069,0.1244,-0.0196,-4.00,161.06,143.63,0.8831,3.3597,-9.0644,9.7073
11,12,0,1,1,65.818,65818,0.6300,3.8200,-8.9700,9.7699,0.0535,0.4494,-0.2160,-2.00,162.19,143.81,0.8498,3.4204,-9.0520,9.7138
11,12,0,1,1,65.949,65949,2.7800,0.6900,-8.4000,8.8749,-0.0033,-0.1778,-0.0196,1.00,158.63,143.94,1.1041,3.0606,-8.9660,9.5381
11,12,0,1,1,66.079,66079,-0.3300,4.2400,-9.8500,10.7289,-0.8498,-0.5640,0.2334,-4.13,164.81,144.44,0.9151,3.2160,-9.0825,9.6784
11,12,0,1,1,66.252,66252,2.4900,1.3500,-9.7000,10.1051,0.4832,0.3120,0.1167,-1.44,162.94,144.56,1.1227,2.9701,-9.1639,9.6984
11,12,0,1,1,66.383,66383,0.9800,2.4600,-9.4000,9.7659,-0.5498,-0.5596,0.0404,-3.13,164.06,144.56,1.1039,2.9029,-9.1950,9.7053
11,12,0,1,1,66.513,66513,2.1000,2.0000,-10.1200,10.5273,0.1254,0.1822,-0.4222,-5.00,165.69,144.88,1.2351,2.7839,-9.3169,9.8021
11,12,0,1,1,66.644,66644,1.2900,2.4500,-9.3800,9.7801,-0.2574,0.1364,0.0545,-3.13,165.81,145.63,1.2424,2.7399,-9.3252,9.7985
11,12,0,1,1,66.774,66774,0.9800,2.3200,-9.6600,9.9829,0.1102,-0.1560,0.0458,-3.63,166.31,145.75,1.2078,2.6846,-9.3693,9.8209
11,12,0,1,1,66.905,66905,0.5000,2.3100,-9.4400,9.7314,0.0709,0.0295,-0.0545,-4.31,165.63,145.69,1.1145,2.6352,-9.3786,9.8054
11,12,0,1,1,67.035,67035,1.0000,1.9800,-9.4500,9.7068,0.0567,0.1276,0.1145,-3.31,164.81,145.44,1.0994,2.5489,-9.3880,9.7898
11,12,0,1,1,67.165,67165,0.4200,3.6500,-10.3200,10.9545,-0.0960,-0.0338,0.0436,-3.31,166.38,144.44,1.0099,2.6940,-9.5109,9.9365
11,13,0,1,1,67.338,67338,1.3300,0.9900,-9.4600,9.6042,-0.0894,-0.4680,0.3556,-5.19,164.81,142.25,1.0521,2.4694,-9.5042,9.8759
11,13,0,1,1,67.472,67472,0.6300,2.9000,-9.4800,9.9336,-0.0644,0.2596,-0.0535,-6.44,166.56,141.81,0.9965,2.5262,-9.5010,9.8814
11,13,0,1,1,67.602,67602,2.2500,1.9200,-9.5200,9.9689,0.1800,-0.2018,0.2553,-5.38,165.25,140.81,1.1616,2.4463,-9.5035,9.8818
11,13,0,1,1,67.734,67734,0.6700,2.9900,-8.9900,9.4978,0.2760,-0.0567,-0.0905,-8.13,164.56,140.69,1.0969,2.5179,-9.4358,9.8274
11,13,0,1,1,67.864,67864,2.9200,0.9800,-9.7200,10.1963,-0.1156,0.0098,0.2247,-7.50,162.44,140.25,1.3371,2.3153,-9.4733,9.8433
11,13,0,1,1,67.995,67995,0.5300,3.3700,-10.3600,10.9072,-0.2596,0.0098,-0.1734,-8.19,164.31,141.25,1.2307,2.4543,-9.5901,9.9754
11,13,0,1,1,68.125,68125,2.5600,1.3000,-9.3300,9.7618,0.5978,-0.1724,0.0055,-8.69,162.25,141.56,1.4059,2.3022,-9.5558,9.9293
11,13,0,1,1,68.255,68255,0.9500,2.9100,-8.8200,9.3361,0.0415,0.2803,-0.2127,-8.44,160.94,142.56,1.3458,2.3823,-9.4589,9.8467
11,13,0,1,1,68.428,68428,0.8200,2.1300,-8.4500,8.7528,-0.0393,0.0753,0.0676,-6.06,159.56,143.19,1.2765,2.3490,-9.3259,9.7016
11,13,0,1,1,68.559,68559,0.5800,2.9500,-9.9800,10.4230,-0.0469,0.4189,0.2836,-5.19,160.50,141.38,1.1848,2.4282,-9.4121,9.7922
11,13,0,1,1,68.690,68690,1.3800,3.4800,-7.7000,8.5618,0.3687,0.1942,0.5618,-3.19,159.44,138.31,1.2105,2.5668,-9.1865,9.6149
11,13,0,1,1,68.820,68820,2.5500,2.7100,-7.1900,8.0958,-0.4112,-0.3011,-0.2596,-3.25,159.13,137.94,1.3870,2.5857,-8.9234,9.3934
11,13,0,1,1,68.951,68951,-0.3900,4.5500,-10.6600,11.5970,-0.1691,-0.2923,-0.2749,-5.63,162.50,142.31,1.1528,2.8445,-9.1523,9.6532
11,13,0,1,1,69.081,69081,1.0100,2.9700,-8.5000,9.0604,0.6218,0.0676,-0.0218,-5.44,159.38,142.63,1.1340,2.8611,-9.0663,9.5744
11,13,0,1,1,69.214,69214,0.7500,3.0900,-8.8600,9.4133,0.0774,0.1167,0.1113,-5.44,157.13,141.63,1.0834,2.8912,-9.0391,9.5519
11,13,0,1,1,69.345,69345,1.6400,4.2100,-9.1200,10.1778,0.1898,-0.0055,0.0022,-4.75,156.75,141.13,1.1568,3.0650,-9.0498,9.6245
11,13,0,1,1,69.519,69519,0.4500,3.8100,-8.1900,9.0440,0.3207,-0.0447,0.0120,-5.88,152.81,142.19,1.0636,3.1632,-8.9365,9.5393
11,13,0,1,1,69.649,69649,1.1300,3.7200,-7.9400,8.8408,-0.1309,0.0720,-0.0720,-5.25,152.75,142.44,1.0724,3.2366,-8.8052,9.4423
11,13,0,1,1,69.780,69780,0.5800,3.2400,-8.3300,8.9567,-0.8159,0.1484,0.1844,-4.69,155.94,143.56,1.0075,3.2370,-8.7426,9.3769
11,13,0,1,1,69.910,69910,1.5400,4.6300,-10.3600,11.4516,-0.6469,0.0305,-0.3054,-3.44,162.31,144.56,1.0777,3.4206,-8.9557,9.6471
11,13,0,1,1,70.041,70041,0.6100,3.7500,-8.8900,9.6678,0.9087,-0.1876,-0.3349,-3.81,160.69,147.00,1.0160,3.4640,-8.9470,9.6478
11,13,0,1,1,70.171,70171,1.1300,2.3400,-8.1000,8.5066,0.4996,-0.1549,-0.1233,-4.19,154.25,148.38,1.0311,3.3159,-8.8354,9.4933
11,13,0,1,1,70.302,70302,0.6000,3.8000,-9.0200,9.8061,-0.3480,0.0622,-0.1134,-4.19,154.31,149.56,0.9742,3.3797,-8.8597,9.5324
11,13,0,1,1,70.432,70432,0.5200,4.9300,-9.6600,10.8578,-0.2062,0.0273,-0.0960,-3.56,157.13,150.38,0.9144,3.5840,-8.9652,9.6982
11,13,0,1,1,70.605,70605,0.5100,3.1800,-8.7900,9.3614,0.2673,-0.0251,-0.0676,-4.00,154.69,150.69,0.8611,3.5307,-8.9421,9.6524
11,13,0,1,1,70.735,70735,0.9000,4.2300,-7.7200,8.8488,-0.2683,0.1854,0.0502,-3.06,155.94,150.69,0.8662,3.6229,-8.7811,9.5385
11,13,0,1,1,70.865,70865,0.2200,4.1100,-9.9600,10.7769,0.1353,-0.1963,-0.1593,-2.94,155.75,150.75,0.7811,3.6871,-8.9364,9.6987
11,13,0,1,1,70.995,70995,0.5100,3.6900,-7.9000,8.7342,0.3512,0.1167,0.0894,-3.00,154.13,151.19,0.7454,3.6875,-8.7998,9.5703
11,13,0,1,1,71.125,71125,1.4000,3.2200,-8.6200,9.3077,-0.1669,-0.1985,0.1462,-3.56,152.94,150.44,0.8316,3.6259,-8.7761,9.5320
11,13,0,1,1,71.255,71255,-0.3800,4.0600,-9.0700,9.9445,-0.5105,0.1582,-0.1560,-3.94,156.06,150.81,0.6720,3.6831,-8.8149,9.5770
11,13,0,1,1,71.385,71385,0.5100,4.3000,-9.6400,10.5679,0.0262,0.2433,0.2356,-2.50,157.75,149.88,0.6506,3.7644,-8.9236,9.7069
11,13,0,1,1,71.516,71516,1.1700,2.6900,-8.5000,8.9919,0.1789,-0.0720,0.0284,-2.56,156.13,149.50,0.7191,3.6228,-8.8678,9.6062
11,13,0,1,1,71.689,71689,1.3000,3.7700,-9.2200,10.0455,-0.4898,-0.0578,-0.0971,-2.56,159.63,149.63,0.7956,3.6422,-8.9142,9.6624
11,13,0,1,1,71.822,71822,0.1800,2.6900,-9.0700,9.4622,0.0927,-0.0076,-0.2225,-2.63,160.13,151.00,0.7145,3.5167,-8.9347,9.6285
11,13,0,1,1,71.953,71953,0.5000,2.9500,-9.3000,9.7695,-0.3665,0.1560,-0.0916,-0.81,161.44,152.13,0.6862,3.4420,-8.9829,9.6442
11,13,0,1,1,72.087,72087,0.1600,2.9900,-9.5300,9.9893,-0.2989,-0.1222,0.0807,-1.63,163.75,151.94,0.6169,3.3825,-9.0550,9.6858
11,13,0,1,1,72.217,72217,0.7000,3.0500,-9.6300,10.1257,-0.1265,0.0764,-0.0425,-1.44,165.44,151.81,0.6278,3.3387,-9.1307,9.7422
11,13,0,1,1,72.349,72349,0.4300,2.3300,-9.3400,9.6358,0.0698,-0.0425,-0.0480,-1.88,165.13,151.81,0.6018,3.2057,-9.1583,9.7218
11,13,0,1,1,72.479,72479,0.4900,2.4200,-9.5700,9.8834,-0.1124,0.0425,-0.1080,-1.63,165.56,152.69,0.5870,3.1022,-9.2126,9.7386
11,13,0,1,1,72.609,72609,0.8600,2.7100,-10.1900,10.5792,0.0207,-0.1473,0.0327,-1.94,165.94,153.06,0.6230,3.0505,-9.3414,9.8466
11,14,0,1,1,72.782,72782,0.1000,2.5400,-8.7700,9.1310,0.3665,0.3131,-0.1287,-1.06,164.63,154.38,0.5541,2.9832,-9.2661,9.7502
11,14,0,1,1,72.913,72913,0.1300,1.2100,-9.0700,9.1513,0.1407,-0.0404,-0.1691,0.00,161.63,154.50,0.4982,2.7496,-9.2402,9.6535
11,14,0,1,1,73.043,73043,-0.8900,4.0100,-9.9200,10.7368,-0.1942,0.3971,-0.0633,0.25,164.06,154.44,0.3153,2.9157,-9.3298,9.7799
11,14,0,1,1,73.174,73174,2.1000,2.0300,-8.9600,9.4240,0.3087,-0.4669,0.4691,0.13,161.88,152.06,0.5505,2.7990,-9.2811,9.7096
11,14,0,1,1,73.305,73305,1.5800,2.7800,-10.3200,10.8040,0.0622,-0.2989,0.2454,-3.06,160.44,152.19,0.6861,2.7965,-9.4180,9.8483
11,14,0,1,1,73.435,73435,0.2000,3.8200,-9.0200,9.7976,0.1865,0.1036,-0.0818,-4.50,160.75,151.81,0.6221,2.9313,-9.3655,9.8333
11,14,0,1,1,73.566,73566,0.6800,1.6200,-8.9000,9.0718,-0.0458,0.4069,-0.0196,-0.69,158.56,151.94,0.6297,2.7585,-9.3042,9.7249
11,14,0,1,1,73.697,73697,0.3900,3.4400,-8.9800,9.6242,-0.4767,-0.2738,-0.0229,-0.75,161.75,152.31,0.5981,2.8483,-9.2615,9.7080
11,14,0,1,1,73.870,73870,-0.0400,2.3200,-9.3000,9.5851,0.2803,-0.1102,0.0425,-1.81,162.31,153.19,0.5140,2.7787,-9.2665,9.6878
11,14,0,1,1,74.003,74003,0.1700,2.0900,-8.3300,8.5899,-0.2073,-0.1974,-0.3480,-2.19,161.69,155.50,0.4687,2.6880,-9.1431,9.5416
11,14,0,1,1,74.134,74134,0.0900,3.1800,-9.0200,9.5646,-0.1189,0.1145,0.0022,-2.00,163.50,156.81,0.4188,2.7528,-9.1269,9.5422
11,14,0,1,1,74.264,74264,-0.5000,3.9700,-8.2900,9.2052,0.3240,0.3709,0.4592,-1.06,163.19,154.75,0.2977,2.9132,-9.0166,9.4802
11,14,0,1,1,74.395,74395,0.9500,2.7400,-8.8300,9.2940,0.0894,-0.0480,0.2269,-0.25,160.38,150.94,0.3837,2.8904,-8.9920,9.4529
11,14,0,1,1,74.525,74525,0.4400,3.4900,-8.8400,9.5142,-0.0578,0.0415,-0.0687,-0.63,161.00,150.63,0.3911,2.9694,-8.9720,9.4587
11,14,0,1,1,74.656,74656,0.2000,3.0100,-9.3100,9.7865,0.0785,-0.1298,-0.1309,-0.69,160.31,151.44,0.3659,2.9747,-9.0165,9.5016
11,14,0,1,1,74.786,74786,0.1500,3.3000,-8.8400,9.4371,0.0295,-0.1473,-0.0469,-1.63,160.06,152.00,0.3375,3.0176,-8.9933,9.4920
11,14,0,1,1,74.959,74959,0.4500,3.1100,-9.2900,9.8071,-0.0894,0.1156,-0.1407,-1.13,160.13,152.94,0.3523,3.0298,-9.0324,9.5335
11,14,0,1,1,75.089,75089,0.5500,3.4500,-9.0600,9.7102,0.1560,-0.0600,0.0011,-0.75,160.19,153.13,0.3783,3.0852,-9.0360,9.5557
11,14,0,1,1,75.219,75219,-0.0600,2.8000,-8.5700,9.0160,0.0338,-0.1004,0.0513,-2.00,158.75,153.31,0.3206,3.0476,-8.9746,9.4834
11,14,0,1,1,75.349,75349,1.0100,3.3500,-9.0600,9.7122,-0.0665,0.0698,0.3960,-1.94,159.44,151.81,0.4114,3.0874,-8.9859,9.5104
11,14,0,1,1,75.479,75479,1.1600,4.6800,-8.6000,9.8594,0.4483,-0.2662,-0.1396,-3.63,158.31,150.63,0.5101,3.2973,-8.9350,9.5376
11,14,0,1,1,75.609,75609,0.0100,2.9300,-9.0100,9.4744,0.5651,-0.1167,0.0556,-5.25,152.88,151.06,0.4442,3.2489,-8.9449,9.5270
11,14,0,1,1,75.739,75739,1.1000,4.3200,-7.8700,9.0448,-0.5421,0.0687,-0.1407,-5.25,154.38,150.75,0.5306,3.3900,-8.8033,9.4483
11,14,0,1,1,75.869,75869,0.8000,4.7600,-10.0400,11.1400,0.0567,0.0611,-0.3414,-4.44,156.06,152.44,0.5661,3.5706,-8.9662,9.6676
11,14,0,1,1,76.042,76042,1.3000,3.4600,-8.0100,8.8217,0.4920,-0.3087,-0.1134,-3.94,151.69,153.69,0.6628,3.5560,-8.8402,9.5516
11,14,0,1,1,76.172,76172,0.1000,4.8500,-8.5500,9.8303,-0.1254,0.0087,-0.1265,-4.44,150.88,155.56,0.5886,3.7265,-8.8020,9.5764
11,14,0,1,1,76.302,76302,1.7600,5.1400,-8.0100,9.6787,0.3862,-0.0982,0.1484,-4.69,149.81,154.75,0.7430,3.9128,-8.6976,9.5661
11,14,0,1,1,76.432,76432,0.6400,4.2700,-8.2900,9.3470,0.0371,-0.0742,0.0807,-6.00,147.88,154.50,0.7294,3.9598,-8.6439,9.5357
11,14,0,1,1,76.562,76562,1.5100,4.3900,-7.6000,8.9057,-0.0687,0.0884,0.1080,-6.25,148.63,154.31,0.8323,4.0165,-8.5063,9.4437
11,14,0,1,1,76.692,76692,0.7300,4.6400,-8.5300,9.7377,-0.3131,-0.0982,-0.0993,-6.31,149.94,154.00,0.8188,4.0987,-8.5095,9.4805
11,14,0,1,1,76.823,76823,1.4700,4.6500,-8.6000,9.8865,-0.2782,0.0076,0.1636,-7.13,152.38,153.88,0.9046,4.1713,-8.5214,9.5306
11,14,0,1,1,76.953,76953,1.4300,3.8100,-8.2900,9.2350,0.0327,0.2182,-0.0055,-6.19,153.06,153.44,0.9738,4.1237,-8.4909,9.4894
11,14,0,1,1,77.126,77126,1.4200,3.8300,-8.7300,9.6384,-0.3851,-0.0753,0.0938,-5.13,155.63,152.75,1.0326,4.0850,-8.5224,9.5071
11,14,0,1,1,77.256,77256,0.6600,3.2300,-9.5100,10.0652,-0.3436,-0.0916,0.1680,-6.44,157.81,152.19,0.9835,3.9723,-8.6525,9.5715
11,14,0,1,1,77.386,77386,1.4500,3.6200,-9.4200,10.1953,-0.4363,0.5116,0.0905,-5.25,161.81,150.88,1.0450,3.9259,-8.7537,9.6505
11,14,0,1,1,77.516,77516,1.8400,3.1200,-9.2300,9.9153,0.0949,-0.2138,-0.2236,-3.00,163.06,151.44,1.1498,3.8197,-8.8164,9.6769
11,14,0,1,1,77.646,77646,0.5800,2.3200,-8.9600,9.2736,0.1396,-0.3272,0.3109,-6.56,161.38,150.81,1.0747,3.6221,-8.8354,9.6093
11,14,0,1,1,77.776,77776,1.4100,2.4100,-9.1700,9.5857,-0.3709,0.2389,0.1025,-5.81,163.31,150.38,1.1189,3.4624,-8.8795,9.5961
11,14,0,1,1,77.906,77906,0.6500,3.1000,-9.7900,10.2896,-0.1887,0.4592,-0.1898,-3.19,165.69,151.25,1.0571,3.4146,-8.9994,9.6833
11,14,0,1,1,78.036,78036,0.6400,2.4600,-9.6800,10.0082,0.1593,0.3883,-0.1484,0.56,165.31,152.13,1.0021,3.2888,-9.0891,9.7177
11,14,0,1,1,78.209,78209,1.2100,2.8600,-10.5200,10.9688,-0.2694,-0.4243,0.1374,-0.06,165.50,152.38,1.0295,3.2323,-9.2777,9.8784
11,15,0,1,1,78.339,78339,0.2800,2.9400,-9.1300,9.5958,0.0676,-0.5661,-0.0960,-4.56,166.88,151.81,0.9307,3.1938,-9.2582,9.8377
11,15,0,1,1,78.469,78469,0.6800,1.2200,-9.0700,9.1769,0.2334,0.3382,-0.1440,-4.25,164.38,152.38,0.8977,2.9337,-9.2334,9.7298
11,15,0,1,1,78.599,78599,0.3900,2.7200,-8.6800,9.1046,-0.0622,0.1833,-0.0785,-3.31,165.38,152.88,0.8308,2.9055,-9.1605,9.6461
11,15,0,1,1,78.729,78729,1.2000,3.3900,-10.5600,11.1555,-0.0251,0.1734,0.0971,-1.50,165.69,152.50,0.8795,2.9694,-9.3449,9.8447
11,15,0,1,1,78.859,78859,1.3800,2.4300,-8.8000,9.2331,0.6698,-0.4211,-0.1222,-2.19,162.19,152.75,0.9454,2.8983,-9.2731,9.7614
11,15,0,1,1,78.990,78990,0.1400,3.0000,-10.8200,11.2291,-0.3033,-0.0840,-0.3142,-4.63,160.94,154.81,0.8393,2.9117,-9.4769,9.9496
11,15,0,1,1,79.120,79120,1.3100,3.0200,-8.8000,9.3956,0.3316,-0.0436,0.0633,-3.63,160.56,155.56,0.9013,2.9260,-9.3877,9.8744
11,15,0,1,1,79.293,79293,0.2900,3.7200,-9.6200,10.3183,-0.0164,0.0829,-0.1811,-4.94,158.75,155.69,0.8208,3.0306,-9.4183,9.9279
11,15,0,1,1,79.424,79424,0.9000,3.0800,-9.2200,9.7624,0.2585,0.1374,-0.1440,-3.00,157.81,156.19,0.8312,3.0371,-9.3922,9.9060
11,15,0,1,1,79.554,79554,-0.0100,2.2200,-8.7900,9.0660,-0.0545,0.0556,-0.2160,-2.06,156.69,157.25,0.7203,2.9294,-9.3129,9.7893
11,15,0,1,1,79.685,79685,-0.2500,3.3100,-8.6300,9.2464,-0.4985,0.4800,0.2105,0.44,159.75,157.63,0.5925,2.9796,-9.2229,9.7103
11,15,0,1,1,79.815,79815,1.4000,3.3900,-9.2300,9.9320,0.2062,0.1614,0.2945,1.75,160.63,154.50,0.6989,3.0337,-9.2238,9.7350
11,15,0,1,1,79.946,79946,-0.4700,3.1100,-9.1800,9.7039,0.0207,-0.4418,0.0218,0.13,159.81,154.94,0.5449,3.0437,-9.2180,9.7228
11,15,0,1,1,80.077,80077,-0.0200,4.0000,-6.1700,7.3532,0.1069,0.3087,0.1134,-0.44,159.38,153.50,0.4704,3.1697,-8.8164,9.3807
11,15,0,1,1,80.209,80209,1.5600,3.1200,-9.5200,10.1390,-0.0796,-0.1047,-0.0404,-0.13,158.69,151.19,0.6140,3.1632,-8.9091,9.4739
11,15,0,1,1,80.382,80382,0.3700,4.0800,-8.3300,9.2829,0.1658,0.1854,0.0447,-0.56,159.50,150.75,0.5819,3.2840,-8.8328,9.4415
11,15,0,1,1,80.514,80514,0.3900,2.9000,-9.0200,9.4827,0.0458,-0.1614,0.0742,-0.63,158.06,150.38,0.5566,3.2334,-8.8575,9.4456
11,15,0,1,1,80.644,80644,0.1000,3.7300,-9.0100,9.7521,0.0851,0.1331,-0.1014,-1.13,158.06,150.44,0.4964,3.2988,-8.8776,9.4837
11,15,0,1,1,80.776,80776,0.3700,3.6200,-9.0700,9.7727,0.1658,0.2651,0.0513,0.50,156.69,150.38,0.4797,3.3412,-8.9029,9.5213
11,15,0,1,1,80.906,80906,-0.0800,4.3300,-7.9000,9.0092,0.0436,-0.0109,0.3185,0.63,156.38,149.00,0.4060,3.4715,-8.7708,9.4415
11,15,0,1,1,81.036,81036,0.9700,3.9000,-9.2200,10.0578,0.2073,-0.2563,-0.0513,-0.56,155.00,147.25,0.4803,3.5279,-8.8300,9.5208
11,15,0,1,1,81.167,81167,0.0500,4.4200,-8.0500,9.1838,0.2323,-0.2574,0.1309,-2.13,153.31,148.44,0.4236,3.6455,-8.7272,9.4675
11,15,0,1,1,81.297,81297,0.1700,4.1700,-8.9000,9.8299,0.2203,-0.0218,-0.1516,-3.06,151.44,148.13,0.3902,3.7146,-8.7500,9.5138
11,15,0,1,1,81.470,81470,0.3700,4.8600,-7.6300,9.0539,-0.2051,-0.0491,-0.1298,-1.56,152.69,149.06,0.3875,3.8655,-8.6024,9.4389
11,15,0,1,1,81.601,81601,0.6700,4.5900,-9.4100,10.4912,0.3360,0.1505,0.3458,-2.50,152.06,148.13,0.4248,3.9610,-8.7088,9.5767
11,15,0,1,1,81.732,81732,1.6200,3.8200,-7.8600,8.8880,0.0971,0.1582,-0.0349,-1.38,150.25,146.88,0.5823,3.9424,-8.5969,9.4757
11,15,0,1,1,81.862,81862,0.4800,4.1300,-8.2500,9.2385,-0.4461,-0.3927,-0.0022,-2.56,152.00,147.38,0.5688,3.9671,-8.5512,9.4438
11,15,0,1,1,81.993,81993,0.0400,5.1300,-9.2400,10.5686,-0.1931,-0.0905,0.1538,-4.13,154.81,147.88,0.4991,4.1204,-8.6420,9.5870
11,15,0,1,1,82.125,82125,1.0000,3.2900,-8.0100,8.7169,0.3752,0.1942,-0.0796,-3.38,153.19,147.25,0.5651,4.0110,-8.5587,9.4688
11,15,0,1,1,82.259,82259,1.4500,3.9200,-9.0900,10.0048,-0.8367,-0.3622,-0.0065,-4.88,156.31,147.50,0.6817,3.9990,-8.6287,9.5347
11,15,0,1,1,82.390,82390,2.8900,3.3300,-9.8800,10.8192,-0.2934,-0.6861,0.3087,-7.50,159.75,148.25,0.9727,3.9108,-8.7936,9.6731
11,15,0,1,1,82.563,82563,-0.1300,2.7600,-8.0700,8.5299,0.0971,-0.1102,-0.0862,-15.31,160.38,149.00,0.8274,3.7592,-8.6983,9.5119
11,15,0,1,1,82.694,82694,2.4500,3.1300,-9.7000,10.4828,-0.4374,0.9610,0.1571,-11.19,162.63,147.25,1.0412,3.6763,-8.8303,9.6215
11,15,0,1,1,82.824,82824,2.4500,2.3100,-10.5000,11.0267,0.2509,0.2618,0.0153,-7.00,162.88,146.81,1.2269,3.4962,-9.0503,9.7794
11,15,0,1,1,82.955,82955,1.3700,3.5700,-7.6800,8.5793,0.1833,-0.1473,-0.1898,-7.88,163.13,146.88,1.2457,3.5059,-8.8697,9.6185
11,15,0,1,1,83.086,83086,2.0500,0.8400,-9.8600,10.1058,-0.1222,-0.0993,-0.0436,-7.75,160.13,148.25,1.3517,3.1546,-9.0002,9.6324
11,15,0,1,1,83.216,83216,1.1500,3.4500,-8.3000,9.0617,-0.5236,0.0916,-0.2640,-7.69,164.88,149.94,1.3251,3.1936,-8.9079,9.5554
11,15,0,1,1,83.347,83347,1.3100,2.9100,-9.9100,10.4112,-0.0938,-0.1298,0.0284,-7.88,166.31,150.56,1.3231,3.1562,-9.0400,9.6661
11,15,0,1,1,83.477,83477,1.0000,2.2700,-9.1300,9.4610,0.3731,0.2760,0.0251,-7.06,164.69,150.56,1.2806,3.0394,-9.0518,9.6340
11,15,0,1,1,83.650,83650,1.0800,2.4700,-9.4400,9.8174,-0.1080,0.3185,-0.1647,-4.25,164.06,150.00,1.2541,2.9644,-9.1030,9.6553
11,15,0,1,1,83.784,83784,0.8500,2.6200,-8.7100,9.1352,-0.1451,-0.0360,0.0011,-3.94,165.38,150.31,1.2009,2.9190,-9.0512,9.5858
11,15,0,1,1,83.915,83915,0.5200,1.9300,-9.2500,9.4635,-0.1407,0.2498,0.0556,-3.06,165.75,150.56,1.1111,2.7887,-9.0774,9.5609
11,15,0,1,1,84.045,84045,1.3400,2.3200,-10.6100,10.9430,-0.5781,-0.1996,0.0436,-2.81,168.63,150.31,1.1413,2.7269,-9.2794,9.7389
11,15,0,1,1,84.176,84176,0.0500,1.9500,-9.0000,9.2090,0.1898,-0.2585,0.0654,-4.81,170.00,150.06,0.9975,2.6245,-9.2425,9.6596
11,15,0,1,1,84.306,84306,0.1200,0.9200,-9.3000,9.3462,-0.1473,0.2847,-0.2662,-4.63,168.94,150.50,0.8819,2.3999,-9.2501,9.5970
11,15,0,1,1,84.437,84437,0.5600,1.2900,-9.2400,9.3464,-0.2443,0.3447,-0.1385,-1.50,171.00,152.25,0.8395,2.2537,-9.2488,9.5563
11,15,0,1,1,84.567,84567,0.5200,1.6700,-10.8800,11.0197,-0.3262,0.0371,0.1614,-0.44,172.88,151.06,0.7974,2.1768,-9.4637,9.7435
11,15,0,1,1,84.740,84740,0.7600,0.5100,-9.2200,9.2653,0.3316,0.0251,-0.0404,-0.19,172.13,151.44,0.7924,1.9571,-9.4316,9.6651
11,15,0,1,1,84.870,84870,-0.1300,2.2200,-11.3600,11.5756,-0.5574,-0.1920,0.1582,-1.56,173.69,151.06,0.6709,1.9918,-9.6857,9.9111
11,15,0,1,1,85.000,85000,1.2000,1.3900,-8.2500,8.4519,0.9261,-0.2411,0.0011,-2.38,172.25,151.13,0.7406,1.9125,-9.4965,9.7155
11,15,0,1,1,85.130,85130,1.0400,0.8400,-10.2700,10.3566,-0.4494,-0.3338,0.1298,-5.00,168.81,150.00,0.7801,1.7711,-9.5985,9.7916
11,15,0,1,1,85.260,85260,-0.1900,1.6000,-10.0000,10.1290,0.2356,0.8563,-0.0742,-2.38,170.75,151.06,0.6522,1.7486,-9.6514,9.8302
11,15,0,1,1,85.390,85390,1.2000,2.4200,-10.1600,10.5129,0.3294,-0.0894,0.2793,1.56,169.06,150.13,0.7244,1.8371,-9.7184,9.9170
11,15,0,1,1,85.520,85520,0.0500,1.2900,-9.1300,9.2208,0.2105,-0.5683,0.1713,-2.44,166.13,148.19,0.6355,1.7650,-9.6409,9.8217
11,15,0,1,1,85.651,85651,0.4300,2.8700,-9.6800,10.1057,-0.0240,0.1385,0.0382,-3.38,166.19,147.63,0.6085,1.9106,-9.6460,9.8522
11,15,0,1,1,85.824,85824,0.1200,1.9700,-9.3600,9.5658,0.1091,-0.0513,0.0807,-2.81,164.69,146.94,0.5441,1.9184,-9.6083,9.8131
11,15,0,1,1,85.955,85955,-0.0700,2.4500,-9.3300,9.6466,0.1385,0.0905,0.0098,-2.50,164.31,147.38,0.4632,1.9885,-9.5717,9.7870
11,15,0,1,1,86.085,86085,0.2500,2.8900,-9.0900,9.5416,0.3862,0.2378,0.0044,-0.38,163.00,148.00,0.4351,2.1073,-9.5082,9.7486
11,15,0,1,1,86.216,86216,0.5800,2.6900,-8.6800,9.1058,0.3098,-0.3131,0.0305,-0.69,160.38,148.13,0.4542,2.1841,-9.3990,9.6602
11,15,0,1,1,86.347,86347,0.2800,2.7200,-9.0300,9.4349,-0.1265,-0.1931,-0.1462,-2.19,159.94,149.38,0.4312,2.2547,-9.3504,9.6281
11,15,0,1,1,86.480,86480,-0.2500,3.1300,-8.8400,9.3811,-0.1713,-0.0327,0.0742,-2.81,161.94,150.13,0.3415,2.3700,-9.2832,9.5870
11,15,0,1,1,86.611,86611,0.4500,2.9800,-8.5500,9.0656,-0.4440,0.3185,-0.0262,-1.50,163.94,149.69,0.3558,2.4504,-9.1865,9.5144
11,15,0,1,1,86.744,86744,1.0300,3.4100,-8.8800,9.5678,-0.0284,0.0240,-0.0807,-0.38,165.63,149.63,0.4446,2.5769,-9.1462,9.5126
11,15,0,1,1,86.917,86917,-0.3900,3.1400,-9.1700,9.7005,0.3512,0.0535,0.1276,-1.38,162.88,148.69,0.3346,2.6511,-9.1493,9.5315
11,15,0,1,1,87.048,87048,0.5300,2.4800,-8.5600,8.9278,0.2029,0.2378,0.2531,-0.19,160.69,146.88,0.3604,2.6285,-9.0716,9.4516
11,16,0,1,1,87.178,87178,0.6300,3.4600,-8.8600,9.5325,-0.2127,-0.0218,0.0087,0.06,161.63,145.88,0.3959,2.7381,-9.0438,9.4574
11,16,0,1,1,87.309,87309,0.6600,3.3600,-9.6200,10.2112,0.0098,-0.1276,-0.0120,-0.25,162.06,146.25,0.4307,2.8200,-9.1197,9.5555
11,16,0,1,1,87.439,87439,-0.1600,3.4300,-8.6800,9.3345,0.2585,-0.0927,-0.1669,-1.00,161.31,147.63,0.3529,2.9004,-9.0617,9.5211
11,16,0,1,1,87.570,87570,0.2000,3.0200,-9.0400,9.5332,0.0600,-0.0349,0.1156,-1.25,159.63,148.06,0.3327,2.9162,-9.0589,9.5225
11,16,0,1,1,87.701,87701,0.3200,3.2600,-8.9700,9.5494,-0.1113,0.2083,0.0371,-0.38,159.75,147.56,0.3310,2.9615,-9.0472,9.5253
11,16,0,1,1,87.834,87834,0.8000,3.9200,-8.7600,9.6304,-0.1604,-0.1822,0.0229,-0.75,160.81,146.63,0.3928,3.0878,-9.0093,9.5319
11,16,0,1,1,88.007,88007,-0.5900,3.9200,-9.3900,10.1925,0.1462,-0.1778,-0.1014,-2.44,160.44,147.81,0.2633,3.1975,-9.0595,9.6108
11,16,0,1,1,88.138,88138,1.1600,3.0200,-8.3000,8.9082,0.4734,0.2116,0.2356,-1.81,157.56,146.31,0.3815,3.1741,-8.9594,9.5127
11,16,0,1,1,88.269,88269,0.6800,3.5300,-8.3300,9.0726,-0.1374,-0.2334,-0.1647,-2.50,156.81,146.25,0.4208,3.2210,-8.8765,9.4522
11,16,0,1,1,88.400,88400,0.4100,3.5500,-9.3900,10.0470,-0.2105,-0.3294,-0.1244,-4.63,158.00,147.50,0.4194,3.2643,-8.9441,9.5304
11,16,0,1,1,88.530,88530,1.0700,4.0800,-8.7700,9.7316,-0.0469,-0.0044,-0.0851,-4.69,159.25,149.00,0.5051,3.3718,-8.9212,9.5505
11,16,0,1,1,88.660,88660,0.8500,2.7900,-8.6000,9.0811,-0.0480,-0.1931,-0.3142,-5.06,158.81,150.44,0.5506,3.2951,-8.8789,9.4866
11,16,0,1,1,88.790,88790,-0.0100,4.0500,-8.7700,9.6600,-0.1582,0.1047,-0.0884,-5.19,160.19,151.75,0.4767,3.3946,-8.8645,9.5042
11,16,0,1,1,88.921,88921,1.5000,3.1100,-9.3600,9.9766,0.2313,0.2585,0.1953,-3.13,159.31,151.31,0.6115,3.3571,-8.9298,9.5596
11,16,0,1,1,89.094,89094,0.4800,3.2700,-8.8500,9.4470,0.0033,-0.2869,-0.1265,-4.44,158.13,150.44,0.5942,3.3456,-8.9193,9.5446
11,16,0,1,1,89.226,89226,1.1200,3.4100,-8.2200,8.9694,-0.1505,-0.1811,-0.0415,-5.88,159.06,151.38,0.6635,3.3541,-8.8271,9.4662
11,16,0,1,1,89.357,89357,0.8200,3.6900,-10.4200,11.0844,-0.1418,-0.1353,0.0480,-7.19,159.88,151.69,0.6841,3.3984,-9.0370,9.6791
11,16,0,1,1,89.492,89492,0.8400,3.6600,-7.8300,8.6839,0.3676,0.0458,-0.1407,-7.38,159.19,152.38,0.7047,3.4329,-8.8780,9.5446
11,16,0,1,1,89.623,89623,0.8100,2.1200,-8.8400,9.1267,-0.2596,0.1560,0.1047,-6.94,157.63,152.31,0.7185,3.2599,-8.8730,9.4801
11,16,0,1,1,89.754,89754,1.2400,3.8900,-9.3400,10.1934,-0.4636,0.2116,0.0545,-4.88,162.13,151.63,0.7873,3.3429,-8.9345,9.5719
11,16,0,1,1,89.884,89884,0.1900,2.4200,-9.1600,9.4762,-0.2116,0.0993,0.0654,-4.75,163.69,151.69,0.7086,3.2213,-8.9642,9.5518
11,16,0,1,1,90.014,90014,1.0600,2.4600,-9.4400,9.8127,-0.2651,0.2498,0.1527,-3.06,165.88,151.13,0.7549,3.1210,-9.0269,9.5810
11,16,0,1,1,90.187,90187,0.5400,2.2700,-9.5900,9.8698,-0.2160,-0.0491,0.0284,-2.50,168.25,150.56,0.7266,3.0088,-9.1011,9.6131
11,16,0,1,1,90.318,90318,0.9900,1.8500,-9.5100,9.7387,-0.2018,-0.4789,0.3371,-4.88,169.69,149.50,0.7613,2.8561,-9.1550,9.6203
11,16,0,1,1,90.448,90448,0.4000,1.8000,-9.8600,10.0309,-0.0884,-0.0164,-0.0164,-7.19,170.81,147.81,0.7137,2.7170,-9.2479,9.6651
11,16,0,1,1,90.579,90579,0.7900,2.0100,-10.1400,10.3674,-0.0851,0.4603,-0.2825,-4.88,171.38,149.06,0.7237,2.6238,-9.3655,9.7529
11,16,0,1,1,90.709,90709,1.7100,1.4900,-8.8900,9.1748,0.3796,0.0338,0.1265,-2.50,169.81,149.06,0.8537,2.4744,-9.3028,9.6640
11,16,0,1,1,90.839,90839,0.3800,1.2500,-9.7100,9.7975,-0.2105,-0.2596,-0.0055,-4.44,168.69,149.00,0.7913,2.3130,-9.3565,9.6706
11,16,0,1,1,90.970,90970,0.7900,2.6800,-9.8500,10.2386,0.0316,0.2083,-0.0109,-4.00,170.25,149.50,0.7911,2.3614,-9.4215,9.7451
11,16,0,1,1,91.100,91100,0.9300,1.9900,-9.8300,10.0724,0.3927,-0.0502,-0.1244,-3.06,167.75,149.63,0.8094,2.3125,-9.4753,9.7870
11,16,0,1,1,91.273,91273,0.8400,1.9500,-9.3600,9.5978,0.0491,0.0262,0.1156,-3.13,165.44,150.06,0.8134,2.2647,-9.4601,9.7614
11,16,0,1,1,91.408,91408,1.0000,2.9400,-10.0100,10.4806,-0.4581,0.1396,-0.0971,-2.25,167.38,150.63,0.8380,2.3537,-9.5326,9.8546
11,16,0,1,1,91.539,91539,0.3800,1.8800,-9.0700,9.2706,0.3229,-0.2094,0.0000,-2.88,168.06,150.38,0.7777,2.2913,-9.4716,9.7758
11,16,0,1,1,91.669,91669,0.2100,1.9100,-9.7400,9.9277,-0.0404,-0.0469,0.0022,-3.81,167.94,149.94,0.7029,2.2410,-9.5070,9.7928
11,16,0,1,1,91.800,91800,1.3600,1.5700,-9.9300,10.1449,0.2520,0.0480,0.2771,-2.75,166.69,148.81,0.7895,2.1526,-9.5627,9.8338
11,16,0,1,1,91.930,91930,0.4000,1.1900,-8.6600,8.7505,-0.0535,-0.1124,0.0862,-2.88,165.81,148.56,0.7381,2.0258,-9.4438,9.6868
11,16,0,1,1,92.061,92061,0.2500,1.8800,-9.4900,9.6777,-0.8203,-0.1222,0.0731,-4.06,169.81,148.38,0.6738,2.0065,-9.4499,9.6840
11,16,0,1,1,92.191,92191,0.7400,3.0200,-10.6900,11.1330,0.0971,0.0338,-0.0458,-3.63,172.69,148.63,0.6825,2.1401,-9.6133,9.8722
11,16,0,1,1,92.364,92364,0.6900,1.3200,-9.0900,9.2112,0.8694,0.3883,-0.2825,-1.06,164.31,149.69,0.6835,2.0320,-9.5443,9.7822
11,16,0,1,1,92.494,92494,0.3800,0.1300,-7.7200,7.7304,-0.2356,-0.1800,0.0578,0.19,161.75,151.13,0.6435,1.7814,-9.3039,9.4948
11,16,0,1,1,92.625,92625,-0.1900,2.3100,-9.1900,9.4778,-0.8279,0.0665,0.0338,-0.69,166.63,151.06,0.5337,1.8510,-9.2889,9.4866
11,16,0,1,1,92.755,92755,0.1200,4.1100,-10.9300,11.6778,0.1298,0.1134,0.1996,0.38,170.50,151.31,0.4792,2.1487,-9.5052,9.7568
11,16,0,1,1,92.886,92886,0.0600,1.9400,-8.5800,8.7968,1.3450,0.1091,0.4178,0.75,162.81,148.38,0.4239,2.1212,-9.3833,9.6294
11,16,0,1,1,93.017,93017,1.1900,2.7600,-6.4000,7.0706,0.1036,-0.1331,0.9468,-1.31,157.94,143.81,0.5249,2.2054,-8.9901,9.2716
11,17,0,1,1,93.149,93149,0.2900,4.1000,-9.4400,10.2960,-0.8105,-0.0916,-0.2051,-2.25,160.69,143.38,0.4939,2.4551,-9.0494,9.3895
11,17,0,1,1,93.280,93280,0.7000,4.2000,-9.3100,10.2375,0.1604,0.2705,0.0349,-1.38,163.00,142.75,0.5211,2.6850,-9.0838,9.4866
11,17,0,1,1,93.454,93454,0.0700,3.1000,-8.0900,8.6639,0.0033,-0.2083,0.0764,-1.50,160.69,142.56,0.4616,2.7397,-8.9528,9.3740
11,17,0,1,1,93.584,93584,-0.1000,3.6800,-10.0700,10.7218,-0.0120,0.2738,-0.5411,-0.56,161.06,144.38,0.3876,2.8636,-9.1000,9.5478
11,17,0,1,1,93.716,93716,-0.1000,3.6600,-7.8400,8.6528,0.1876,-0.0284,0.1374,0.25,160.25,144.81,0.3234,2.9685,-8.9340,9.4198
11,17,0,1,1,93.846,93846,0.4000,3.4100,-9.4300,10.0356,0.1178,-0.0818,-0.2127,0.38,159.06,145.44,0.3335,3.0267,-8.9993,9.5005
11,17,0,1,1,93.976,93976,0.1000,4.0200,-8.7600,9.6389,0.2803,-0.2378,0.1080,-0.88,157.94,146.50,0.3027,3.1576,-8.9678,9.5123
11,17,0,1,1,94.107,94107,0.8300,3.4300,-7.9600,8.7072,0.3043,0.0818,-0.0098,-1.00,155.31,146.81,0.3722,3.1935,-8.8350,9.4018
11,17,0,1,1,94.237,94237,0.3500,3.9700,-8.8400,9.6969,-0.3763,-0.2978,-0.0545,-2.25,156.19,147.50,0.3693,3.2958,-8.8357,9.4376
11,17,0,1,1,94.368,94368,0.7400,4.6600,-8.5900,9.8006,0.0949,-0.2454,-0.0982,-3.88,156.69,148.44,0.4181,3.4756,-8.8033,9.4738
11,17,0,1,1,94.540,94540,-0.3300,4.1600,-8.3600,9.3437,0.3229,0.3240,0.0033,-3.88,154.50,149.25,0.3195,3.5658,-8.7449,9.4493
11,17,0,1,1,94.670,94670,1.5100,3.4200,-8.0500,8.8758,0.0949,0.1691,0.2236,-1.81,152.38,147.00,0.4764,3.5466,-8.6533,9.3640
11,17,0,1,1,94.800,94800,0.3100,3.9000,-8.2200,9.1035,-0.4821,-0.1156,0.0884,-2.38,154.63,146.56,0.4545,3.5931,-8.5962,9.3280
11,17,0,1,1,94.930,94930,0.5800,3.9600,-9.4800,10.2902,-0.4767,0.1876,0.1767,-2.06,157.81,145.88,0.4710,3.6415,-8.7127,9.4548
11,17,0,1,1,95.060,95060,1.7000,4.0500,-9.3400,10.3212,0.1865,-0.3578,0.0185,-2.88,159.31,145.06,0.6330,3.6953,-8.7953,9.5611
11,17,0,1,1,95.190,95190,3.1500,2.3100,-8.8900,9.7103,-0.0774,-1.3930,0.7439,-9.25,157.94,144.31,0.9646,3.5128,-8.8078,9.5314
11,17,0,1,1,95.321,95321,-1.9500,3.2400,-8.0000,8.8487,-0.5181,0.0535,-0.5651,-16.44,160.25,146.50,0.5806,3.4768,-8.7014,9.3882
11,17,0,1,1,95.451,95451,2.9800,3.0700,-9.8700,10.7574,-0.2105,1.4497,0.1854,-6.88,162.69,146.50,0.8968,3.4232,-8.8554,9.5362
11,17,0,1,1,95.624,95624,0.8700,2.5000,-9.7000,10.0547,0.2651,-0.1778,-0.0382,-2.63,162.19,145.81,0.8932,3.3016,-8.9667,9.5968
11,17,0,1,1,95.754,95754,0.3400,2.3800,-9.4300,9.7316,-0.2498,-0.0622,-0.1265,-3.75,162.13,146.88,0.8203,3.1801,-9.0277,9.6065
11,17,0,1,1,95.885,95885,1.0200,2.8800,-9.0100,9.5139,-0.2716,-0.1014,-0.0360,-3.56,164.25,147.50,0.8466,3.1406,-9.0254,9.5936
11,17,0,1,1,96.015,96015,0.7100,1.9800,-9.4000,9.6325,-0.1124,-0.3371,0.2880,-5.19,165.06,147.44,0.8286,2.9876,-9.0747,9.5898
11,17,0,1,1,96.146,96146,1.4100,2.4000,-9.5200,9.9186,-0.3894,-0.3992,0.0295,-8.50,167.94,145.69,0.9052,2.9102,-9.1334,9.6285
11,17,0,1,1,96.276,96276,0.4000,1.7100,-9.1300,9.2974,0.1265,0.2029,-0.1724,-9.63,168.44,146.19,0.8387,2.7520,-9.1330,9.5754
11,17,0,1,1,96.406,96406,1.5600,2.1400,-10.3300,10.6641,-0.1298,0.9447,-0.3556,-3.81,168.06,147.38,0.9337,2.6714,-9.2907,9.7121
11,17,0,1,1,96.537,96537,1.7400,2.2600,-8.7900,9.2412,0.0218,-0.4189,-0.0905,-1.56,168.81,148.31,1.0400,2.6172,-9.2247,9.6450
11,17,0,1,1,96.714,96714,0.3600,1.6300,-9.9500,10.0891,-0.5509,-0.4843,0.4287,-10.44,171.19,144.94,0.9504,2.4871,-9.3203,9.6931
11,17,0,1,1,96.844,96844,1.4500,2.2900,-9.9300,10.2933,0.1080,0.9654,-0.2869,-6.94,173.06,146.38,1.0162,2.4611,-9.4006,9.7705
11,17,0,1,1,96.990,96990,1.1900,1.2500,-8.5900,8.7617,0.4178,-0.6556,-0.1931,-5.69,170.25,146.44,1.0391,2.3015,-9.2938,9.6308
11,17,0,1,1,97.125,97125,1.2400,0.2600,-9.9800,10.0601,-0.4178,0.1145,0.1407,-7.00,168.75,147.19,1.0656,2.0325,-9.3842,9.6608
11,17,0,1,1,97.256,97256,1.1500,2.6700,-9.2800,9.7247,-0.1658,0.3752,-0.0742,-4.94,173.38,147.44,1.0767,2.1165,-9.3705,9.6667
11,17,0,1,1,97.386,97386,1.7700,0.6900,-10.0200,10.1985,0.1800,-0.2356,0.2040,-4.69,171.69,146.44,1.1681,1.9285,-9.4561,9.7212
11,17,0,1,1,97.517,97517,-0.2400,1.3500,-10.0900,10.1827,-0.2291,0.4385,-0.2694,-4.75,172.56,146.63,0.9825,1.8523,-9.5396,9.7673
11,17,0,1,1,97.647,97647,0.9500,1.3600,-9.8400,9.9789,-0.1778,0.6796,0.0894,0.56,174.06,147.25,0.9782,1.7874,-9.5792,9.7935
11,17,0,1,1,97.820,97820,1.4500,0.4000,-10.2200,10.3301,0.4647,-0.6938,0.2214,0.50,171.13,145.94,1.0404,1.6046,-9.6636,9.8511
11,17,0,1,1,97.950,97950,-1.1700,2.3500,-9.1000,9.4711,0.1604,-0.0284,-0.3480,-4.13,170.75,147.00,0.7491,1.7028,-9.5894,9.7682
11,17,0,1,1,98.080,98080,1.7500,1.4100,-10.7000,10.9335,-0.0349,0.2323,0.0742,-1.00,168.88,147.06,0.8810,1.6642,-9.7357,9.9162
11,18,0,1,1,98.210,98210,0.6700,1.5600,-8.5700,8.7366,-0.0578,-0.6218,0.0796,-2.69,169.50,145.69,0.8532,1.6505,-9.5821,9.7606
11,18,0,1,1,98.340,98340,0.2600,2.0700,-9.6800,9.9023,-0.1385,-0.4701,-0.0349,-8.44,170.88,145.06,0.7750,1.7058,-9.5950,9.7762
11,18,0,1,1,98.470,98470,1.6900,1.1400,-10.4900,10.6862,0.3578,0.7385,0.0087,-5.56,168.88,146.00,0.8956,1.6312,-9.7129,9.8896
11,18,0,1,1,98.601,98601,2.3600,2.4200,-9.0000,9.6138,0.3447,-0.1320,-0.0458,-1.88,167.44,146.75,1.0886,1.7352,-9.6190,9.8347
11,18,0,1,1,98.731,98731,0.7600,1.0100,-9.1800,9.2666,0.1418,-0.4025,-0.1396,-5.44,164.88,148.06,1.0453,1.6396,-9.5612,9.7569
11,18,0,1,1,98.904,98904,0.4900,3.4000,-9.2700,9.8860,-0.1724,0.5105,-0.3480,-4.31,167.44,150.50,0.9721,1.8716,-9.5228,9.7535
11,18,0,1,1,99.035,99035,0.5300,2.2500,-10.1800,10.4391,0.3196,0.1996,0.0458,-1.31,165.94,150.88,0.9138,1.9214,-9.6094,9.8421
11,18,0,1,1,99.165,99165,-0.2700,2.4200,-8.7800,9.1114,0.4014,0.3829,0.0033,0.25,163.19,150.56,0.7578,1.9871,-9.5001,9.7352
11,18,0,1,1,99.296,99296,0.8300,2.3100,-8.3400,8.6937,0.1134,0.5291,0.2182,3.00,160.88,148.00,0.7674,2.0297,-9.3472,9.5958
11,18,0,1,1,99.426,99426,-0.2200,2.6900,-9.1700,9.5589,-0.3698,-0.5007,-0.0065,3.00,162.44,149.25,0.6372,2.1167,-9.3239,9.5823
11,18,0,1,1,99.558,99558,-0.2800,2.8200,-8.6000,9.0549,0.0196,-0.0982,0.1385,0.75,163.56,149.31,0.5164,2.2094,-9.2285,9.5033
11,18,0,1,1,99.689,99689,-0.0900,3.4100,-7.2600,8.0215,-0.1178,0.1593,0.4527,0.44,163.94,146.69,0.4365,2.3676,-8.9691,9.2866
11,18,0,1,1,99.823,99823,0.0600,3.5500,-10.3200,10.9137,-0.0905,0.4069,0.1385,3.06,164.81,145.38,0.3869,2.5234,-9.1471,9.4967
11,18,0,1,1,99.996,99996,-0.3100,2.3300,-9.2600,9.5537,0.3796,-0.1822,-0.2160,3.31,161.06,144.69,0.2950,2.4979,-9.1620,9.5010
11,18,0,1,1,100.126,100126,-0.2600,3.5500,-8.7400,9.4370,-0.0535,-0.2083,0.0425,1.63,160.50,145.19,0.2219,2.6366,-9.1064,9.4830
11,18,0,1,1,100.256,100256,-0.6900,3.8400,-9.6700,10.4274,0.3436,0.2967,-0.1025,2.13,159.50,145.50,0.1017,2.7951,-9.1806,9.5973
11,18,0,1,1,100.386,100386,0.0900,3.7100,-8.3500,9.1375,0.3338,0.1091,0.1298,3.75,156.75,144.75,0.1002,2.9157,-9.0712,9.5288
11,18,0,1,1,100.517,100517,0.1900,3.4200,-8.1800,8.8682,0.0720,-0.1200,0.0055,2.94,155.25,144.25,0.1120,2.9821,-8.9538,9.4380
11,18,0,1,1,100.647,100647,0.1000,4.2200,-9.0100,9.9498,-0.2738,-0.2171,-0.0404,1.75,156.44,144.94,0.1104,3.1453,-8.9612,9.4978
11,18,0,1,1,100.777,100777,0.7100,4.5200,-7.7400,8.9912,0.2083,-0.3272,-0.0196,0.00,156.88,145.38,0.1894,3.3264,-8.8002,9.4099
11,18,0,1,1,100.908,100908,0.2800,3.0600,-9.2200,9.7186,0.1647,-0.4265,-0.1287,-3.00,154.75,146.19,0.2014,3.2913,-8.8556,9.4496
11,18,0,1,1,101.081,101081,1.3700,3.2500,-9.1300,9.7876,-0.3033,-0.3196,-0.3120,-4.25,156.44,148.63,0.3554,3.2859,-8.8917,9.4861
11,18,0,1,1,101.212,101212,-0.3200,3.9100,-8.3400,9.2166,-0.3098,-0.2323,-0.0687,-6.50,159.31,150.19,0.2664,3.3681,-8.8190,9.4441
11,18,0,1,1,101.343,101343,0.0000,3.2300,-10.4300,10.9187,-0.2640,0.9108,0.0676,-3.00,161.00,150.63,0.2313,3.3499,-9.0313,9.6353
11,18,0,1,1,101.473,101473,1.0700,3.9000,-8.2800,9.2148,0.3316,0.2782,-0.0022,1.31,161.50,149.31,0.3418,3.4224,-8.9323,9.5716
11,18,0,1,1,101.604,101604,-0.7900,1.6200,-8.9400,9.1199,-0.0022,0.1069,-0.2127,2.38,158.38,150.50,0.1927,3.1849,-8.9333,9.4860
11,18,0,1,1,101.736,101736,0.9800,3.8000,-8.5100,9.3713,-0.7189,-0.2345,-0.0949,3.00,163.06,151.44,0.2964,3.2659,-8.8775,9.4639
11,18,0,1,1,101.871,101871,-0.1500,2.6300,-9.7100,10.0610,-0.0654,-1.3646,0.0829,-3.88,165.19,152.75,0.2376,3.1821,-8.9872,9.5369
11,18,0,1,1,102.001,102001,-0.2900,2.6400,-8.6600,9.0581,-0.2127,0.3000,0.1418,-7.00,166.19,152.06,0.1681,3.1107,-8.9441,9.4711
11,18,0,1,1,102.174,102174,1.4200,2.2000,-10.0200,10.3565,-0.2291,0.1658,0.0109,-0.94,167.63,151.69,0.3330,2.9907,-9.0859,9.5712
11,18,0,1,1,102.305,102305,-0.1000,1.5500,-8.7900,8.9262,-0.0185,0.0622,-0.3054,-1.00,168.63,152.75,0.2760,2.8008,-9.0469,9.4746
11,18,0,1,1,102.435,102435,1.1300,1.6300,-10.3700,10.5580,-0.6469,-0.2247,0.1036,-0.88,170.75,153.19,0.3885,2.6466,-9.2212,9.6014
11,18,0,1,1,102.566,102566,0.4000,1.8500,-8.8600,9.0599,0.2782,-0.4265,-0.0840,-3.50,172.19,154.00,0.3900,2.5416,-9.1736,9.5272
11,18,0,1,1,102.697,102697,0.3800,0.8000,-9.7000,9.7403,-0.0142,0.3229,0.0393,-4.00,170.50,153.63,0.3887,2.3121,-9.2430,9.5357
11,18,0,1,1,102.827,102827,1.1000,1.0700,-9.4700,9.5935,-0.2596,0.1374,0.1451,-2.13,172.06,152.69,0.4824,2.1484,-9.2729,9.5308
11,18,0,1,1,102.958,102958,0.5700,1.1300,-10.0500,10.1294,-0.3545,0.0349,0.1254,-2.69,174.69,150.88,0.4940,2.0142,-9.3753,9.6020
11,18,0,1,1,103.088,103088,0.2600,1.2700,-9.7100,9.7962,-0.0273,0.3687,-0.0600,-0.69,175.69,151.25,0.4631,1.9161,-9.4194,9.6235
11,18,0,1,1,103.261,103261,0.8700,1.0400,-9.6700,9.7646,0.5334,0.0524,0.2280,1.13,172.44,149.69,0.5168,1.8007,-9.4524,9.6363
11,18,0,1,1,103.396,103396,0.5100,0.5400,-9.6200,9.6486,-0.0207,-0.6360,0.1244,-2.06,170.13,147.75,0.5159,1.6346,-9.4745,9.6283
11,18,0,1,1,103.526,103526,-0.7700,0.9400,-9.4600,9.5377,-0.4025,0.2487,-0.2171,-4.00,172.50,149.00,0.3464,1.5430,-9.4726,9.6037
11,18,0,1,1,103.657,103657,0.7700,1.6700,-10.1600,10.3251,-0.1636,0.3065,0.0905,-0.88,174.81,149.25,0.4022,1.5598,-9.5632,9.6979
11,18,0,1,1,103.787,103787,1.0200,1.0400,-10.1600,10.2639,0.2902,-0.0905,-0.0240,0.00,173.56,148.81,0.4836,1.4913,-9.6418,9.7685
11,18,0,1,1,103.917,103917,-0.3800,0.0900,-9.5100,9.5180,0.2051,0.0524,-0.0556,-0.81,171.69,149.00,0.3698,1.3066,-9.6245,9.7198
11,18,0,1,1,104.048,104048,0.3700,0.9600,-10.0300,10.0826,-0.5509,0.0327,0.0458,0.63,173.81,149.06,0.3699,1.2609,-9.6779,9.7667
11,18,0,1,1,104.179,104179,0.7400,1.1400,-9.2700,9.3691,0.0742,-0.6436,0.3349,-1.38,175.25,148.69,0.4186,1.2450,-9.6241,9.7134
11,18,0,1,1,104.352,104352,0.9300,2.1000,-8.5700,8.8724,0.7461,-0.1516,-0.0524,-4.88,172.81,147.44,0.4860,1.3577,-9.4852,9.5942
11,18,0,1,1,104.482,104482,-0.2100,-0.0200,-10.0400,10.0422,0.1287,0.1516,0.0262,-6.00,167.50,146.88,0.3943,1.1761,-9.5583,9.6385
11,18,0,1,1,104.613,104613,0.8100,1.9200,-9.5400,9.7649,-0.1974,0.3785,0.3218,-3.56,169.13,145.88,0.4491,1.2742,-9.5559,9.6510
11,18,0,1,1,104.743,104743,0.8300,1.3400,-9.9500,10.0741,0.3174,0.0305,0.0862,-2.31,168.25,144.94,0.4993,1.2828,-9.6079,9.7060
11,18,0,1,1,104.874,104874,0.0600,0.6700,-9.3900,9.4141,-0.3469,-0.1364,-0.3665,-2.06,167.94,147.44,0.4414,1.2021,-9.5791,9.6644
11,18,0,1,1,105.005,105005,0.9700,1.5600,-9.3500,9.5287,-0.2989,0.1091,-0.2771,-1.38,171.06,149.00,0.5110,1.2492,-9.5490,9.6439
11,18,0,1,1,105.138,105138,-0.2300,1.4800,-9.1500,9.2718,0.1876,-0.3894,-0.1047,-2.56,171.00,150.75,0.4134,1.2797,-9.4964,9.5911
11,18,0,1,1,105.269,105269,0.5200,0.4600,-9.4500,9.4755,0.1702,0.1189,0.1298,-3.06,168.94,150.50,0.4274,1.1716,-9.4903,9.5719
11,18,0,1,1,105.442,105442,-0.1600,3.0100,-7.0000,7.6214,0.6861,0.5661,0.6676,0.50,167.69,148.13,0.3500,1.4139,-9.1621,9.2772
11,19,0,1,1,105.573,105573,0.4700,2.9400,-10.4600,10.8755,0.3894,-0.0371,0.4920,0.94,163.25,142.88,0.3658,1.6150,-9.3331,9.4789
11,19,0,1,1,105.703,105703,0.4200,3.1400,-8.5200,9.0899,0.6163,0.2291,0.0458,0.31,159.56,140.88,0.3730,1.8159,-9.2260,9.4104
11,19,0,1,1,105.834,105834,0.8900,3.0800,-8.1800,8.7858,-0.0894,-0.2400,-0.2029,0.94,158.00,141.13,0.4411,1.9825,-9.0882,9.3123
11,19,0,1,1,105.964,105964,-0.4000,3.7500,-9.1800,9.9245,-0.2258,-0.3534,-0.3632,-0.44,159.75,144.81,0.3303,2.2154,-9.1003,9.3719
11,19,0,1,1,106.094,106094,-0.7900,3.6200,-9.4700,10.1690,0.0873,0.1909,-0.1233,0.38,159.75,146.81,0.1826,2.4005,-9.1490,9.4604
11,19,0,1,1,106.225,106225,0.4400,3.2500,-8.7500,9.3444,0.2978,0.4701,0.0131,4.00,158.13,146.94,0.2166,2.5125,-9.0964,9.4395
11,19,0,1,1,106.355,106355,0.3900,3.1000,-8.5800,9.1312,-0.0175,-0.2967,-0.0207,2.63,157.63,146.63,0.2394,2.5899,-9.0284,9.3955
11,19,0,1,1,106.528,106528,-0.6500,3.4500,-9.0500,9.7071,-0.0305,-0.1931,-0.2149,0.25,158.44,148.88,0.1222,2.7032,-9.0312,9.4279
11,19,0,1,1,106.658,106658,-0.3700,3.8900,-8.4700,9.3279,0.0022,0.0720,0.2105,0.56,158.69,149.19,0.0574,2.8596,-8.9573,9.4028
11,19,0,1,1,106.788,106788,0.4100,3.0500,-8.6200,9.1529,0.0458,-0.0753,0.0393,0.00,158.06,147.69,0.1038,2.8847,-8.9128,9.3686
11,19,0,1,1,106.918,106918,0.4000,2.9200,-8.8100,9.2899,-0.1713,-0.3098,0.1462,-1.94,158.81,147.06,0.1429,2.8893,-8.8993,9.3577
11,19,0,1,1,107.048,107048,0.3900,3.1900,-8.9500,9.5095,-0.2574,0.0305,-0.0218,-3.06,160.75,146.88,0.1754,2.9290,-8.9060,9.3769
11,19,0,1,1,107.178,107178,1.0300,2.2100,-10.2600,10.5457,-0.1298,-0.0545,-0.1473,-2.69,162.00,147.63,0.2880,2.8342,-9.0844,9.5206
11,19,0,1,1,107.308,107308,1.0100,2.7500,-8.7600,9.2369,-0.3142,-0.5738,0.0142,-4.94,163.88,148.13,0.3832,2.8231,-9.0416,9.4799
11,19,0,1,1,107.439,107439,0.5600,2.8300,-10.3200,10.7156,0.1091,-0.0753,0.1124,-7.31,164.81,148.69,0.4065,2.8240,-9.2101,9.6419
11,19,0,1,1,107.612,107612,1.0700,1.9600,-9.0800,9.3506,0.1756,0.1647,-0.1014,-6.50,162.63,147.88,0.4939,2.7102,-9.1929,9.5968
11,19,0,1,1,107.742,107742,2.4200,2.4300,-9.5000,10.1001,-0.7636,-0.6883,0.3414,-7.94,165.50,146.94,0.7477,2.6733,-9.2334,9.6416
11,19,0,1,1,107.873,107873,0.0000,2.7100,-7.8100,8.2668,0.2400,-0.2847,-0.1298,-12.88,167.31,147.69,0.6492,2.6781,-9.0458,9.4563
11,19,0,1,1,108.003,108003,2.3000,1.7100,-10.4000,10.7877,-0.2411,0.5574,0.1287,-10.50,166.81,146.63,0.8667,2.5505,-9.2243,9.6096
11,19,0,1,1,108.134,108134,2.6700,2.1300,-9.2300,9.8417,0.0982,-0.2083,-0.0982,-9.25,167.88,146.75,1.1043,2.4951,-9.2250,9.6201
11,19,0,1,1,108.265,108265,1.5100,1.9500,-8.6600,9.0043,0.1549,-0.5683,0.0469,-12.81,166.75,146.81,1.1578,2.4233,-9.1506,9.5366
11,19,0,1,1,108.398,108398,1.3200,1.5000,-9.3000,9.5122,-0.0349,0.0131,0.0458,-15.06,166.00,146.88,1.1792,2.3016,-9.1703,9.5279
11,19,0,1,1,108.529,108529,1.3000,2.3700,-9.5400,9.9156,-0.2127,1.0090,-0.2073,-10.31,167.63,147.94,1.1951,2.3106,-9.2190,9.5790
11,19,0,1,1,108.702,108702,3.9100,2.0300,-10.0100,10.9366,-0.3163,-0.9392,0.2476,-7.88,168.75,147.06,1.5529,2.2736,-9.3232,9.7213
11,19,0,1,1,108.833,108833,-0.3900,1.6200,-8.6700,8.8287,0.5487,-0.3272,-0.4385,-14.38,167.50,148.94,1.2968,2.1875,-9.2371,9.5808
11,19,0,1,1,108.964,108964,1.6700,0.7400,-9.3800,9.5562,-0.3240,1.1563,-0.2923,-9.06,165.38,150.81,1.3460,1.9968,-9.2560,9.5641
11,19,0,1,1,109.094,109094,1.5600,1.8800,-9.4000,9.7123,-0.6283,0.1145,-0.0807,-3.50,169.94,151.94,1.3742,1.9814,-9.2750,9.5833
11,19,0,1,1,109.224,109224,0.4600,1.2800,-11.9500,12.0272,-0.6043,0.2116,-0.0131,-3.88,173.44,151.25,1.2537,1.8890,-9.6275,9.8908
11,20,0,1,1,109.354,109354,1.0400,2.5500,-9.3300,9.7279,0.4363,0.2094,-0.1113,-1.25,175.06,152.31,1.2256,1.9761,-9.5883,9.8662
11,20,0,1,1,109.485,109485,1.4900,0.0300,-9.6100,9.7249,0.3480,-0.8574,0.1953,-3.56,170.56,152.50,1.2604,1.7196,-9.5911,9.8252
11,20,0,1,1,109.616,109616,-0.3300,1.3600,-9.7400,9.8400,-0.3240,-0.4669,-0.0654,-10.06,171.56,151.75,1.0508,1.6722,-9.6107,9.8116
11,20,0,1,1,109.788,109788,0.9700,1.2800,-9.4200,9.5559,0.1462,1.0886,-0.0240,-2.94,172.38,151.88,1.0402,1.6205,-9.5856,9.7771
11,20,0,1,1,109.919,109919,1.3500,0.2100,-9.1100,9.2119,-0.0218,0.1145,0.1331,1.81,171.31,150.75,1.0810,1.4347,-9.5229,9.6909
11,20,0,1,1,110.049,110049,-0.3300,1.9600,-10.3700,10.5588,-0.3425,-0.2607,-0.0676,0.00,173.94,150.25,0.8951,1.5039,-9.6346,9.7922
11,20,0,1,1,110.180,110180,0.0400,1.0700,-9.9900,10.0472,0.4461,0.2978,-0.1167,0.69,172.75,150.88,0.7824,1.4467,-9.6814,9.8201
11,20,0,1,1,110.310,110310,0.0400,1.5200,-9.7200,9.8382,0.1702,-0.0611,-0.0600,1.88,170.88,151.63,0.6846,1.4564,-9.6865,9.8192
11,20,0,1,1,110.441,110441,-0.2300,1.3000,-9.6300,9.7201,0.1320,-0.0404,0.0185,1.00,169.94,151.44,0.5641,1.4358,-9.6790,9.8012
11,20,0,1,1,110.571,110571,-0.0200,1.8300,-9.6500,9.8220,0.2127,-0.0218,-0.2083,1.50,168.94,150.88,0.4871,1.4877,-9.6752,9.8010
11,20,0,1,1,110.701,110701,0.0900,1.5100,-9.0300,9.1558,-0.0480,-0.2476,0.1069,0.19,168.31,150.31,0.4348,1.4907,-9.5902,9.7151
11,20,0,1,1,110.874,110874,0.1400,1.8300,-9.6100,9.7837,-0.1331,-0.2116,-0.0338,-3.00,170.00,148.75,0.3959,1.5354,-9.5928,9.7230
11,20,0,1,1,111.009,111009,1.1800,1.7600,-11.5300,11.7231,-0.1702,0.4167,-0.1669,-1.69,170.25,148.94,0.4992,1.5650,-9.8481,9.9841
11,20,0,1,1,111.139,111139,0.3200,0.8800,-7.7800,7.8361,0.8094,0.2683,0.0076,0.56,167.63,149.38,0.4756,1.4747,-9.5756,9.7001
11,20,0,1,1,111.271,111271,-0.2000,1.7500,-10.3600,10.5087,-0.6349,-0.0556,0.0502,0.56,168.81,148.69,0.3866,1.5110,-9.6789,9.8038
11,20,0,1,1,111.401,111401,0.5000,2.5400,-8.5200,8.9046,0.3392,0.2334,-0.0971,2.06,169.94,149.25,0.4015,1.6466,-9.5262,9.6758
11,20,0,1,1,111.531,111531,0.4800,1.3500,-10.5300,10.6270,0.1593,-0.2563,-0.2422,2.19,167.25,150.94,0.4119,1.6075,-9.6585,9.8000
11,20,0,1,1,111.662,111662,-1.1500,1.6100,-8.1500,8.3867,0.4254,0.0273,-0.3458,0.94,164.88,152.75,0.2061,1.6078,-9.4597,9.5976
11,20,0,1,1,111.792,111792,1.0300,1.4400,-9.9700,10.1260,-0.3294,0.2803,0.0033,1.81,164.81,152.63,0.3146,1.5857,-9.5269,9.6631
11,20,0,1,1,111.965,111965,-0.0900,3.7300,-6.3100,7.3306,0.4003,0.2956,0.4821,3.19,165.63,150.94,0.2613,1.8683,-9.1030,9.2965
11,20,0,1,1,112.095,112095,0.9400,1.5100,-10.0100,10.1668,0.1189,-0.3763,0.0327,2.94,161.38,147.44,0.3507,1.8211,-9.2225,9.4072
11,20,0,1,1,112.225,112225,-0.7000,3.8500,-8.7300,9.5669,-0.3000,-0.0709,-0.0753,0.75,163.81,147.50,0.2123,2.0884,-9.1576,9.3952
11,20,0,1,1,112.355,112355,0.7500,2.3600,-9.7200,10.0305,0.3327,-0.0742,-0.1396,1.19,162.63,147.75,0.2831,2.1242,-9.2317,9.4772
11,20,0,1,1,112.485,112485,-0.5000,2.8200,-8.2500,8.7330,0.0709,-0.0065,-0.1222,0.31,161.19,148.88,0.1799,2.2159,-9.1024,9.3699
11,20,0,1,1,112.615,112615,-0.0800,3.6800,-9.1000,9.8163,-0.2967,0.2400,0.1658,2.19,162.44,149.38,0.1457,2.4088,-9.1021,9.4165
11,20,0,1,1,112.745,112745,0.3500,2.4300,-9.4500,9.7637,0.3458,-0.0807,-0.0469,2.63,161.38,148.44,0.1726,2.4116,-9.1479,9.4620
11,20,0,1,1,112.876,112876,-0.2200,2.6700,-8.7100,9.1127,-0.1124,-0.1625,0.0316,1.44,160.69,148.75,0.1209,2.4457,-9.0902,9.4142
11,20,0,1,1,113.048,113048,0.4400,3.0300,-8.7200,9.2419,0.0371,0.2433,0.2138,1.69,161.44,147.44,0.1629,2.5227,-9.0414,9.3882
11,20,0,1,1,113.178,113178,-0.4800,3.3800,-8.8500,9.4856,-0.2443,-0.1396,0.2542,0.94,162.50,146.25,0.0782,2.6356,-9.0162,9.3939
11,20,0,1,1,113.308,113308,0.1500,2.0000,-10.2000,10.3953,0.1985,0.2345,-0.0764,1.88,161.56,145.88,0.0877,2.5519,-9.1722,9.5210
11,20,0,1,1,113.438,113438,-0.1400,3.5300,-7.4400,8.2361,-0.0622,0.1854,0.2356,2.81,162.19,145.63,0.0577,2.6808,-8.9439,9.3372
11,20,0,1,1,113.568,113568,-0.0400,2.7600,-10.7000,11.0503,-0.0829,-0.2225,-0.2356,3.31,161.31,146.06,0.0448,2.6912,-9.1753,9.5620
11,20,0,1,1,113.698,113698,-0.7600,3.4800,-8.3900,9.1148,0.3687,-0.0665,-0.2367,3.00,161.06,148.38,-0.0613,2.7952,-9.0719,9.4929
11,20,0,1,1,113.829,113829,0.5100,2.1800,-8.9700,9.2452,-0.0033,-0.3992,-0.0316,2.50,158.94,149.88,0.0140,2.7141,-9.0584,9.4563
11,20,0,1,1,113.959,113959,-0.5100,3.3200,-9.2200,9.8128,-0.4003,-0.3283,0.1440,-0.56,161.38,149.94,-0.0550,2.7939,-9.0797,9.5000
11,20,0,1,1,114.132,114132,-0.0500,2.3200,-10.1500,10.4119,-0.1254,0.9894,0.3491,3.50,161.56,148.88,-0.0544,2.7315,-9.2208,9.6170
11,20,0,1,1,114.262,114262,1.0500,3.3500,-8.0500,8.7822,0.1287,-0.2553,0.1614,5.69,162.31,146.06,0.0912,2.8130,-9.0665,9.4933
11,20,0,1,1,114.393,114393,-0.0700,2.5500,-10.3200,10.6306,-0.0229,-0.9359,-0.0731,0.56,161.00,146.75,0.0699,2.7783,-9.2317,9.6409
11,20,0,1,1,114.523,114523,-1.0900,3.2200,-7.4800,8.2163,0.1636,0.4025,-0.2313,-0.50,161.38,148.69,-0.0829,2.8365,-9.0008,9.4376
11,20,0,1,1,114.654,114654,1.1300,1.7900,-9.5300,9.7623,-0.3022,0.1440,-0.0469,2.56,160.44,148.31,0.0769,2.6986,-9.0706,9.4638
11,20,0,1,1,114.785,114785,0.2900,3.1000,-9.1800,9.6936,-0.4941,-0.3905,-0.0436,1.31,165.00,149.38,0.1050,2.7515,-9.0850,9.4931
11,20,0,1,1,114.915,114915,-0.2400,1.6700,-9.8400,9.9836,0.1134,-0.1865,0.0491,-0.75,165.19,150.00,0.0595,2.6090,-9.1845,9.5480
11,20,0,1,1,115.046,115046,0.7800,1.5200,-9.4100,9.5638,-0.1691,0.0109,-0.1527,-0.88,165.44,150.31,0.1545,2.4655,-9.2142,9.5396
11,20,0,1,1,115.222,115222,-0.0700,1.8300,-9.8200,9.9893,-0.6425,-0.0196,0.0709,-1.31,170.81,150.69,0.1249,2.3818,-9.2940,9.5952
11,20,0,1,1,115.353,115353,0.7700,0.8300,-9.6800,9.7460,-0.1407,0.0807,0.0295,-0.38,172.63,150.75,0.2099,2.1773,-9.3449,9.5975
11,20,0,1,1,115.484,115484,1.1700,1.8100,-10.7500,10.9639,-0.2585,-0.4069,0.1014,-1.75,174.75,150.19,0.3364,2.1289,-9.5300,9.7707
11,21,0,1,1,115.614,115614,1.1200,0.8200,-9.3600,9.4624,0.6763,-0.7909,0.2694,-6.38,172.88,149.13,0.4397,1.9564,-9.5076,9.7168
11,21,0,1,1,115.744,115744,-0.7600,-0.1000,-8.2800,8.3154,-0.2313,0.6076,-0.3076,-7.00,170.75,150.81,0.2816,1.6854,-9.3459,9.5008
11,21,0,1,1,115.890,115890,1.7500,1.4200,-9.8800,10.1338,-0.4156,0.6174,-0.0480,-0.38,174.44,151.00,0.4751,1.6504,-9.4163,9.5716
11,21,0,1,1,116.025,116025,0.9600,1.0200,-10.0300,10.1273,0.0524,-0.4603,0.0687,-1.44,175.50,150.44,0.5390,1.5674,-9.4971,9.6407
11,21,0,1,1,116.156,116156,0.1500,0.2600,-9.3000,9.3048,0.1582,-0.0698,-0.2094,-3.81,174.25,151.38,0.4877,1.3951,-9.4712,9.5858
11,21,0,1,1,116.328,116328,0.6300,1.2300,-10.5100,10.6005,-0.3796,0.2956,-0.1276,-0.69,176.50,152.94,0.5065,1.3733,-9.6080,9.7189
11,21,0,1,1,116.458,116458,0.7600,1.0300,-10.0100,10.0915,0.2465,-0.0829,0.2203,-0.50,176.38,152.56,0.5399,1.3281,-9.6610,9.7668
11,21,0,1,1,116.588,116588,2.2000,0.0100,-9.4100,9.6638,0.0284,-0.5301,0.3883,-2.00,174.88,150.88,0.7586,1.1544,-9.6279,9.7265
11,21,0,1,1,116.718,116718,-1.6100,1.1400,-9.6100,9.8104,0.0196,-0.2247,-0.1942,-9.19,176.00,148.38,0.4465,1.1525,-9.6256,9.7046
11,21,0,1,1,116.848,116848,1.5800,1.2600,-10.6400,10.8302,-0.0349,0.9250,-0.0894,-3.00,175.31,150.38,0.5959,1.1667,-9.7592,9.8468
11,21,0,1,1,116.979,116979,0.8900,0.0800,-9.4900,9.5320,0.3829,-0.1614,0.0556,-0.94,172.75,150.00,0.6346,1.0235,-9.7238,9.7981
11,21,0,1,1,117.109,117109,0.1100,0.6000,-10.2600,10.2781,-0.1287,-0.2149,0.0273,-2.88,172.50,149.75,0.5655,0.9677,-9.7944,9.8583
11,21,0,1,1,117.240,117240,0.2600,1.3500,-10.0600,10.1535,0.2313,0.1451,-0.2051,-2.06,172.31,151.50,0.5252,1.0181,-9.8294,9.8960
11,21,0,1,1,117.412,117412,0.8000,0.0400,-9.8600,9.8925,0.1025,-0.2214,-0.1833,-1.06,169.88,153.19,0.5615,0.8892,-9.8335,9.8895
11,21,0,1,1,117.542,117542,0.4400,0.7600,-9.6300,9.6700,0.0633,-0.0120,0.0087,-2.44,170.06,153.25,0.5454,0.8721,-9.8066,9.8604
11,21,0,1,1,117.672,117672,0.8100,1.5100,-10.3300,10.4712,0.3622,0.3894,0.2607,-0.06,169.31,153.75,0.5803,0.9562,-9.8756,9.9387
11,21,0,1,1,117.802,117802,-0.7600,2.5200,-3.1400,4.0973,0.8258,0.4102,-0.5956,0.88,164.75,151.81,0.4037,1.1623,-8.9880,9.0719
11,21,0,1,1,117.932,117932,-0.3700,2.4100,-12.4500,12.6865,-1.1356,-0.6752,0.1560,0.44,164.88,153.06,0.3017,1.3267,-9.4442,9.5417
11,21,0,1,1,118.062,118062,0.1000,3.9300,-9.0300,9.8486,0.4287,0.1625,-0.0458,-0.06,168.69,151.88,0.2752,1.6697,-9.3896,9.5409
11,21,0,1,1,118.193,118193,0.5500,1.0800,-9.4100,9.4877,0.6185,-0.2465,0.1254,-0.25,162.63,151.88,0.3114,1.5920,-9.3923,9.5314
11,21,0,1,1,118.323,118323,-0.2300,2.9700,-9.1200,9.5942,-0.2520,0.1331,0.1865,-1.63,162.38,150.69,0.2400,1.7736,-9.3564,9.5261
11,21,0,1,1,118.496,118496,0.6500,2.7600,-9.2800,9.7035,0.1974,0.1004,0.2934,-0.50,162.63,147.56,0.2941,1.9036,-9.3464,9.5428
11,21,0,1,1,118.626,118626,0.7200,2.8500,-9.0500,9.5154,0.1113,-0.0447,0.0687,-1.13,161.44,146.19,0.3502,2.0283,-9.3073,9.5322
11,21,0,1,1,118.756,118756,0.5000,3.1200,-9.3100,9.8316,0.0654,-0.0545,-0.0840,-1.69,161.25,146.75,0.3699,2.1722,-9.3077,9.5649
11,21,0,1,1,118.887,118887,0.6500,3.0300,-9.1700,9.6795,0.2236,-0.0327,-0.0098,-2.06,160.00,147.13,0.4068,2.2852,-9.2895,9.5751
11,21,0,1,1,119.018,119018,0.3000,2.9900,-8.7900,9.2895,-0.0284,0.0065,0.0305,-2.44,159.56,147.13,0.3928,2.3781,-9.2237,9.5334
